# Sensor type: Respeck
# Activity type: Running
# Activity code: 11
# Subject id: s1912575
# Notes: 
timestamp,accel_x,accel_y,accel_z,gyro_x,gyro_y,gyro_z
1664567612737,-0.022949219,-0.90948486,0.25042725,8.171875,9.671875,7.65625
1664567612784,-0.012451172,-0.987854,0.17108154,9.828125,9.390625,12.328125
1664567612816,0.084472656,-0.9324341,0.19989014,13.609375,4.625,15.90625
1664567612859,0.14453125,-0.8948364,0.1383667,16.546875,2.078125,17.390625
1664567612906,0.20800781,-0.798645,0.137146,22.3125,-7.15625,22.859375
1664567612938,0.29541016,-0.67974854,0.12664795,21.390625,-11.046875,25.890625
1664567612986,0.1472168,-0.7839966,0.25604248,0.359375,-15.421875,9.96875
1664567613017,-0.009765625,-1.0252075,0.31341553,-2.515625,-19.90625,1.390625
1664567613062,-0.16015625,-0.909729,0.26507568,6.703125,-1.375,12.171875
1664567613099,-0.2109375,-1.0061646,0.4142456,-11.546875,5.109375,13.546875
1664567613178,0.2788086,-2.0,0.8004761,2.15625,-9.25,23.796875
1664567613180,0.2548828,-2.0,0.78778076,40.078125,-12.734375,-15.75
1664567613231,0.024169922,-0.8399048,-0.14776611,43.3125,-18.03125,-20.625
1664567613255,0.21777344,-0.67144775,0.23773193,36.234375,25.9375,5.40625
1664567613300,0.29418945,-0.86724854,0.4586792,8.203125,-5.453125,-3.78125
1664567613332,-0.031982422,-0.51275635,-0.0115356445,0.734375,9.296875,-25.171875
1664567613379,-0.41308594,0.35443115,-0.051086426,38.34375,16.40625,-12.09375
1664567613412,0.022705078,0.25604248,-0.2630005,-26.296875,16.84375,-15.96875
1664567613457,0.25927734,-0.7490845,-0.38409424,-101.4375,-27.296875,9.765625
1664567613489,0.7199707,-2.0,1.0617065,41.890625,-33.4375,20.984375
1664567613535,-0.7324219,-2.0,0.8185425,73.828125,-18.703125,-4.953125
1664567613568,-0.099853516,-1.3023071,-0.04107666,-9.234375,58.390625,6.15625
1664567613615,0.05102539,-1.4746704,-0.13043213,48.453125,21.109375,14.5625
1664567613647,-0.026855469,-1.0134888,-0.4163208,12.921875,37.4375,2.46875
1664567613694,0.51831055,-0.17852783,0.3270874,58.46875,57.421875,10.859375
1664567613728,0.22509766,0.49456787,-0.066467285,27.71875,19.03125,6.859375
1664567613773,-0.37329102,0.3065796,-0.2793579,-80.265625,-11.734375,16.546875
1664567613805,0.2902832,-0.17681885,-0.43658447,-26.4375,-81.71875,-1.203125
1664567613850,0.62231445,-2.0,-0.4907837,-111.984375,24.046875,-26.078125
1664567613885,0.8820801,-2.0,0.6364136,65.0625,-19.03125,1.734375
1664567613929,0.31201172,-1.513977,-0.3928833,-0.609375,-19.5625,-43.9375
1664567613963,0.1105957,-1.3338013,0.1461792,25.28125,-17.609375,-4.15625
1664567614008,0.16723633,-0.71343994,0.27972412,-2.140625,-39.921875,-9.375
1664567614042,-0.4880371,0.03729248,-0.21612549,23.515625,-46.796875,-27.875
1664567614091,-0.60253906,0.5541382,-0.27593994,29.953125,48.609375,-8.765625
1664567614120,0.5776367,0.13812256,-0.040100098,-5.59375,13.625,-20.875
1664567614166,0.15844727,-0.40093994,-0.21270752,-47.234375,2.078125,-8.296875
1664567614199,-0.2705078,-1.7185669,0.15496826,-141.75,34.4375,21.328125
1664567614246,-0.23217773,-2.0,1.8043823,103.84375,-1.65625,-26.65625
1664567614278,0.19555664,-0.9026489,-0.2000122,26.546875,46.40625,19.5
1664567614325,0.34448242,-1.0396118,-0.22076416,-57.8125,27.859375,11.28125
1664567614357,-0.020751953,-1.3311157,0.36834717,57.296875,35.578125,-1.953125
1664567614403,-0.15771484,0.40325928,0.023864746,27.03125,18.171875,8.0
1664567614436,0.033691406,0.63739014,-0.579895,-63.09375,35.734375,6.3125
1664567614493,0.30639648,0.06439209,0.024597168,18.140625,4.3125,15.671875
1664567614516,0.30273438,-0.53082275,-0.37042236,-26.234375,-52.875,-2.3125
1664567614560,0.21826172,-1.9229126,0.12200928,-92.53125,-14.671875,-33.96875
1664567614596,0.94018555,-2.0,1.0753784,128.23438,-12.515625,7.21875
1664567614641,0.24707031,-1.5755005,0.058044434,24.21875,-27.6875,-23.625
1664567614671,-0.033447266,-1.6314087,0.28045654,18.65625,-1.734375,-10.765625
1664567614718,0.32910156,-0.70513916,0.12347412,22.0625,-24.21875,-3.53125
1664567614754,-0.11230469,0.19866943,-0.038879395,59.296875,-10.875,-22.75
1664567614796,-0.72387695,0.8932495,-0.3867798,31.84375,27.34375,-1.6875
1664567614829,0.6633301,-0.12335205,0.03753662,-31.03125,1.421875,-17.828125
1664567614875,0.2475586,-0.315979,0.13031006,-41.828125,-4.265625,-7.78125
1664567614907,-0.1965332,-0.93951416,-0.23931885,-146.54688,-0.78125,24.6875
1664567614952,0.9030762,-2.0,0.96795654,-18.578125,-51.21875,49.078125
1664567614987,-0.8046875,-1.6985474,0.9664917,182.71875,-1.5625,1.015625
1664567615031,0.08520508,-1.3081665,-0.38580322,-63.109375,59.609375,6.328125
1664567615066,0.69555664,-1.1235962,0.035095215,41.21875,31.890625,3.96875
1664567615111,0.30249023,-0.2119751,0.2736206,72.171875,35.953125,12.734375
1664567615145,-0.2956543,0.57562256,-0.34552002,-37.671875,-25.296875,28.484375
1664567615189,-0.111328125,0.32196045,-0.24346924,-56.1875,-19.1875,-5.703125
1664567615224,0.25585938,-0.25445557,0.10687256,9.078125,-17.0625,-2.03125
1664567615271,0.103027344,-0.79400635,-0.18634033,-73.296875,-23.796875,-0.671875
1664567615302,1.1540527,-2.0,0.28875732,-110.4375,-18.734375,-6.4375
1664567615347,0.35327148,-2.0,0.2909546,52.28125,2.125,-26.96875
1664567615392,-0.51538086,-1.2473755,0.03338623,46.0625,-23.203125,-25.203125
1664567615426,0.5085449,-1.2451782,0.35662842,14.328125,10.203125,-3.15625
1664567615471,0.2536621,-0.44049072,0.26483154,40.75,-23.453125,-21.1875
1664567615505,-0.64819336,0.5309448,-0.5149536,41.40625,-5.984375,-26.71875
1664567615550,0.13330078,0.77923584,-0.08062744,13.96875,31.171875,-8.265625
1664567615584,0.58618164,-0.2637329,0.002380371,-21.40625,-3.078125,-8.578125
1664567615663,-0.0014648438,-0.78863525,-0.41607666,-75.828125,-10.625,13.484375
1664567615666,-0.44921875,-2.0,0.3607788,-105.125,15.46875,41.625
1664567615709,-0.39086914,-2.0,1.6327515,121.515625,60.234375,-30.390625
1664567615739,-0.044433594,-1.3596802,-0.30133057,12.78125,51.046875,8.203125
1664567615785,0.41357422,-1.0840454,-0.10040283,-17.6875,38.984375,8.1875
1664567615818,0.42260742,-0.7107544,0.44744873,56.84375,53.65625,11.96875
1664567615865,-0.3642578,0.47943115,-0.30841064,15.578125,-5.59375,22.328125
1664567615898,-0.17089844,0.50775146,-0.3447876,-51.984375,2.234375,4.28125
1664567615942,0.38085938,0.008483887,-0.0012817383,-0.46875,-7.21875,-0.71875
1664567615978,0.2097168,-0.4656372,-0.43804932,-6.75,-33.015625,-6.859375
1664567616022,0.21606445,-1.5300903,0.1671753,-91.671875,-17.84375,-21.234375
1664567616055,1.3259277,-2.0,1.9035034,102.734375,-35.28125,36.53125
1664567616099,0.3491211,-2.0,-0.24395752,43.71875,-75.484375,-24.328125
1664567616134,-0.26733398,-1.1885376,0.04949951,6.53125,5.828125,3.765625
1664567616180,0.59375,-0.78131104,0.14324951,24.6875,-34.9375,-0.953125
1664567616213,-0.20922852,-0.062316895,0.04144287,66.28125,-33.03125,-27.21875
1664567616256,-0.72875977,0.67303467,-0.27471924,30.328125,39.796875,-6.265625
1664567616297,0.5842285,0.34490967,-0.1375122,-20.484375,-11.78125,-5.953125
1664567616338,0.37451172,-0.46929932,0.007019043,-63.265625,1.921875,0.765625
1664567616370,-0.4897461,-1.3430786,-0.06378174,-155.51562,-0.359375,9.046875
1664567616417,0.8154297,-2.0,0.78704834,-10.078125,-32.203125,36.875
1664567616453,-0.6933594,-1.7478638,0.61761475,190.8125,36.515625,-0.515625
1664567616497,-0.1430664,-1.6384888,-0.44854736,-58.03125,52.15625,1.75
1664567616528,0.89160156,-1.4341431,-0.032287598,49.65625,40.890625,22.375
1664567616572,0.34277344,-0.28253174,0.43548584,61.40625,65.328125,-16.84375
1664567616610,-0.3852539,0.5529175,-0.5366821,-23.828125,14.75,26.84375
1664567616652,0.032958984,0.3788452,-0.08355713,-7.5625,0.53125,14.0625
1664567616684,0.47192383,-0.074035645,-0.11993408,-7.015625,-28.046875,-7.0
1664567616730,-0.045654297,-0.66192627,-0.33892822,-71.390625,-49.609375,-16.140625
1664567616764,0.6154785,-2.0,-0.018371582,-82.078125,-24.96875,-11.4375
1664567616816,0.85961914,-2.0,0.93011475,67.21875,18.65625,-10.8125
1664567616842,-0.5715332,-1.0125122,-0.3526001,76.125,-34.640625,-32.8125
1664567616888,0.0,-1.2097778,0.22772217,26.9375,10.828125,17.828125
1664567616922,0.70288086,-0.60821533,0.3234253,59.8125,-31.46875,-7.78125
1664567616969,-0.3762207,0.101501465,-0.21929932,68.140625,7.796875,-48.921875
1664567617002,-0.5749512,1.1547241,-0.070129395,-22.109375,21.515625,7.546875
1664567617058,0.7092285,-0.3242798,-0.014221191,-46.484375,-0.90625,-22.78125
1664567617080,0.0546875,-0.7385864,-0.15167236,-52.953125,-12.859375,6.78125
1664567617127,0.06713867,-1.420227,-0.5930786,-94.359375,33.984375,34.6875
1664567617158,0.47143555,-2.0,1.999939,-9.640625,-12.15625,9.75
1664567617205,-1.3852539,-2.0,0.16278076,61.953125,25.984375,0.96875
1664567617237,-0.15039062,-1.6831665,-0.32843018,-33.546875,68.203125,9.765625
1664567617283,1.0134277,-1.1167603,-0.16607666,39.125,42.140625,1.21875
1664567617316,0.20922852,-0.07720947,0.23114014,20.46875,68.78125,18.046875
1664567617360,-0.18310547,0.6288452,-0.37042236,-27.5625,-3.6875,32.0
1664567617395,0.19604492,0.3600464,-0.07305908,6.5,-17.046875,5.25
1664567617441,0.3515625,-0.3027954,-0.21954346,-0.765625,-41.21875,-20.546875
1664567617474,0.01171875,-0.6824341,-0.07891846,-76.09375,-19.515625,-17.234375
1664567617520,1.999939,-2.0,0.76678467,-20.15625,-75.875,97.75
1664567617551,-0.37841797,-1.8777466,0.10809326,5.109375,-65.53125,-25.9375
1664567617596,-0.7102051,-1.3196411,-0.11090088,53.5,-24.46875,-4.828125
1664567617631,0.3227539,-1.4214478,0.31781006,-11.171875,-3.109375,10.96875
1664567617678,0.5739746,-0.79107666,0.22381592,27.890625,-31.03125,-13.359375
1664567617709,-0.38183594,0.22210693,-0.0881958,81.140625,-7.90625,-38.171875
1664567617756,-0.74780273,1.1552124,-0.14654541,45.703125,1.21875,18.3125
1664567617792,0.63500977,-0.09576416,-0.14337158,-22.171875,14.546875,1.421875
1664567617834,0.2993164,-0.5772095,-0.36553955,-29.953125,0.5,3.0
1664567617879,-0.40283203,-2.0,-0.23809814,-150.46875,26.984375,23.65625
1664567617912,0.55371094,-2.0,1.999939,23.0,-9.09375,5.296875
1664567617959,-0.8300781,-1.8340454,-0.2041626,148.1875,44.609375,-1.171875
1664567617993,0.021728516,-1.1558228,-0.3706665,-117.15625,38.40625,7.171875
1664567618036,0.9436035,-1.635315,-0.08258057,18.859375,33.78125,27.46875
1664567618070,0.2770996,-0.14727783,0.4569702,65.953125,49.234375,0.75
1664567618153,-0.3996582,0.5297241,-0.47125244,-59.09375,42.078125,29.546875
1664567618155,-0.095947266,0.4088745,-0.14678955,-13.640625,16.375,6.046875
1664567618195,0.29711914,-0.101623535,0.008728027,13.265625,-23.625,-7.65625
1664567618227,0.04663086,-0.6604614,-0.17852783,-37.828125,-67.3125,-19.328125
1664567618272,1.3657227,-2.0,-0.2666626,-115.1875,-75.78125,-21.09375
1664567618327,0.6279297,-2.0,0.4616089,74.890625,-12.796875,7.671875
1664567618351,-0.2993164,-1.53302,0.11907959,16.453125,-55.796875,-29.703125
1664567618385,-0.4658203,-1.317688,0.26287842,30.203125,13.453125,-0.140625
1664567618429,0.46899414,-0.66192627,0.17132568,38.125,-46.046875,-4.53125
1664567618462,-0.020751953,-0.05303955,-0.11553955,62.625,9.25,-31.984375
1664567618508,-0.6972656,0.80877686,-0.35650635,19.421875,24.96875,3.28125
1664567618543,0.83032227,0.105163574,-0.05718994,-19.125,6.609375,-12.921875
1664567618587,0.44580078,-0.4446411,0.11468506,-21.25,-6.546875,4.78125
1664567618620,-0.625,-1.0774536,-0.51397705,-128.79688,-8.984375,37.59375
1664567618667,1.5554199,-2.0,0.9918823,-74.109375,-44.1875,75.75
1664567618699,-0.85009766,-1.8013306,0.04949951,178.10938,33.1875,-24.671875
1664567618745,-0.35742188,-1.416565,-0.40386963,-55.984375,68.96875,14.90625
1664567618779,0.80615234,-1.5286255,-0.31427002,-10.765625,33.828125,12.375
1664567618824,0.4128418,-0.31011963,0.43548584,56.4375,71.8125,-6.0625
1664567618856,-0.25317383,0.45819092,-0.28863525,-27.921875,38.71875,20.96875
1664567618902,-0.04248047,0.4628296,-0.15435791,10.875,7.5,9.671875
1664567618936,0.3005371,-0.08404541,-0.159729,-1.21875,-17.296875,-7.46875
1664567618979,0.16088867,-0.505188,-0.58917236,-35.171875,-62.78125,-20.21875
1664567619014,0.38085938,-1.6560669,0.20281982,-125.703125,-33.015625,-24.375
1664567619058,0.7265625,-2.0,1.6776733,116.28125,-14.046875,18.671875
1664567619093,0.19165039,-1.6033325,-0.30255127,98.78125,-68.890625,-12.671875
1664567619136,-0.43847656,-0.9338989,0.6918335,-5.734375,-39.703125,-12.671875
1664567619172,0.21411133,-1.0962524,-0.039611816,32.953125,-5.109375,-6.515625
1664567619216,0.115722656,0.11029053,-0.046936035,20.84375,1.03125,-16.984375
1664567619261,-0.77563477,0.8239136,-0.44854736,21.796875,24.25,-3.03125
1664567619294,0.4650879,0.11590576,-0.10748291,-23.625,11.734375,-15.609375
1664567619330,0.5625,-0.4043579,0.12664795,-24.234375,2.59375,-11.65625
1664567619373,-0.5625,-0.90582275,-0.33843994,-86.296875,-22.9375,23.671875
1664567619406,1.1218262,-2.0,-0.14068604,-61.90625,0.5,81.40625
1664567619453,-0.16748047,-2.0,1.3004761,196.9375,22.421875,-28.328125
1664567619486,-0.68115234,-1.6057739,-0.12823486,-63.015625,64.8125,6.875
1664567619533,0.3955078,-1.5718384,-0.24176025,-12.84375,78.421875,11.375
1664567619566,0.7470703,-0.4890747,0.41522217,62.453125,32.0,5.53125
1664567619609,-0.31835938,0.117614746,-0.0335083,-29.625,58.25,9.390625
1664567619645,-0.16259766,0.4845581,-0.3562622,7.921875,6.140625,16.625
1664567619688,0.43359375,0.23382568,-0.17120361,18.046875,-25.59375,-2.359375
1664567619722,0.27685547,-0.19903564,-0.24005127,11.0625,-61.671875,-29.15625
1664567619766,-0.1875,-0.76104736,0.39154053,-86.359375,-27.5,-19.171875
1664567619801,1.2382812,-2.0,0.23260498,-51.796875,-57.8125,52.546875
1664567619846,0.08081055,-1.8569946,0.38909912,8.046875,-31.171875,-23.140625
1664567619879,-0.4724121,-1.8213501,0.324646,21.984375,-32.921875,-7.28125
1664567619925,0.06738281,-1.3894653,0.14569092,-10.921875,-15.796875,0.40625
1664567619960,0.4477539,-0.43902588,0.17718506,30.109375,-19.5625,-4.609375
1664567620004,-0.27368164,0.3534546,-0.15411377,66.953125,-8.03125,-19.0
1664567620037,-0.5241699,0.77752686,-0.3015747,5.109375,13.140625,-10.765625
1664567620081,0.74438477,-0.17315674,0.04827881,-34.609375,4.9375,-11.25
1664567620116,0.080322266,-0.51690674,0.14007568,-20.40625,11.828125,3.796875
1664567620161,-0.4777832,-1.2456665,-0.41314697,-52.390625,-50.40625,16.46875
1664567620195,1.6123047,-2.0,0.48284912,-109.734375,19.671875,82.765625
1664567620238,-0.95410156,-1.4888306,0.81585693,151.78125,-4.875,-57.828125
1664567620273,-0.6936035,-1.4231567,0.04559326,50.59375,39.328125,35.953125
1664567620319,0.64038086,-1.4082642,-0.24395752,-64.265625,18.96875,16.125
1664567620365,0.5739746,-0.6838989,0.41937256,66.28125,37.609375,-15.921875
1664567620397,-0.43481445,0.24920654,-0.03253174,28.671875,36.078125,11.5625
1664567620444,-0.09692383,0.52264404,-0.54522705,-68.59375,11.4375,-2.375
1664567620476,0.6369629,0.07879639,0.12762451,-1.421875,-14.5,1.0
1664567620521,0.1381836,-0.28009033,-0.4373169,-9.03125,-35.375,-5.75
1664567620556,-0.15185547,-0.8970337,0.6539917,-152.21875,-10.046875,-25.765625
1664567620633,0.6779785,-2.0,1.3336792,42.890625,-52.359375,69.875
1664567620636,0.4753418,-1.541565,0.21722412,26.390625,-52.046875,-25.09375
1664567620679,-0.45166016,-1.394104,0.13665771,49.375,-39.578125,-1.484375
1664567620712,-0.13647461,-1.609436,0.41375732,7.140625,-13.734375,3.4375
1664567620757,0.39379883,-0.39068604,0.13031006,33.78125,-22.578125,-14.78125
1664567620790,-0.107910156,0.5516968,-0.2793579,53.078125,8.8125,-16.671875
1664567620836,-0.28125,0.8734741,-0.19146729,-8.8125,3.1875,-7.078125
1664567620892,0.38305664,-0.4151001,0.05731201,-40.21875,0.46875,-11.109375
1664567620916,0.14282227,-0.7810669,-0.17315674,-73.296875,13.984375,-0.53125
1664567620949,-0.22875977,-1.352356,0.3114624,-116.765625,-3.296875,26.234375
1664567620994,0.3491211,-2.0,1.1967163,7.03125,41.84375,-4.125
1664567621027,-0.7446289,-1.7195435,0.7868042,135.34375,14.265625,-15.75
1664567621072,-0.3347168,-1.8677368,0.07171631,-43.921875,37.328125,6.765625
1664567621107,0.79711914,-1.373352,-0.11895752,48.515625,46.96875,22.40625
1664567621151,0.32910156,-0.20147705,0.39154053,53.203125,62.703125,-22.953125
1664567621185,-0.27075195,0.23529053,-0.28302002,-6.96875,20.21875,19.984375
1664567621230,-0.0031738281,0.56781006,-0.3435669,-7.578125,0.03125,22.0625
1664567621264,0.44384766,-0.18878174,-0.12652588,-13.9375,-24.375,-10.640625
1664567621308,-0.06689453,-0.5874634,-0.3567505,-50.765625,-35.6875,-18.296875
1664567621343,0.07495117,-1.5046997,0.37664795,-113.703125,-26.9375,4.828125
1664567621387,1.5332031,-2.0,1.9105835,122.71875,7.09375,5.828125
1664567621421,-0.2998047,-1.0667114,-0.058410645,26.140625,-43.734375,-23.765625
1664567621467,-0.9838867,-1.567688,0.3397827,41.6875,1.65625,7.484375
1664567621499,0.47680664,-1.1143188,0.17401123,-1.1875,-15.796875,-2.65625
1664567621545,0.36083984,-0.17266846,0.050231934,53.515625,-3.5,-10.15625
1664567621579,-0.4633789,0.5812378,-0.23468018,69.4375,-4.859375,-18.828125
1664567621624,-0.23291016,0.49505615,-0.0947876,-26.09375,4.0625,-7.90625
1664567621657,0.60498047,-0.46148682,0.10614014,-31.90625,5.140625,-3.765625
1664567621703,-0.08203125,-1.0935669,-0.31329346,-121.21875,-14.640625,25.625
1664567621736,0.36791992,-2.0,0.72698975,-128.32812,-3.578125,39.671875
1664567621784,-0.71655273,-1.9812622,1.9403687,122.09375,49.90625,-56.421875
1664567621813,-0.36791992,-1.4060669,-0.10357666,100.28125,24.40625,30.46875
1664567621863,0.26586914,-1.3948364,-0.3250122,-79.296875,16.90625,-3.140625
1664567621894,0.4736328,-0.96051025,0.17572021,61.875,48.875,4.953125
1664567621940,-0.12182617,0.25482178,0.21990967,57.34375,43.25,2.484375
1664567621973,-0.20019531,0.56536865,-0.4998169,-36.984375,-9.515625,13.515625
1664567622016,0.4716797,0.3258667,-0.15631104,-13.84375,-6.484375,5.78125
1664567622052,0.23535156,-0.22784424,-0.14459229,-17.03125,-44.421875,-18.984375
1664567622096,-0.2475586,-1.039856,0.6259155,-115.53125,0.46875,-14.984375
1664567622130,1.614502,-2.0,1.8256226,54.75,-57.140625,99.65625
1664567622188,0.3071289,-1.6704712,0.028015137,46.59375,-38.0,-37.765625
1664567622211,-0.66064453,-1.0359497,-0.10308838,66.578125,-8.734375,-2.578125
1664567622257,0.41064453,-1.3040161,0.39154053,-7.984375,6.703125,23.890625
1664567622288,0.47875977,-0.60162354,0.3163452,73.59375,-41.390625,-19.765625
1664567622335,-0.4609375,0.41082764,-0.25689697,61.0625,2.3125,-34.75
1664567622367,-0.43359375,1.0441284,-0.10626221,-24.734375,8.3125,-7.921875
1664567622413,0.7758789,-0.3550415,0.06121826,-43.796875,-0.734375,-28.984375
1664567622444,0.040039062,-0.88287354,-0.46221924,-49.40625,-14.265625,13.921875
1664567622489,-0.15112305,-2.0,-0.190979,-102.78125,2.703125,36.34375
1664567622527,-0.05859375,-2.0,1.5455933,23.328125,22.484375,-12.28125
1664567622571,-0.87719727,-1.8755493,0.14227295,72.578125,63.3125,9.0
1664567622603,0.3244629,-1.6690063,-0.5198364,-49.90625,35.796875,29.15625
1664567622648,0.8781738,-1.4050903,0.020935059,54.5,23.515625,-2.5
1664567622683,-0.053222656,-0.24591064,0.49676514,57.5,54.1875,-6.390625
1664567622729,-0.4453125,0.30413818,-0.37774658,-6.734375,1.375,21.609375
1664567622760,0.0036621094,0.51483154,-0.38043213,-36.625,25.890625,19.390625
1664567622806,0.7019043,-0.089660645,-0.070373535,-10.296875,-34.125,-17.234375
1664567622851,-0.0053710938,-0.52838135,-0.57281494,-50.8125,-48.578125,-21.9375
1664567622884,0.26367188,-1.2651978,0.29315186,-122.0625,-21.734375,0.125
1664567622930,1.1809082,-2.0,1.999939,147.29688,26.8125,4.953125
1664567622964,-0.5097656,-0.87945557,0.066833496,26.796875,-36.703125,-23.5
1664567623007,-0.34350586,-1.4019165,0.24139404,27.390625,-30.859375,-4.515625
1664567623042,0.82666016,-1.4336548,0.33270264,-6.265625,-13.796875,6.28125
1664567623121,0.19140625,-0.23443604,-0.0178833,44.3125,-20.515625,-14.515625
1664567623124,-0.79296875,0.758728,-0.43170166,75.21875,-4.15625,-17.890625
1664567623165,0.061767578,0.5570679,0.014099121,-42.53125,4.59375,-9.859375
1664567623200,0.69506836,-0.59942627,0.085632324,-44.5,6.09375,-14.328125
1664567623257,-0.1821289,-1.2092896,-0.30889893,-113.640625,-20.953125,20.796875
1664567623279,0.6484375,-2.0,0.41107178,-44.953125,-31.421875,58.03125
1664567623323,-0.84033203,-2.0,1.0028687,131.67188,22.390625,-22.96875
1664567623357,-0.44189453,-1.5996704,0.024597168,-22.328125,78.1875,19.96875
1664567623408,1.046875,-1.5935669,-0.27105713,33.828125,32.921875,18.484375
1664567623458,0.44482422,-0.8743286,0.38909912,43.0,51.484375,-10.265625
1664567623480,-0.4338379,0.028747559,0.137146,47.578125,32.515625,12.671875
1664567623516,-0.2055664,0.67108154,-0.42242432,-15.90625,8.65625,18.703125
1664567623565,0.39941406,0.20281982,-0.17266846,-32.75,-1.5,7.203125
1664567623596,0.38867188,-0.17779541,0.061706543,-16.765625,-36.1875,-12.34375
1664567623638,-0.2680664,-0.76568604,-0.0947876,-112.546875,-22.703125,-24.703125
1664567623673,1.2941895,-2.0,0.26116943,-80.25,-73.4375,17.234375
1664567623722,0.99658203,-2.0,0.57611084,32.859375,-13.390625,-7.578125
1664567623753,-0.32714844,-0.991272,0.04071045,66.234375,-27.78125,-24.71875
1664567623796,-0.7355957,-1.9126587,0.50946045,-29.4375,15.109375,14.171875
1664567623830,0.75805664,-0.7178345,0.15228271,74.25,-34.125,-23.796875
1664567623875,-0.041992188,0.27288818,-0.015930176,74.125,27.421875,-26.515625
1664567623909,-0.736084,1.1618042,-0.37213135,16.03125,3.90625,2.328125
1664567623954,0.5859375,-0.21710205,-3.0517578E-4,-43.75,0.453125,-17.125
1664567623988,0.30004883,-0.6157837,0.08294678,-53.84375,12.3125,-5.265625
1664567624034,-0.33789062,-1.0698853,-0.47052002,-108.421875,8.015625,26.28125
1664567624067,1.1027832,-2.0,0.6425171,-108.890625,-23.984375,47.578125
1664567624111,-0.8112793,-2.0,0.8287964,193.07812,31.3125,-21.28125
1664567624146,-0.3959961,-1.8521118,-0.09918213,20.3125,52.09375,15.59375
1664567624189,0.8725586,-1.4741821,-0.069885254,-6.96875,32.265625,0.03125
1664567624225,0.3383789,-0.57232666,0.38031006,57.859375,36.1875,-28.25
1664567624269,-0.5600586,0.24285889,-0.17803955,14.03125,14.46875,15.921875
1664567624301,-0.0026855469,0.61395264,-0.5952759,-23.984375,-7.359375,37.171875
1664567624347,0.8671875,0.08026123,-0.15631104,-18.84375,-1.5625,2.25
1664567624381,0.22436523,-0.35357666,-0.06036377,-12.203125,-56.734375,-13.4375
1664567624426,-0.67822266,-0.7637329,0.49310303,-123.390625,0.578125,-5.546875
1664567624458,1.2011719,-2.0,0.66741943,-31.921875,-69.1875,52.21875
1664567624504,0.8984375,-1.5073853,0.30975342,74.796875,-12.03125,-38.328125
1664567624540,-0.3190918,-1.2105103,0.06536865,24.625,-67.9375,-3.828125
1664567624583,0.084472656,-1.7227173,0.5487671,-8.796875,-19.21875,0.015625
1664567624616,0.23925781,-0.43096924,-0.012023926,41.234375,-49.40625,-18.859375
1664567624662,-0.10571289,0.5404663,-0.27886963,24.0625,-2.78125,-14.421875
1664567624695,-0.48535156,1.0009155,-0.15509033,7.84375,0.453125,0.75
1664567624753,0.19116211,-0.4788208,0.053894043,-36.65625,-2.28125,-25.203125
1664567624776,0.125,-0.58917236,-0.117248535,-59.421875,2.4375,-6.59375
1664567624819,0.24658203,-1.2080688,-0.0960083,-110.015625,-1.8125,30.984375
1664567624853,0.0146484375,-2.0,1.4540405,5.578125,35.234375,-2.296875
1664567624898,-1.199707,-2.0,0.6251831,80.875,21.625,-1.671875
1664567624930,0.1743164,-1.8792114,-0.0012817383,46.171875,55.59375,6.875
1664567624977,0.7375488,-1.3088989,-0.07696533,12.734375,38.875,6.25
1664567625010,0.037841797,-0.4439087,0.29730225,32.0,40.71875,-16.546875
1664567625055,-0.31933594,0.19354248,0.061462402,7.875,46.6875,8.015625
1664567625090,0.06201172,0.6491089,-0.4187622,-29.484375,5.8125,17.546875
1664567625135,0.6525879,0.11126709,-0.10430908,-19.375,2.828125,5.875
1664567625168,0.19555664,-0.40582275,-0.44952393,-9.578125,-44.265625,-12.953125
1664567625212,-0.14355469,-1.0720825,0.55389404,-89.109375,-0.171875,-8.796875
1664567625247,1.1025391,-2.0,1.1356812,0.3125,-82.578125,87.65625
1664567625292,0.44799805,-1.6235962,0.2670288,30.90625,-14.15625,-28.765625
1664567625338,-0.3552246,-1.4592896,0.046325684,36.828125,-55.125,-8.84375
1664567625371,-0.09301758,-1.2276001,0.18817139,8.46875,10.546875,6.640625
1664567625416,0.4194336,-0.43804932,0.184021,45.28125,-5.828125,-11.4375
1664567625451,-0.3828125,0.33758545,-0.11895752,61.453125,0.5625,-19.984375
1664567625495,-0.5554199,1.0541382,-0.3093872,20.4375,31.796875,5.796875
1664567625528,0.72631836,-0.26715088,-0.045959473,-45.21875,9.25,-10.421875
1664567625609,0.23730469,-0.6589966,-0.082092285,-56.0,9.515625,7.3125
1664567625612,-0.18603516,-1.1611938,-0.11798096,-147.03125,-10.671875,11.703125
1664567625652,1.2138672,-2.0,1.1117554,-80.640625,-21.890625,46.4375
1664567625685,-0.9645996,-1.4387817,0.5368042,249.23438,18.96875,-13.15625
1664567625732,-0.08935547,-1.7564087,0.004333496,-24.171875,53.25,15.234375
1664567625770,0.8405762,-1.4226685,-0.14776611,7.5625,-6.5625,22.953125
1664567625809,0.25390625,-0.51812744,0.3493042,66.625,50.609375,-3.75
1664567625841,-0.59887695,0.13226318,-0.14459229,14.640625,-2.765625,15.625
1664567625888,-0.2163086,0.6022339,-0.40264893,-33.390625,13.15625,17.15625
1664567625922,0.7609863,0.11932373,-0.12530518,-32.875,-20.40625,-7.140625
1664567625969,0.07739258,-0.2588501,0.13763428,1.71875,-25.828125,-11.296875
1664567626025,-0.17871094,-0.79522705,0.003112793,-103.28125,-39.21875,-7.6875
1664567626046,1.8334961,-2.0,0.16229248,-16.390625,-89.296875,31.03125
1664567626080,0.55737305,-2.0,0.5651245,46.328125,-16.828125,-1.640625
1664567626125,-0.79248047,-0.81329346,-0.28546143,32.625,-38.171875,-27.546875
1664567626159,0.17382812,-1.8482056,0.56903076,2.5625,-8.375,18.84375
1664567626202,0.5671387,-1.003479,0.18060303,20.640625,-42.859375,-8.96875
1664567626238,-0.28320312,0.31097412,-0.19805908,54.5625,2.140625,-32.34375
1664567626284,-0.6333008,0.9098511,-0.2962036,36.34375,0.0,-4.25
1664567626315,0.5422363,-0.14703369,0.098083496,-33.84375,2.109375,-10.4375
1664567626361,0.31811523,-0.4915161,0.05291748,-11.671875,16.53125,0.3125
1664567626395,-0.50805664,-0.87457275,-0.661438,-97.46875,-21.78125,12.515625
1664567626440,1.6337891,-2.0,0.049743652,-52.265625,-33.171875,94.203125
1664567626474,-0.5925293,-2.0,0.8031616,149.0625,16.109375,-39.53125
1664567626517,-0.8359375,-1.5169067,0.2423706,-11.15625,85.15625,3.4375
1664567626553,0.5373535,-1.18219,-0.50323486,-4.671875,37.90625,28.59375
1664567626596,0.7609863,-0.7671509,0.15106201,40.015625,31.546875,-5.078125
1664567626633,-0.40283203,-0.22613525,0.25531006,9.046875,47.8125,8.65625
1664567626677,-0.37182617,0.43548584,-0.616272,-15.609375,3.109375,13.984375
1664567626709,0.5053711,0.32366943,0.0048217773,-21.234375,19.265625,10.03125
1664567626755,0.4152832,-0.14263916,0.101745605,-14.828125,0.015625,0.53125
1664567626788,-0.00390625,-0.76568604,0.078308105,-65.828125,-25.34375,-8.65625
1664567626835,1.0275879,-2.0,-0.2781372,-136.46875,-69.9375,-36.203125
1664567626869,0.50561523,-2.0,1.1808472,104.140625,48.703125,3.6875
1664567626912,-0.3154297,-1.2710571,0.019714355,41.046875,-62.328125,1.109375
1664567626948,-0.1977539,-1.5662231,0.49993896,35.15625,-6.125,-0.875
1664567626990,0.17211914,-0.9890747,0.13421631,25.9375,-35.46875,-0.96875
1664567627025,0.29711914,-0.06304932,0.09246826,37.984375,-4.984375,-21.03125
1664567627071,-0.6689453,0.5516968,-0.5322876,48.3125,24.5,-32.109375
1664567627104,0.12597656,0.3619995,-5.493164E-4,-44.71875,4.65625,0.890625
1664567627148,0.72436523,-0.3899536,0.24822998,-23.6875,10.96875,-16.890625
1664567627183,-0.2668457,-0.7334595,-0.5288696,-79.296875,-28.390625,6.640625
1664567627228,-0.0031738281,-1.9939575,0.08905029,-65.078125,20.8125,47.953125
1664567627262,-0.014404297,-2.0,1.7382202,27.453125,33.265625,-2.90625
1664567627306,-1.1450195,-1.9070435,0.17523193,47.203125,53.875,3.015625
1664567627339,0.18066406,-1.2879028,-0.28424072,-8.5,22.046875,30.25
1664567627385,0.83032227,-1.3516235,0.105651855,35.265625,25.5625,-1.484375
1664567627418,-0.1652832,-0.284729,0.36273193,51.4375,57.375,-10.328125
1664567627464,-0.18139648,0.31976318,-0.32940674,4.859375,14.640625,16.328125
1664567627497,0.15551758,0.42791748,-0.3274536,-31.859375,4.25,9.375
1664567627542,0.6525879,-0.09674072,0.0446167,-34.109375,-49.234375,-7.484375
1664567627576,-0.23876953,-0.348938,-0.39727783,-41.53125,-64.25,-20.96875
1664567627622,-0.19116211,-1.7339478,0.08782959,-63.171875,-5.328125,-1.03125
1664567627655,1.7248535,-2.0,1.696228,76.609375,-7.34375,40.59375
1664567627699,0.12475586,-1.3735962,0.06903076,23.6875,-41.234375,-49.3125
1664567627733,-0.64282227,-1.5352173,0.30633545,19.921875,-11.1875,18.140625
1664567627777,0.07080078,-1.2451782,0.39300537,21.046875,-23.375,1.84375
1664567627823,0.26123047,-0.53204346,0.19110107,27.765625,-11.203125,-25.421875
1664567627856,-0.4477539,0.5072632,-0.37701416,77.890625,24.34375,-19.484375
1664567627902,-0.05078125,0.81829834,-0.109191895,-13.171875,13.890625,-5.59375
1664567627936,0.59228516,-0.31280518,0.05291748,-24.84375,6.359375,-6.859375
1664567627982,0.08959961,-0.7612915,-0.31866455,-74.515625,-5.109375,5.203125
1664567628015,-0.10107422,-1.9099731,-0.12042236,-80.015625,25.40625,51.21875
1664567628093,0.25561523,-2.0,1.7269897,55.109375,35.46875,-32.359375
1664567628096,-1.0187988,-1.8462524,0.1227417,44.921875,50.9375,-1.75
1664567628139,0.15112305,-1.75177,-0.2300415,-36.921875,53.125,21.03125
1664567628172,0.8503418,-1.5906372,0.09686279,50.859375,17.21875,1.9375
1664567628217,-0.103515625,-0.39630127,0.36224365,36.53125,41.421875,-15.875
1664567628249,-0.3334961,0.27435303,-0.2925415,-3.109375,13.78125,7.65625
1664567628296,0.16015625,0.56536865,-0.5112915,-62.203125,21.875,11.71875
1664567628331,0.47802734,-0.1519165,0.1161499,-7.6875,-14.875,-1.9375
1664567628376,0.06567383,-0.53790283,-0.41973877,-4.03125,-48.859375,-14.546875
1664567628408,0.059326172,-0.99102783,0.08270264,-116.46875,-18.453125,-19.125
1664567628453,1.7250977,-2.0,1.4017944,55.15625,-17.65625,69.4375
1664567628487,-0.22998047,-1.5237427,0.47161865,5.15625,-31.03125,-9.703125
1664567628532,-0.6447754,-1.7617798,0.37054443,65.25,-33.46875,4.734375
1664567628589,0.45410156,-1.5686646,0.16937256,-7.609375,-29.953125,-1.9375
1664567628609,0.37963867,-0.70196533,0.371521,15.390625,-21.46875,-6.390625
1664567628645,-0.51416016,0.2140503,-0.15826416,79.96875,1.875,-29.359375
1664567628690,-0.6970215,0.70184326,-0.36993408,26.984375,-10.328125,-5.234375
1664567628722,0.6520996,0.058288574,0.12298584,-34.0,9.84375,-7.40625
1664567628768,0.27563477,-0.47418213,-0.007873535,-41.46875,10.4375,-3.796875
1664567628802,-0.52075195,-1.0679321,-0.09088135,-146.65625,-22.515625,17.015625
1664567628848,1.8146973,-2.0,0.59661865,3.53125,-83.8125,63.75
1664567628880,-0.6296387,-1.5061646,0.8751831,133.625,6.234375,-33.734375
1664567628925,-1.1352539,-1.5801392,0.066345215,-61.90625,75.984375,21.0
1664567628960,0.44848633,-1.7837524,-0.18951416,67.453125,14.59375,38.828125
1664567629006,1.0698242,-1.0549927,0.12176514,42.234375,29.671875,-6.5625
1664567629040,-0.2290039,-0.190979,0.49041748,33.6875,38.546875,-6.78125
1664567629083,-0.6203613,0.3048706,-0.4356079,5.203125,3.8125,19.671875
1664567629118,0.028076172,0.2543335,-0.1428833,-41.84375,-2.640625,6.625
1664567629164,0.72998047,-0.15826416,0.101745605,-40.296875,-34.8125,-22.75
1664567629195,0.012939453,-0.46173096,-0.19976807,-39.1875,-43.421875,-12.328125
1664567629239,0.2836914,-1.4414673,0.041931152,-73.59375,-26.703125,-8.171875
1664567629276,0.61279297,-2.0,1.2091675,81.484375,7.921875,15.703125
1664567629321,-0.12133789,-1.1851196,0.059753418,7.421875,-21.984375,-33.109375
1664567629354,-0.34643555,-1.467102,0.3336792,34.984375,-2.09375,11.28125
1664567629398,0.14868164,-1.2632446,0.36688232,14.296875,-12.0,7.40625
1664567629432,0.2446289,-0.43951416,0.22821045,37.0625,-7.046875,-23.890625
1664567629478,-0.35107422,0.4833374,-0.41558838,78.34375,21.6875,-24.0625
1664567629510,-0.0793457,0.7789917,-0.10040283,-19.484375,6.40625,2.4375
1664567629554,0.5930176,-0.30474854,0.10345459,-25.84375,1.859375,-6.546875
1664567629595,-0.07788086,-0.80792236,-0.39874268,-69.203125,2.25,2.046875
1664567629636,-0.2109375,-1.8401489,0.08685303,-96.578125,30.875,48.09375
1664567629668,0.25585938,-2.0,1.8148804,26.53125,48.140625,-38.703125
1664567629713,-0.8496094,-1.7424927,0.13250732,68.8125,56.65625,-3.421875
1664567629748,0.22021484,-1.7495728,-0.035217285,-21.453125,37.578125,27.0
1664567629794,0.8190918,-1.5755005,0.29364014,41.734375,32.3125,-4.96875
1664567629849,-0.26342773,-0.27496338,0.16107178,41.40625,43.78125,-16.90625
1664567629875,-0.1430664,0.3607788,-0.22955322,-5.0625,21.328125,18.296875
1664567629903,0.23364258,0.41986084,-0.31622314,-7.8125,4.84375,19.703125
1664567629951,0.5983887,-0.046203613,-0.027160645,-5.96875,-24.28125,-0.71875
1664567629985,-0.24438477,-0.31671143,-0.3423462,-17.265625,-30.703125,-25.71875
1664567630029,-0.068115234,-0.8965454,0.29412842,-124.1875,1.328125,-0.359375
1664567630062,1.4372559,-2.0,0.9110718,-51.4375,-88.296875,39.59375
1664567630114,0.06738281,-2.0,0.5993042,28.9375,12.578125,11.0625
1664567630143,-0.5551758,-1.2005005,0.10345459,89.15625,-59.890625,-18.5625
1664567630188,0.114990234,-1.5015259,0.33319092,-32.625,-6.8125,3.96875
1664567630219,0.6699219,-0.7444458,0.26141357,26.671875,-38.1875,-6.0625
1664567630267,-0.26953125,0.2682495,-0.16241455,77.15625,-10.84375,-29.765625
1664567630310,-0.8598633,1.1998901,-0.3862915,-2.0,15.65625,8.4375
1664567630344,0.7697754,-0.27008057,0.02166748,-34.359375,-13.28125,-10.28125
1664567630389,0.19604492,-0.6370239,0.19281006,-22.140625,0.671875,-5.578125
1664567630421,-0.68310547,-0.8989868,-0.46417236,-103.5,-9.03125,21.203125
1664567630467,1.8041992,-2.0,-0.14215088,-17.765625,-38.15625,118.5
1664567630501,-0.012207031,-2.0,0.9545288,219.5625,-27.015625,-34.28125
1664567630579,-1.0356445,-1.8259888,0.19525146,-69.890625,65.046875,8.09375
1664567630587,0.7531738,-1.9258423,-0.2522583,30.109375,45.078125,33.8125
1664567630625,0.7116699,-0.8796997,0.20452881,30.21875,13.5,-19.625
1664567630658,-0.37109375,-0.09234619,0.32684326,6.015625,59.671875,-11.796875
1664567630704,-0.18261719,0.57977295,-0.46905518,-9.796875,-9.4375,4.234375
1664567630737,0.35595703,0.24090576,-0.19049072,-24.484375,6.078125,15.40625
1664567630782,0.5432129,-0.20440674,0.0099487305,-0.484375,-31.875,-9.390625
1664567630814,-0.41333008,-0.43267822,-0.43585205,-46.921875,-32.71875,-16.265625
1664567630862,0.09301758,-1.2354126,0.15350342,-48.421875,-3.265625,3.421875
1664567630895,1.8205566,-2.0,1.999939,69.359375,-0.71875,28.53125
1664567630939,0.07495117,-1.2390747,0.062927246,2.0625,-20.28125,-47.328125
1664567630973,-0.45532227,-1.5171509,0.41986084,43.9375,-3.1875,9.359375
1664567631019,0.48828125,-1.3814087,0.3685913,9.765625,-24.078125,-7.765625
1664567631053,0.1303711,-0.5701294,0.18792725,50.1875,-6.671875,-29.9375
1664567631097,-0.45751953,0.65179443,-0.442688,79.234375,1.078125,-20.640625
1664567631144,0.01586914,0.82928467,-0.050109863,-19.1875,0.15625,6.859375
1664567631176,0.54125977,-0.4048462,0.0021362305,-30.34375,11.953125,-15.25
1664567631209,-0.087646484,-0.67022705,-0.065979004,-25.09375,21.640625,-5.328125
1664567631255,-0.35766602,-1.1204224,-0.642395,-84.109375,22.109375,42.21875
1664567631288,1.999939,-2.0,0.83880615,-75.359375,-69.125,94.328125
1664567631333,-0.40844727,-2.0,0.0927124,184.85938,12.84375,-55.546875
1664567631369,-1.2453613,-1.546936,0.014831543,-39.203125,69.6875,9.4375
1664567631411,0.7766113,-1.3521118,-0.2366333,14.421875,49.3125,11.0625
1664567631445,0.78881836,-0.8335571,0.21795654,29.65625,30.984375,-19.640625
1664567631491,0.028320312,-0.04083252,0.020690918,19.015625,6.65625,-7.65625
1664567631525,-0.41088867,0.63568115,-0.4307251,-18.953125,-8.03125,28.1875
1664567631569,0.19116211,0.29925537,-0.14801025,-21.28125,-11.90625,-3.21875
1664567631604,0.19067383,-0.39141846,0.027038574,-10.328125,-20.765625,-28.109375
1664567631648,0.026855469,-0.6975708,0.035583496,-108.0,-11.5625,-0.765625
1664567631683,1.2409668,-2.0,0.36444092,-66.75,-38.90625,7.234375
1664567631728,0.2512207,-2.0,1.2457886,73.671875,-0.375,7.53125
1664567631760,-0.8208008,-1.0042114,0.23699951,54.125,-29.359375,-15.765625
1664567631807,0.20019531,-1.7627563,0.28997803,-7.671875,-28.890625,6.640625
1664567631840,0.8469238,-1.1834106,0.33441162,34.90625,-52.21875,-8.9375
1664567631885,-0.38305664,0.15374756,-0.19000244,31.0,-15.328125,-18.265625
1664567631918,-0.8654785,0.8307495,-0.51397705,32.609375,9.390625,-6.953125
1664567631962,0.74853516,0.027038574,0.09490967,-10.96875,-15.953125,-1.578125
1664567631999,0.3305664,-0.4102173,0.028747559,-22.75,1.046875,-12.859375
1664567632045,-0.6154785,-0.8596802,-0.3357544,-69.375,-18.421875,4.625
1664567632075,1.6813965,-2.0,-0.52130127,-22.453125,-21.109375,95.609375
1664567632119,-0.18798828,-1.998352,0.73651123,114.21875,15.984375,-34.9375
1664567632155,-1.5319824,-2.0,0.33685303,-60.125,70.578125,15.375
1664567632202,0.7824707,-1.8845825,-0.29180908,18.40625,76.578125,22.6875
1664567632236,0.60009766,-1.2459106,0.2597046,22.5,32.09375,-19.5
1664567632279,-0.5456543,-0.29742432,-0.0064086914,4.125,34.46875,-8.359375
1664567632315,0.2097168,0.43670654,-0.3196411,-13.546875,32.34375,1.28125
1664567632358,0.33081055,0.26727295,-0.20074463,-9.1875,0.21875,10.734375
1664567632413,0.4946289,-0.13848877,-0.14678955,-14.328125,-32.671875,4.8125
1664567632435,-0.3918457,-0.25299072,-0.5471802,-3.859375,-42.84375,-10.6875
1664567632469,-0.13012695,-0.9038696,0.3451538,-76.890625,9.625,-8.15625
1664567632520,1.4785156,-2.0,1.999939,12.359375,5.375,49.546875
1664567632550,-0.2758789,-1.7324829,0.2921753,-18.859375,-54.0625,-20.171875
1664567632593,-0.85498047,-1.4607544,0.34173584,72.484375,-25.578125,2.140625
1664567632628,0.18383789,-1.444397,0.4298706,-25.859375,4.234375,7.1875
1664567632674,0.6459961,-0.6831665,0.13421631,33.625,-42.609375,-14.390625
1664567632707,-0.34765625,0.29193115,-0.24053955,54.78125,2.703125,-12.625
1664567632750,-0.6779785,0.8151245,-0.24176025,2.34375,2.109375,13.078125
1664567632794,0.71362305,-0.14605713,-0.046936035,-13.15625,-4.59375,-5.484375
1664567632831,0.16577148,-0.39239502,0.0836792,-7.015625,11.921875,-1.046875
1664567632876,-0.58251953,-0.63067627,-0.5796509,-109.625,-13.671875,7.390625
1664567632909,1.3186035,-2.0,0.062438965,-129.8125,23.0625,62.0
1664567632952,-0.41381836,-2.0,1.999939,167.71875,-28.796875,-60.4375
1664567632989,-1.3747559,-1.3799438,0.35784912,34.6875,76.96875,12.234375
1664567633067,0.43798828,-1.7398071,-0.08502197,-31.703125,41.796875,28.96875
1664567633070,1.2966309,-1.8796997,0.3270874,58.296875,-6.75,-20.296875
1664567633112,-0.4284668,-0.2744751,0.44573975,44.78125,28.921875,-24.296875
1664567633146,-0.36669922,0.44989014,-0.41363525,-5.734375,-5.609375,11.453125
1664567633189,0.24243164,0.48260498,-0.3015747,-33.375,7.0625,16.8125
1664567633223,0.42456055,-0.12554932,-0.0015258789,-21.203125,-13.0,-3.671875
1664567633268,-0.16992188,-0.29766846,-0.42608643,22.1875,-18.28125,-6.984375
1664567633303,0.18066406,-1.2612915,0.28753662,-36.5,14.09375,9.09375
1664567633349,1.135498,-2.0,0.60028076,-92.296875,-89.765625,-15.921875
1664567633380,0.21679688,-2.0,0.33148193,42.921875,-10.984375,18.34375
1664567633428,-0.69921875,-1.3147583,0.32781982,36.125,-24.25,-9.65625
1664567633459,-0.026855469,-1.5718384,0.26727295,33.21875,-9.640625,7.359375
1664567633504,0.63500977,-0.8833618,0.29388428,25.0,-26.0625,-5.984375
1664567633539,-0.10644531,0.15570068,-0.121154785,37.84375,-11.09375,-16.46875
1664567633585,-0.73779297,0.81658936,-0.44000244,22.515625,-5.671875,-6.265625
1664567633616,0.58569336,-0.04498291,0.04510498,-28.859375,0.59375,-11.546875
1664567633684,0.15795898,-0.4048462,0.11981201,-1.921875,12.828125,-5.515625
1664567633695,-0.4892578,-0.7415161,-0.48028564,-88.96875,-14.9375,1.015625
1664567633741,1.9838867,-2.0,-0.019836426,-84.40625,-39.671875,132.03125
1664567633776,-0.29541016,-2.0,0.9154663,109.265625,-18.90625,-76.203125
1664567633820,-1.0327148,-1.4175415,0.3085327,5.765625,88.65625,10.015625
1664567633853,0.53808594,-1.6843872,-0.22613525,13.234375,47.203125,25.921875
1664567633899,0.85717773,-1.4795532,0.113220215,23.265625,26.328125,-26.46875
1664567633933,-0.25585938,-0.3633423,0.30975342,39.171875,52.078125,-10.953125
1664567633979,-0.106933594,0.3024292,-0.23980713,17.015625,1.96875,22.828125
1664567634010,0.16503906,0.545105,-0.34991455,-27.203125,0.140625,5.421875
1664567634058,0.4465332,-0.019836426,-0.043518066,-37.09375,-30.359375,-20.953125
1664567634090,-0.20507812,-0.47052002,-0.46588135,-20.671875,-27.203125,-10.125
1664567634135,-0.048583984,-0.815979,0.31781006,-83.328125,8.3125,7.71875
1664567634169,1.5996094,-2.0,1.1098022,-25.828125,-64.203125,64.171875
1664567634215,0.029296875,-1.6438599,0.32977295,8.90625,-50.53125,-7.515625
1664567634247,-1.0986328,-1.3943481,0.2645874,68.390625,-25.140625,11.875
1664567634293,0.45483398,-1.5703735,0.2843628,-33.375,-20.84375,9.046875
1664567634325,0.67285156,-0.7529907,0.41693115,26.53125,-21.734375,-2.078125
1664567634370,-0.52563477,0.20599365,-0.108947754,72.90625,-15.015625,-12.21875
1664567634405,-0.9814453,0.8842163,-0.44537354,26.546875,10.859375,-13.203125
1664567634449,0.9394531,-0.06866455,0.07293701,-43.15625,4.578125,-5.046875
1664567634485,0.4104004,-0.519104,0.19598389,-12.640625,13.03125,1.34375
1664567634527,-0.66845703,-0.7991333,-0.34918213,-130.09375,-9.0,10.65625
1664567634565,0.8354492,-2.0,0.3114624,-38.015625,0.015625,79.765625
1664567634607,-0.21777344,-2.0,1.3058472,166.10938,16.796875,-70.109375
1664567634641,-1.3225098,-1.8643188,0.21453857,-26.015625,84.828125,15.109375
1664567634685,0.17651367,-1.6494751,0.24188232,-9.578125,14.59375,36.203125
1664567634721,0.7314453,-1.5005493,0.36932373,57.171875,30.765625,-19.109375
1664567634765,-0.18359375,-0.1843872,-0.09967041,42.203125,45.75,1.03125
1664567634797,0.061035156,0.46502686,-0.33062744,-11.296875,6.78125,20.84375
1664567634842,0.2434082,0.54364014,-0.24468994,-15.5,-12.0625,9.5625
1664567634877,0.12841797,-0.17510986,0.08465576,-16.453125,-25.171875,-17.1875
1664567634925,-0.2783203,-0.29962158,-0.47979736,-7.40625,-29.25,-10.375
1664567634979,0.21582031,-0.7036743,0.54559326,-92.984375,8.171875,-4.734375
1664567635001,1.857666,-2.0,1.208435,-74.703125,-69.171875,53.203125
1664567635034,-0.29296875,-1.852356,0.36102295,8.0625,-14.53125,1.140625
1664567635082,-0.9069824,-0.9636841,0.08709717,59.125,-13.78125,-21.0
1664567635116,0.4296875,-1.9041138,0.69744873,-33.609375,-2.546875,18.046875
1664567635157,0.62597656,-1.0840454,0.19256592,59.046875,-32.296875,-15.4375
1664567635193,-0.40014648,0.48260498,-0.26348877,72.640625,-7.609375,-16.4375
1664567635237,-0.6184082,1.2089233,-0.30108643,3.640625,10.6875,0.953125
1664567635283,0.6791992,-0.23956299,0.05267334,-32.5,-5.578125,-10.390625
1664567635315,0.17285156,-0.6477661,0.19940186,-19.75,13.328125,-13.4375
1664567635360,-0.7043457,-0.9055786,-0.3098755,-130.92188,-16.953125,2.484375
1664567635397,1.999939,-2.0,-0.44732666,-82.875,-36.40625,108.53125
1664567635439,-0.10644531,-2.0,1.2965698,109.40625,18.015625,-73.40625
1664567635473,-1.7270508,-1.6377563,0.56951904,15.71875,76.015625,0.15625
1664567635517,0.36889648,-1.454895,-0.2432251,9.15625,43.0625,37.296875
1664567635554,1.3815918,-1.4837036,0.21868896,37.09375,-10.03125,-19.609375
1664567635600,-0.2512207,-0.41607666,0.39569092,30.515625,41.6875,-18.9375
1664567635634,-0.58374023,0.2567749,-0.40826416,33.0,-25.5625,37.609375
1664567635676,0.16894531,0.67059326,-0.18511963,-17.28125,10.890625,10.421875
1664567635709,0.5229492,-0.01763916,-0.04522705,-21.90625,-18.546875,-23.078125
1664567635765,-0.088134766,-0.5630493,-0.68218994,-40.59375,-19.515625,-13.15625
1664567635789,0.47485352,-1.2263794,0.54681396,-113.140625,-11.671875,6.859375
1664567635833,0.83813477,-2.0,1.999939,31.5625,-12.921875,3.078125
1664567635869,-0.62719727,-1.4780884,0.32977295,5.046875,-31.375,10.21875
1664567635917,-0.59814453,-1.0518188,0.53240967,115.3125,-22.953125,-8.890625
1664567635946,0.5773926,-1.8364868,0.4784546,-59.953125,-38.71875,13.125
1664567635991,0.54052734,-0.6807251,0.00579834,67.296875,-24.890625,-13.484375
1664567636024,-0.45996094,0.3986206,-0.128479,97.921875,1.109375,-20.765625
1664567636074,-0.4868164,0.95111084,-0.38287354,-5.734375,-10.078125,-7.125
1664567636106,0.7109375,-0.10650635,0.070251465,-33.21875,-4.453125,5.140625
1664567636148,0.2421875,-0.65826416,-0.1765747,-41.84375,8.9375,-0.875
1664567636183,-0.5053711,-1.3018188,-0.3213501,-145.71875,-17.375,9.21875
1664567636238,1.6486816,-2.0,1.336853,27.140625,-17.21875,49.140625
1664567636266,-1.1298828,-1.6287231,0.16448975,184.95312,-17.46875,-48.453125
1664567636307,-1.1970215,-1.7693481,0.14813232,-114.390625,88.28125,21.609375
1664567636338,0.8117676,-1.890686,-0.066467285,77.015625,5.453125,10.203125
1664567636385,0.66674805,-0.81256104,-0.042785645,25.546875,38.515625,-5.8125
1664567636418,-0.06591797,-0.25616455,0.33807373,38.21875,49.046875,-11.96875
1664567636463,-0.24853516,0.48675537,-0.35845947,12.171875,1.265625,20.6875
1664567636498,0.16430664,0.543396,-0.105773926,-41.984375,-4.015625,9.0625
1664567636542,0.4404297,-0.12408447,-0.03277588,-19.90625,-29.640625,-15.734375
1664567636576,-0.11816406,-0.6189575,-0.41534424,-59.640625,-7.578125,-13.6875
1664567636621,0.6906738,-1.7637329,0.32025146,-73.03125,-24.984375,3.984375
1664567636655,0.33764648,-2.0,1.1464233,75.15625,-4.0,16.03125
1664567636700,-0.7585449,-1.2546997,0.11590576,34.484375,-1.984375,-28.8125
1664567636732,-0.10522461,-1.6519165,0.39642334,29.40625,2.734375,-2.40625
1664567636778,0.8503418,-1.3850708,0.449646,0.09375,-9.546875,4.015625
1664567636813,0.0048828125,-0.12408447,0.046325684,65.375,11.015625,-14.609375
1664567636857,-0.59228516,0.7584839,-0.4126587,59.6875,-3.5,-2.578125
1664567636889,0.27294922,0.48553467,-0.1116333,-23.671875,7.890625,-6.28125
1664567636936,0.5324707,-0.4451294,0.11639404,-25.109375,10.234375,-11.84375
1664567636970,-0.20678711,-0.65704346,-0.29693604,-29.453125,-15.09375,2.0
1664567637014,-0.25463867,-1.2297974,-0.33428955,-101.125,28.96875,37.953125
1664567637049,1.4084473,-2.0,1.6864624,-38.828125,-33.0625,20.9375
1664567637094,-1.6987305,-1.6704712,0.32244873,120.53125,75.3125,-42.859375
1664567637128,-0.095703125,-1.7620239,-0.12530518,-34.25,30.4375,36.8125
1664567637171,1.3654785,-1.663147,0.2741089,23.796875,7.734375,-0.671875
1664567637205,0.010498047,-0.72540283,0.20648193,32.140625,32.46875,-27.765625
1664567637249,-0.21484375,0.2230835,-0.10308838,32.765625,2.703125,11.578125
1664567637284,-0.010498047,0.8793335,-0.5352173,-21.84375,-31.828125,9.390625
1664567637330,0.47729492,0.026062012,-0.09112549,-50.625,-7.125,-0.921875
1664567637363,0.025878906,-0.48931885,-0.12384033,-10.125,-34.484375,-3.90625
1664567637408,-0.20019531,-0.8543091,0.53289795,-85.34375,-2.515625,-12.9375
1664567637442,1.1948242,-2.0,0.6347046,-85.796875,-65.859375,7.390625
1664567637487,0.3515625,-2.0,0.6884155,78.171875,14.890625,9.890625
1664567637544,-0.5666504,-1.0838013,0.18792725,81.953125,-36.90625,-12.859375
1664567637566,-0.10595703,-1.7622681,0.32025146,-14.28125,-17.328125,13.40625
1664567637600,0.7548828,-0.9649048,0.3180542,31.046875,-26.84375,-6.5
1664567637645,-0.10961914,-0.014465332,-0.014221191,41.9375,-7.0625,-11.578125
1664567637676,-0.6894531,0.8151245,-0.4644165,39.109375,-1.625,-7.328125
1664567637723,0.50268555,0.18035889,0.03387451,-23.15625,-8.25,-12.984375
1664567637768,0.31274414,-0.47540283,0.16790771,-19.140625,7.015625,-10.765625
1664567637804,-0.36108398,-0.9824829,-0.3513794,-104.4375,-20.75,4.09375
1664567637847,1.3920898,-2.0,-0.13116455,-30.359375,-29.484375,105.3125
1664567637880,-0.49194336,-1.6314087,0.68963623,140.125,19.03125,-33.4375
1664567637925,-1.3093262,-2.0,0.31658936,-94.40625,78.765625,-2.265625
1664567637960,0.623291,-2.0,0.12371826,60.984375,35.515625,21.90625
1664567638005,0.78222656,-1.2783813,0.24505615,29.53125,28.84375,-21.96875
1664567638038,-0.46850586,-0.4487915,0.09564209,31.078125,38.640625,-5.0
1664567638083,-0.015136719,0.2584839,-0.16705322,14.390625,30.265625,22.109375
1664567638119,0.41870117,0.5223999,-0.36968994,-22.8125,0.34375,16.3125
1664567638164,0.49023438,0.13323975,-0.031066895,-20.09375,-20.625,-5.5625
1664567638195,-0.45092773,-0.21783447,-0.008361816,-6.28125,-23.25,-14.453125
1664567638240,-0.17993164,-0.755188,0.1630249,-98.140625,12.28125,2.171875
1664567638275,1.9191895,-2.0,0.028503418,-69.21875,-59.21875,27.78125
1664567638321,0.44970703,-2.0,0.5062866,28.0625,-2.375,0.578125
1664567638355,-0.5974121,-1.1504517,0.04095459,63.171875,-50.28125,-4.234375
1664567638397,-0.45239258,-1.8787231,0.5336304,8.953125,18.765625,12.015625
1664567638432,0.8635254,-1.0579224,0.14349365,15.84375,-47.515625,-8.03125
1664567638479,0.11352539,4.272461E-4,0.16204834,53.796875,14.1875,-9.265625
1664567638511,-1.0026855,0.91400146,-0.4006958,58.6875,11.015625,-15.15625
1664567638555,0.42626953,0.276062,-0.06793213,-36.546875,0.796875,-12.140625
1664567638589,0.6105957,-0.49517822,0.24505615,-21.453125,35.859375,1.84375
1664567638636,-0.33325195,-1.0657349,-0.51153564,-116.5625,16.8125,11.828125
1664567638668,0.33129883,-2.0,0.101501465,-109.1875,41.140625,40.4375
1664567638714,0.060546875,-2.0,1.9579468,42.484375,33.953125,-46.375
1664567638747,-1.3400879,-1.7200317,0.4220581,91.9375,56.140625,5.09375
1664567638815,0.34960938,-1.9448853,0.18890381,-55.0625,23.765625,32.078125
1664567638827,0.954834,-1.4937134,0.101989746,50.359375,-1.84375,-32.453125
1664567638870,-0.26391602,-0.43829346,0.16693115,16.4375,32.953125,-14.25
1664567638906,-0.084472656,0.23480225,-0.14263916,23.578125,-21.359375,19.890625
1664567638950,0.1159668,0.6508179,-0.4024048,-35.828125,-17.21875,1.75
1664567638981,0.36499023,0.066101074,0.062194824,-34.34375,-1.546875,-17.375
1664567639029,-0.2121582,-0.40264893,0.06512451,-6.046875,-28.296875,-11.4375
1664567639066,-0.016113281,-0.73321533,0.49725342,-95.6875,-15.359375,-6.9375
1664567639116,1.5559082,-2.0,1.2545776,14.453125,-35.171875,72.75
1664567639139,0.19702148,-1.4971313,0.3287964,3.3125,-29.921875,-11.21875
1664567639186,-0.98706055,-1.420227,0.47894287,74.109375,-37.8125,15.234375
1664567639219,0.20410156,-1.8294067,0.46575928,6.140625,-4.578125,4.359375
1664567639263,0.71972656,-0.86724854,0.23382568,16.921875,-41.109375,-4.484375
1664567639296,-0.18408203,0.2579956,-0.19610596,52.671875,-6.171875,-13.625
1664567639342,-0.7922363,0.64398193,-0.33135986,16.984375,0.578125,-17.390625
1664567639377,0.46679688,0.059509277,-0.023254395,-34.09375,1.609375,-10.734375
1664567639423,0.44970703,-0.39556885,0.03314209,-38.671875,13.109375,-5.234375
1664567639455,-0.4638672,-0.84088135,-0.105285645,-91.59375,6.796875,18.8125
1664567639500,1.6936035,-2.0,0.09588623,-47.8125,-55.515625,96.15625
1664567639534,-0.5949707,-1.1629028,1.2167358,107.578125,-7.828125,-75.5
1664567639579,-1.1916504,-1.6626587,0.23602295,-5.578125,64.34375,10.015625
1664567639613,0.35009766,-2.0,0.002380371,16.265625,25.515625,32.84375
1664567639658,0.54541016,-1.0134888,0.29534912,40.09375,24.09375,-17.671875
1664567639691,-0.32006836,-0.0869751,-0.011779785,-5.59375,11.90625,-3.40625
1664567639736,-0.11645508,0.4701538,-0.48394775,-16.765625,19.4375,16.625
1664567639769,0.66845703,0.2374878,-0.077941895,-28.75,-7.859375,5.46875
1664567639815,0.35986328,-0.09259033,0.19403076,-14.34375,-30.140625,-15.15625
1664567639849,-0.8339844,-0.41534424,-0.44293213,-41.0,18.15625,-13.109375
1664567639893,0.27148438,-1.4512329,0.35760498,-53.578125,-10.75,6.640625
1664567639926,1.2907715,-2.0,1.4874878,111.046875,26.578125,-1.140625
1664567639972,-0.67871094,-1.3677368,0.24920654,17.34375,-57.265625,2.90625
1664567640007,-0.9567871,-1.8208618,0.7404175,32.84375,-10.609375,5.796875
1664567640049,0.8432617,-1.2466431,0.27801514,11.109375,-39.484375,1.84375
1664567640108,0.3088379,-0.206604,0.2477417,32.015625,-6.015625,-2.625
1664567640129,-0.5666504,0.45111084,-0.4085083,58.15625,3.9375,-26.15625
1664567640164,-0.21582031,0.44989014,-0.09161377,-11.296875,-0.125,-14.21875
1664567640208,0.6166992,-0.19464111,0.08123779,-19.796875,3.765625,2.1875
1664567640253,-0.026611328,-0.52008057,-0.24102783,-45.4375,5.46875,3.078125
1664567640286,-0.20288086,-1.2398071,0.027282715,-106.234375,-2.34375,13.5
1664567640332,0.3461914,-2.0,1.4567261,11.65625,21.3125,5.53125
1664567640366,-0.82714844,-1.7869263,0.6102905,48.25,15.984375,-24.734375
1664567640411,0.063964844,-1.7810669,0.038757324,39.484375,50.75,21.109375
1664567640444,0.68188477,-2.0,0.27142334,28.828125,11.5625,5.65625
1664567640489,-0.18310547,-0.89019775,0.23431396,29.59375,22.484375,-12.734375
1664567640526,-0.07421875,-0.06793213,0.1395874,46.65625,50.78125,2.734375
1664567640568,0.140625,0.53900146,-0.40167236,-4.5625,12.3125,14.328125
1664567640603,0.48388672,0.40130615,-0.2131958,-23.390625,-26.3125,18.15625
1664567640646,0.010498047,-0.21832275,0.06976318,-20.296875,-21.78125,-18.75
1664567640681,-0.16357422,-0.32940674,-0.61968994,-13.140625,-13.984375,-1.453125
1664567640727,0.6965332,-1.2927856,0.72528076,-84.890625,-12.890625,6.859375
1664567640759,0.82373047,-2.0,1.5055542,33.265625,-4.796875,4.171875
1664567640805,-0.084228516,-1.5435181,0.23504639,24.09375,-24.9375,1.671875
1664567640839,-0.6047363,-1.4815063,0.50701904,35.015625,-21.8125,-0.15625
1664567640883,0.23388672,-1.5899048,0.2850952,5.71875,-45.578125,9.453125
1664567640917,0.28955078,-0.57159424,0.1720581,34.125,-6.078125,-16.125
1664567640961,-0.3347168,0.24627686,-0.26690674,68.890625,4.234375,-15.03125
1664567640996,-0.23632812,0.77630615,-0.20758057,14.328125,3.484375,-11.53125
1664567641041,0.5349121,-0.18511963,0.13446045,-32.203125,-6.171875,-2.703125
1664567641075,-0.040771484,-0.4902954,-0.022521973,-37.59375,30.625,-12.96875
1664567641119,-0.5698242,-1.00177,-0.35577393,-117.28125,-3.328125,10.671875
1664567641154,1.999939,-2.0,0.012145996,-53.71875,-50.75,133.01562
1664567641199,-0.3840332,-1.8997192,0.5741577,214.78125,36.03125,-61.3125
1664567641232,-0.93359375,-1.788147,-0.13458252,-19.59375,51.25,19.078125
1664567641276,0.3095703,-1.7554321,0.07904053,-23.421875,27.484375,21.484375
1664567641311,0.5324707,-1.1585083,0.15814209,62.1875,36.59375,-26.34375
1664567641368,-0.064941406,-0.18341064,0.20648193,44.203125,56.375,1.5
1664567641389,-0.087402344,0.4196167,-0.31280518,-17.4375,-3.0625,27.734375
1664567641434,0.1821289,0.37445068,-0.40045166,-41.6875,9.453125,13.6875
1664567641468,0.45629883,-0.086242676,0.09075928,-20.421875,-34.359375,-21.5
1664567641515,-0.12158203,-0.47857666,-0.35333252,-49.5625,-23.828125,-20.828125
1664567641548,0.34521484,-1.5689087,0.15789795,-113.953125,-14.9375,-3.6875
1664567641593,1.3464355,-2.0,1.9315796,101.515625,-22.359375,24.046875
1664567641626,-0.51416016,-1.3005981,0.18670654,23.90625,-33.234375,-23.796875
1664567641672,-0.58203125,-1.7366333,0.31048584,45.125,-31.671875,13.859375
1664567641705,0.8461914,-1.5025024,0.22503662,12.71875,-45.40625,-8.015625
1664567641751,0.059570312,-0.43902588,0.113708496,27.953125,-11.5,-8.25
1664567641783,-0.59228516,0.45062256,-0.34625244,45.140625,-13.875,-18.625
1664567641830,-0.27929688,0.7352905,-0.07110596,-13.953125,4.515625,-8.828125
1664567641863,0.4453125,-0.302063,0.034118652,-37.515625,14.6875,-15.71875
1664567641908,-0.05834961,-0.47833252,0.08538818,-21.171875,23.0625,-7.953125
1664567641942,-0.38110352,-0.79107666,-0.22052002,-112.609375,6.125,5.3125
1664567641987,1.999939,-2.0,-0.25860596,-28.828125,-69.1875,106.390625
1664567642067,-0.234375,-2.0,0.961853,122.796875,-8.796875,-54.328125
1664567642070,-1.467041,-1.3943481,0.29071045,-23.234375,66.609375,17.265625
1664567642099,0.40722656,-1.1746216,-0.41827393,-6.90625,39.796875,24.09375
1664567642145,0.8405762,-1.0913696,0.04486084,40.59375,24.90625,-15.5625
1664567642179,-0.24707031,-0.30841064,0.31976318,35.40625,49.390625,0.578125
1664567642224,-0.08496094,0.43182373,-0.5264282,-11.890625,-18.546875,24.453125
1664567642257,0.47485352,0.46087646,-0.15753174,-22.484375,-1.953125,5.359375
1664567642304,0.123046875,-0.1338501,-0.14361572,-21.703125,-35.953125,-18.109375
1664567642337,-0.27685547,-0.7522583,0.23602295,-71.828125,-13.6875,-11.765625
1664567642381,0.98168945,-2.0,0.47357178,-122.546875,-46.1875,11.40625
1664567642415,0.6245117,-2.0,0.758728,65.515625,21.671875,-8.25
1664567642459,-0.6875,-1.0366821,0.04119873,59.390625,-24.109375,-6.875
1664567642494,0.030029297,-1.9751587,0.57025146,-22.6875,-10.9375,7.171875
1664567642539,0.71777344,-1.2778931,0.33831787,48.359375,-37.484375,-16.171875
1664567642572,-0.109375,-0.07281494,0.02532959,37.109375,-6.328125,-5.390625
1664567642617,-0.6672363,0.6286011,-0.31671143,50.328125,-12.8125,-7.0
1664567642663,0.2692871,0.3764038,-0.044006348,-3.796875,-5.046875,-16.0
1664567642697,0.4453125,-0.425354,0.07928467,-19.328125,16.90625,-15.09375
1664567642742,-0.1237793,-0.6502075,-0.31695557,-45.59375,8.15625,-8.46875
1664567642775,-0.2890625,-1.2271118,-0.14874268,-114.15625,8.375,25.5
1664567642853,1.7207031,-2.0,1.3673706,37.171875,-28.359375,26.75
1664567642856,-1.2055664,-1.6682739,0.14251709,88.765625,18.4375,-47.953125
1664567642898,-0.58496094,-1.5598755,0.022888184,-10.125,64.859375,22.796875
1664567642945,0.8144531,-1.6655884,0.01727295,22.328125,14.53125,3.140625
1664567642978,0.27075195,-0.6694946,0.262146,40.484375,40.4375,-27.234375
1664567643012,-0.36206055,-0.010559082,-0.031066895,27.71875,36.203125,0.765625
1664567643056,-0.053955078,0.46868896,-0.40216064,-27.453125,10.71875,20.5625
1664567643089,0.65185547,0.20428467,-0.10455322,-17.484375,-8.828125,6.390625
1664567643135,0.23413086,-0.18292236,0.16473389,-5.90625,-19.40625,-19.78125
1664567643168,-0.35839844,-0.6189575,-0.11798096,-91.15625,-14.453125,-3.765625
1664567643215,1.2102051,-2.0,0.03363037,-59.015625,-54.859375,15.4375
1664567643249,0.8059082,-2.0,0.7404175,35.484375,7.5625,19.6875
1664567643292,-0.95825195,-0.9390259,0.011657715,68.234375,-46.21875,-1.703125
1664567643325,-0.35888672,-1.9011841,0.41253662,-13.78125,-6.21875,4.328125
1664567643372,1.0480957,-1.3486938,0.260437,22.296875,-43.15625,-5.671875
1664567643405,0.12451172,-0.042297363,0.09539795,29.28125,4.65625,-8.484375
1664567643450,-0.9316406,0.7379761,-0.38555908,48.078125,-9.703125,-8.484375
1664567643483,-0.10107422,0.3427124,0.043151855,-21.515625,-4.328125,-14.203125
1664567643527,0.4013672,-0.35723877,-0.04888916,-16.203125,19.359375,-7.046875
1664567643563,-0.21704102,-0.65216064,-0.37652588,-42.78125,5.25,2.703125
1664567643608,0.2319336,-1.390686,-0.4829712,-49.4375,28.4375,42.78125
1664567643642,0.5671387,-2.0,1.763855,81.90625,63.46875,-2.6875
1664567643684,-1.6657715,-1.9006958,0.22161865,-2.40625,39.671875,-56.875
1664567643720,-0.119140625,-1.5501099,-0.2617798,-17.6875,86.046875,25.71875
1664567643765,1.0319824,-1.6350708,-0.022766113,22.75,7.90625,15.109375
1664567643797,-0.07373047,-1.0918579,0.36834717,32.484375,50.734375,-32.375
1664567643842,-0.5078125,-0.3789673,-0.08135986,24.234375,39.15625,12.890625
1664567643879,0.25927734,0.37738037,-0.3340454,-2.5,-0.875,25.6875
1664567643934,0.44726562,0.3817749,-0.09136963,-16.140625,-13.96875,7.078125
1664567643955,0.01977539,-0.097717285,0.09320068,-21.359375,-30.34375,-6.875
1664567644001,-0.4050293,-0.46368408,-0.84552,-43.59375,-25.75,-4.0625
1664567644036,0.44580078,-1.0857544,0.2538452,-66.25,-19.765625,-0.015625
1664567644079,1.9299316,-2.0,1.6483765,50.578125,-18.171875,7.4375
1664567644112,-0.56274414,-1.4087524,0.25994873,-26.078125,-42.0625,17.65625
1664567644157,-1.0952148,-1.2788696,0.3065796,84.25,-29.984375,-1.46875
1664567644193,0.3310547,-1.6245728,0.22845459,-49.640625,-9.109375,8.515625
1664567644240,0.81811523,-1.177063,0.38397217,31.1875,-27.765625,-5.578125
1664567644270,-0.45825195,-0.19317627,0.105651855,53.671875,-4.84375,-13.078125
1664567644315,-0.70996094,0.38031006,-0.26593018,48.578125,-26.109375,-21.828125
1664567644350,0.32006836,0.4052124,-0.07232666,-29.328125,12.46875,-2.671875
1664567644396,0.44921875,-0.2695923,0.11444092,-11.625,21.609375,0.390625
1664567644427,-0.5344238,-0.73638916,-0.395813,-74.125,-4.0,-15.296875
1664567644472,0.072021484,-1.708313,0.06121826,-80.28125,17.484375,25.078125
1664567644556,0.30493164,-2.0,1.4467163,44.578125,33.984375,-23.203125
1664567644558,-1.0783691,-1.8726196,0.4171753,48.53125,33.953125,-11.203125
1664567644587,0.095458984,-1.5969849,0.0368042,25.390625,32.71875,23.71875
1664567644631,0.4086914,-1.6638794,0.17449951,25.359375,26.453125,-11.875
1664567644664,-0.22436523,-0.47613525,0.062927246,42.046875,44.609375,-9.3125
1664567644711,0.14672852,0.16326904,-0.09674072,3.25,31.0625,12.59375
1664567644743,0.23828125,0.4003296,-0.36016846,-21.0625,0.171875,7.65625
1664567644788,0.36791992,0.090270996,-0.101379395,-21.09375,-8.25,5.359375
1664567644823,0.033935547,-0.04107666,0.20452881,7.265625,-34.90625,-8.5625
1664567644871,-0.26367188,-0.4216919,-0.49517822,-79.421875,-38.328125,-7.640625
1664567644901,0.9199219,-2.0,0.22869873,-27.765625,-28.140625,-9.328125
1664567644946,0.9790039,-2.0,0.69866943,44.0625,-10.546875,17.75
1664567644979,-0.9394531,-1.0271606,-0.09039307,39.703125,-45.640625,-23.4375
1664567645026,-0.29785156,-1.8184204,0.58099365,-2.953125,21.875,18.3125
1664567645059,0.74853516,-1.4585571,0.42034912,25.578125,-50.28125,-7.109375
1664567645105,-0.07348633,-0.2156372,0.054626465,40.796875,7.578125,-12.765625
1664567645137,-0.6381836,0.5272827,-0.39190674,65.796875,6.671875,-14.03125
1664567645206,0.23828125,0.5272827,0.073913574,-18.953125,0.96875,-4.96875
1664567645227,0.36621094,-0.27667236,0.04168701,-21.6875,8.84375,-6.109375
1664567645260,-0.30322266,-0.40997314,0.00970459,-17.40625,17.328125,-12.75
1664567645307,-0.44213867,-0.92388916,-0.62579346,-112.984375,0.875,13.9375
1664567645340,1.999939,-2.0,1.4765015,-51.9375,18.5,96.625
1664567645385,-0.5773926,-1.880188,0.090026855,122.03125,-23.84375,-87.03125
1664567645418,-1.333252,-1.3713989,0.19720459,41.546875,88.140625,20.609375
1664567645463,1.114502,-1.4653931,-0.50006104,-62.546875,41.1875,37.28125
1664567645497,1.0957031,-1.1860962,0.5883179,54.984375,7.875,-38.921875
1664567645543,-0.5209961,-0.27911377,0.24041748,26.59375,22.03125,-13.75
1664567645575,-0.7626953,0.4725952,-0.41949463,-0.390625,2.375,39.28125
1664567645621,0.65112305,0.4664917,-0.14215088,-26.984375,11.328125,3.421875
1664567645655,0.53881836,-0.10797119,0.074401855,-22.0625,-25.5625,-37.046875
1664567645700,-0.2331543,-0.30133057,-0.5786743,-20.5,-29.84375,6.765625
1664567645734,0.21533203,-0.8970337,0.40960693,-104.34375,-16.90625,10.921875
1664567645778,1.6811523,-2.0,1.999939,29.796875,-48.265625,11.71875
1664567645812,-0.9406738,-1.3530884,0.38104248,4.15625,-27.140625,3.203125
1664567645858,-0.6484375,-1.4607544,0.18597412,57.8125,-41.0,-6.765625
1664567645892,0.74975586,-1.5186157,0.46966553,-10.765625,-33.546875,-13.171875
1664567645936,0.29833984,-0.53253174,0.21942139,13.375,-9.546875,1.40625
1664567645971,-0.5444336,0.10736084,-0.22857666,55.875,4.234375,-23.015625
1664567646016,-0.33032227,0.3944702,-0.069885254,24.90625,-21.3125,-14.421875
1664567646047,0.3227539,-0.008605957,0.120788574,-26.671875,-9.171875,-2.34375
1664567646094,-0.13110352,-0.23223877,-0.0017700195,-22.53125,13.375,-9.640625
1664567646127,-0.4165039,-0.6355591,-0.65167236,-64.640625,-6.296875,-5.296875
1664567646172,1.999939,-2.0,-0.93414307,-82.328125,-58.40625,66.390625
1664567646205,0.28833008,-2.0,0.9086304,48.125,-10.4375,-53.375
1664567646251,-1.7436523,-1.295227,0.44940186,-8.875,57.9375,-1.875
1664567646285,0.4494629,-1.4724731,-0.17755127,3.53125,63.21875,40.265625
1664567646331,1.1586914,-2.0,0.3764038,20.234375,-8.84375,-7.90625
1664567646363,-0.5793457,-0.50494385,0.19500732,15.46875,34.75,-18.21875
1664567646408,-0.2849121,0.20159912,-0.09503174,30.328125,33.046875,13.46875
1664567646440,0.3779297,0.31097412,-0.17071533,-29.71875,-15.8125,17.21875
1664567646498,0.30737305,-0.07354736,-0.07281494,-28.15625,-17.9375,2.15625
1664567646520,-0.079589844,-0.33428955,0.08099365,10.609375,-23.765625,-11.609375
1664567646565,-0.05444336,-0.16656494,-0.6526489,-7.78125,-32.203125,2.5
1664567646599,0.7944336,-1.2307739,0.3739624,-88.125,-66.03125,-2.078125
1664567646645,1.0322266,-2.0,0.76116943,97.859375,5.1875,-7.71875
1664567646677,-0.01171875,-1.2959595,-0.5154419,-30.421875,-22.671875,3.0
1664567646723,-0.6726074,-1.0357056,0.62615967,39.71875,-14.171875,6.78125
1664567646758,-0.064941406,-1.3081665,0.13690186,-16.53125,17.4375,18.34375
1664567646805,0.4699707,-0.9558716,-0.117248535,3.984375,-11.984375,-14.515625
1664567646835,0.2763672,-0.4824829,0.3114624,32.734375,30.578125,-8.96875
1664567646879,-0.45385742,-0.15509033,-0.04473877,41.59375,16.984375,-1.140625
1664567646917,-0.06933594,-0.40093994,0.35760498,-46.640625,-11.25,-10.1875
1664567646959,0.076416016,-0.71173096,0.14691162,-18.796875,10.546875,-9.453125
1664567646993,-0.3791504,-0.67193604,0.2062378,4.5625,19.6875,-23.609375
1664567647037,-0.18579102,-0.5276489,-0.023742676,-12.578125,22.71875,-30.171875
1664567647074,-0.31274414,-1.1995239,-0.1831665,-60.734375,23.40625,9.671875
1664567647118,1.9338379,-2.0,0.9911499,-55.03125,-30.484375,66.265625
1664567647149,-0.3881836,-0.7468872,0.22943115,60.15625,-11.1875,-69.640625
1664567647195,-1.1254883,-1.1599731,0.09173584,-2.859375,28.171875,12.96875
1664567647229,0.62353516,-1.4334106,0.20770264,-8.375,32.234375,19.921875
1664567647276,0.97753906,-1.2224731,4.272461E-4,52.328125,-28.375,-17.53125
1664567647308,-0.1105957,-0.8201294,0.18011475,23.140625,-8.8125,-1.59375
1664567647352,-0.6516113,-0.87750244,-0.02178955,30.5,-0.8125,20.84375
1664567647388,0.080078125,-0.59381104,0.04095459,17.6875,-7.15625,2.09375
1664567647432,0.21313477,-0.6773071,0.11956787,2.203125,-2.421875,-2.65625
1664567647466,-0.20800781,-0.8323364,0.15057373,-6.546875,1.578125,-4.90625
1664567647510,-0.46313477,-0.76641846,0.19256592,-10.453125,8.875,-13.0625
1664567647544,-0.20361328,-0.44659424,0.19671631,4.53125,8.71875,-7.8125
1664567647588,0.04321289,-0.3977661,0.10369873,-16.796875,-3.328125,9.203125
1664567647636,0.1706543,-1.6231079,-0.093811035,-76.671875,-36.828125,10.765625
