# Sensor type: Respeck
# Activity type: Sitting
# Activity code: 0
# Subject id: s1912575
# Notes: 
timestamp,accel_x,accel_y,accel_z,gyro_x,gyro_y,gyro_z
1664374297922,-0.10180664,-0.88238525,0.5114136,17.15625,6.8125,2.359375
1664374297965,-0.0847168,-0.87994385,0.43475342,10.0625,6.234375,0.765625
1664374297996,-0.17529297,-0.8648071,0.4076538,8.0625,8.453125,-0.140625
1664374298045,-0.15209961,-0.9209595,0.4093628,1.65625,5.828125,-1.59375
1664374298086,-0.1394043,-0.9258423,0.45257568,1.109375,0.84375,-0.125
1664374298116,-0.10498047,-0.91485596,0.4257202,-0.234375,0.5625,-1.40625
1664374298160,-0.14819336,-0.91119385,0.42767334,-8.734375,0.34375,-1.75
1664374298192,-0.16015625,-0.9104614,0.44769287,-8.25,-2.234375,-2.578125
1664374298235,-0.15283203,-0.89971924,0.47161865,-7.65625,-2.90625,-2.796875
1664374298282,-0.14672852,-0.87677,0.48406982,-5.484375,-1.171875,-1.78125
1664374298312,-0.13330078,-0.8880005,0.47332764,-3.40625,0.4375,-2.0
1664374298357,-0.1694336,-0.9014282,0.46844482,-8.5,2.40625,-1.625
1664374298402,-0.17260742,-0.8701782,0.50775146,-2.859375,0.453125,-0.578125
1664374298433,-0.14990234,-0.86187744,0.4874878,8.640625,0.828125,1.1875
1664374298477,-0.14868164,-0.8916626,0.4869995,2.125,-0.09375,-0.90625
1664374298507,-0.12841797,-0.86065674,0.4977417,3.4375,0.359375,-0.1875
1664374298552,-0.13232422,-0.8796997,0.4845581,4.5,-0.109375,1.984375
1664374298595,-0.16601562,-0.88848877,0.4743042,-4.453125,-3.03125,-0.0625
1664374298626,-0.19848633,-0.87701416,0.4454956,2.171875,0.125,0.984375
1664374298673,-0.17700195,-0.892395,0.45965576,9.609375,6.0625,1.9375
1664374298716,-0.12817383,-0.8904419,0.45916748,0.109375,3.453125,2.09375
1664374298745,-0.15600586,-0.8855591,0.45550537,-3.0625,1.234375,1.203125
1664374298790,-0.14672852,-0.91119385,0.47235107,2.65625,-2.4375,0.421875
1664374298837,-0.12963867,-0.8870239,0.479187,-1.359375,-0.625,0.5
1664374298866,-0.12719727,-0.866272,0.4616089,1.359375,-0.59375,1.171875
1664374298913,-0.12841797,-0.8977661,0.47113037,-0.90625,-6.015625,0.40625
1664374298941,-0.16015625,-0.89801025,0.46551514,1.96875,-3.265625,0.5625
1664374298987,-0.15478516,-0.9006958,0.47113037,-1.515625,-1.875,1.078125
1664374299031,-0.13720703,-0.8916626,0.4623413,-4.03125,-1.125,1.203125
1664374299062,-0.14331055,-0.89190674,0.4677124,-5.078125,-1.75,-0.75
1664374299107,-0.15942383,-0.8831177,0.4857788,-0.609375,-0.125,0.25
1664374299153,-0.13574219,-0.8887329,0.47650146,3.125,0.90625,1.109375
1664374299182,-0.13549805,-0.8735962,0.4701538,-1.828125,0.3125,0.078125
1664374299227,-0.15209961,-0.8904419,0.4821167,-2.703125,-1.0,-0.328125
1664374299256,-0.15161133,-0.88165283,0.48602295,-0.234375,-0.734375,0.0625
1664374299306,-0.13305664,-0.8831177,0.48260498,0.734375,-0.859375,0.6875
1664374299346,-0.14501953,-0.8858032,0.4796753,-0.5625,-0.5625,-0.046875
1664374299375,-0.16064453,-0.8814087,0.48675537,-1.625,-0.09375,0.15625
1664374299425,-0.14379883,-0.881897,0.48162842,-0.40625,-0.46875,0.375
1664374299468,-0.1418457,-0.87677,0.48675537,-0.859375,-0.109375,0.375
1664374299496,-0.14428711,-0.8792114,0.49066162,-1.265625,-0.8125,-0.09375
1664374299542,-0.14916992,-0.8804321,0.48797607,0.0,0.109375,0.15625
1664374299586,-0.13476562,-0.881897,0.4862671,-0.015625,-0.171875,0.125
1664374299619,-0.14770508,-0.87091064,0.4923706,-0.703125,-0.234375,-0.078125
1664374299665,-0.14331055,-0.8831177,0.479187,-0.359375,-0.75,0.359375
1664374299692,-0.14648438,-0.864563,0.49920654,-1.609375,0.0625,-0.40625
1664374299736,-0.1430664,-0.88848877,0.49066162,-2.796875,-0.828125,-0.140625
1664374299782,-0.16259766,-0.8726196,0.49456787,-4.9375,-1.453125,-0.734375
1664374299813,-0.15600586,-0.8599243,0.51312256,0.3125,-0.546875,0.09375
1664374299855,-0.14428711,-0.8753052,0.4940796,0.921875,0.515625,0.390625
1664374299904,-0.1586914,-0.8633423,0.50408936,-1.640625,0.03125,-0.21875
1664374299932,-0.14624023,-0.8723755,0.50653076,-2.03125,-0.578125,-0.265625
1664374299974,-0.15405273,-0.8635864,0.50579834,0.359375,0.53125,0.171875
1664374300005,-0.14916992,-0.88116455,0.5084839,0.84375,0.234375,-0.171875
1664374300050,-0.14746094,-0.86260986,0.5072632,-1.984375,0.484375,-0.125
1664374300095,-0.15649414,-0.8633423,0.513855,1.890625,0.125,0.0
1664374300126,-0.1574707,-0.864563,0.5114136,-0.484375,0.390625,0.109375
1664374300172,-0.1472168,-0.86065674,0.50897217,-0.0625,0.390625,-0.015625
1664374300215,-0.14916992,-0.86676025,0.50701904,-0.1875,0.0,-0.109375
1664374300246,-0.15185547,-0.8635864,0.512146,-0.15625,0.25,0.078125
1664374300292,-0.15893555,-0.8633423,0.5084839,0.078125,0.3125,0.078125
1664374300334,-0.15478516,-0.86065674,0.5092163,-0.671875,0.140625,0.03125
1664374300366,-0.15185547,-0.8713989,0.5036011,0.9375,0.21875,0.09375
1664374300412,-0.15942383,-0.86505127,0.5206909,-1.265625,0.3125,-0.265625
1664374300441,-0.14135742,-0.8718872,0.5101929,-0.609375,0.578125,-0.703125
1664374300487,-0.15405273,-0.8657837,0.510437,-2.625,-0.6875,-0.796875
1664374300532,-0.15771484,-0.84747314,0.5204468,0.296875,-0.34375,0.0625
1664374300562,-0.14746094,-0.8677368,0.5150757,1.75,0.6875,0.171875
1664374300606,-0.15600586,-0.8526001,0.51483154,-1.15625,0.109375,-0.21875
1664374300653,-0.1538086,-0.8623657,0.5228882,-0.234375,0.078125,-0.578125
1664374300680,-0.15722656,-0.8584595,0.5236206,0.109375,0.015625,0.140625
1664374300727,-0.14697266,-0.8652954,0.5145874,0.703125,0.46875,-0.015625
1664374300756,-0.15917969,-0.8587036,0.51556396,0.484375,0.796875,-0.5625
1664374300800,-0.15551758,-0.8555298,0.5270386,1.015625,0.203125,0.21875
1664374300847,-0.1586914,-0.85650635,0.5165405,0.515625,0.5625,0.109375
1664374300875,-0.15258789,-0.8533325,0.51605225,0.546875,0.03125,0.078125
1664374300922,-0.14892578,-0.8623657,0.5182495,0.078125,-0.046875,-0.015625
1664374300967,-0.15307617,-0.8599243,0.51727295,1.265625,0.375,0.09375
1664374300996,-0.15454102,-0.86602783,0.5175171,0.078125,0.265625,0.03125
1664374301041,-0.15332031,-0.85650635,0.5126343,0.171875,0.46875,0.15625
1664374301087,-0.15771484,-0.86309814,0.5192261,1.078125,0.59375,0.125
1664374301116,-0.14819336,-0.8621216,0.52215576,-1.3125,-0.078125,-0.328125
1664374301162,-0.15161133,-0.8616333,0.52093506,2.265625,0.984375,0.46875
1664374301191,-0.14404297,-0.8779907,0.5055542,-2.875,-0.09375,-0.921875
1664374301236,-0.1652832,-0.8460083,0.5204468,-1.03125,-0.28125,-0.109375
1664374301283,-0.1459961,-0.86798096,0.52508545,3.609375,0.59375,0.453125
1664374301312,-0.15185547,-0.8609009,0.5031128,-0.875,0.6875,-0.03125
1664374301357,-0.1586914,-0.85357666,0.5223999,-0.96875,-0.09375,-0.359375
1664374301401,-0.15332031,-0.8635864,0.5206909,-0.15625,0.15625,-0.21875
1664374301431,-0.15136719,-0.8591919,0.52679443,1.125,0.453125,0.28125
1664374301475,-0.15429688,-0.86602783,0.5150757,0.25,0.5625,-0.203125
1664374301506,-0.15478516,-0.85040283,0.5321655,-0.265625,0.921875,0.0
1664374301553,-0.15136719,-0.8635864,0.5231323,2.140625,0.359375,0.359375
1664374301596,-0.15551758,-0.8543091,0.51776123,-0.53125,0.4375,0.25
1664374301626,-0.15454102,-0.861145,0.51727295,1.328125,0.390625,0.015625
1664374301672,-0.14941406,-0.8682251,0.5192261,-0.46875,0.28125,-0.015625
1664374301735,-0.15209961,-0.85406494,0.51776123,1.015625,0.5625,0.21875
1664374301745,-0.14868164,-0.8635864,0.5153198,-0.8125,0.25,-0.078125
1664374301792,-0.15478516,-0.85162354,0.5182495,0.4375,0.328125,0.15625
1664374301836,-0.1508789,-0.86431885,0.51190186,1.078125,0.1875,-0.046875
1664374301866,-0.14794922,-0.8501587,0.5241089,-1.109375,0.53125,-0.5
1664374301911,-0.15258789,-0.86676025,0.5153198,2.171875,0.75,0.40625
1664374301987,-0.14916992,-0.862854,0.5133667,-3.75,-0.1875,-0.96875
1664374301991,-0.15356445,-0.8369751,0.53118896,0.921875,-0.34375,0.3125
1664374302032,-0.14477539,-0.87286377,0.5211792,2.53125,0.96875,0.015625
1664374302062,-0.15405273,-0.8530884,0.5231323,-2.421875,0.25,-0.140625
1664374302108,-0.15209961,-0.84991455,0.51434326,0.453125,0.046875,-0.3125
1664374302152,-0.15307617,-0.861145,0.52264404,0.53125,0.3125,0.265625
1664374302183,-0.14746094,-0.85772705,0.52459717,1.4375,0.640625,0.015625
1664374302226,-0.15600586,-0.8562622,0.5180054,-0.765625,0.3125,-0.25
1664374302257,-0.16015625,-0.85040283,0.5231323,1.640625,0.390625,-0.265625
1664374302302,-0.15112305,-0.8682251,0.5175171,0.671875,0.3125,0.0
1664374302345,-0.14697266,-0.847229,0.52630615,-0.171875,0.515625,-0.15625
1664374302376,-0.15283203,-0.8599243,0.5228882,0.84375,0.34375,0.125
1664374302425,-0.14916992,-0.85943604,0.5194702,-0.53125,0.1875,-0.1875
1664374302466,-0.15063477,-0.8574829,0.5216675,1.28125,0.5,-0.078125
1664374302500,-0.15527344,-0.8567505,0.52020264,0.359375,0.375,0.015625
1664374302542,-0.15600586,-0.85894775,0.526062,0.3125,0.40625,-0.0625
1664374302586,-0.15795898,-0.85406494,0.52801514,0.734375,0.390625,-0.03125
1664374302615,-0.1472168,-0.86138916,0.5241089,-0.90625,-0.03125,-0.421875
1664374302662,-0.15625,-0.8508911,0.52264404,2.03125,1.109375,0.421875
1664374302692,-0.1430664,-0.8718872,0.5114136,-1.734375,0.03125,-0.890625
1664374302736,-0.1652832,-0.8389282,0.52874756,-1.78125,-0.5625,-0.25
1664374302783,-0.1472168,-0.8623657,0.5336304,4.21875,0.265625,0.671875
1664374302812,-0.15209961,-0.866272,0.5219116,-2.265625,0.171875,-0.46875
1664374302856,-0.15649414,-0.8501587,0.527771,-0.296875,-0.03125,-0.4375
1664374302902,-0.15576172,-0.85406494,0.5180054,1.140625,0.265625,0.0
1664374302932,-0.1538086,-0.861145,0.5270386,0.71875,0.359375,0.234375
1664374302975,-0.1484375,-0.8648071,0.5187378,0.5,0.5625,-0.3125
1664374303007,-0.16552734,-0.8442993,0.53240967,0.296875,0.671875,-0.078125
1664374303065,-0.15014648,-0.86065674,0.52215576,1.890625,0.140625,0.0625
1664374303096,-0.15917969,-0.8579712,0.51849365,-0.890625,0.28125,-0.03125
1664374303127,-0.15405273,-0.8521118,0.51776123,1.28125,0.25,-0.078125
1664374303172,-0.1496582,-0.86724854,0.52508545,-0.03125,0.390625,0.03125
1664374303217,-0.14892578,-0.8604126,0.5216675,0.46875,0.21875,-0.0625
1664374303247,-0.15258789,-0.85406494,0.5223999,0.453125,0.421875,0.078125
1664374303292,-0.15161133,-0.85528564,0.51727295,0.40625,0.40625,0.015625
1664374303335,-0.14916992,-0.8545532,0.5204468,0.1875,0.28125,-0.21875
1664374303367,-0.15356445,-0.8557739,0.5265503,0.453125,0.421875,0.078125
1664374303413,-0.15332031,-0.8677368,0.51678467,-0.140625,-0.40625,-0.09375
1664374303441,-0.15429688,-0.85113525,0.52996826,0.609375,0.984375,0.28125
1664374303486,-0.14404297,-0.866272,0.51116943,-0.203125,0.0,-0.46875
1664374303532,-0.16552734,-0.8479614,0.527771,-2.875,-0.390625,-0.25
1664374303561,-0.14453125,-0.85235596,0.5350952,3.421875,-0.09375,0.609375
1664374303606,-0.15112305,-0.8635864,0.52020264,-0.671875,0.890625,-0.265625
1664374303651,-0.16552734,-0.850647,0.53045654,-0.640625,0.140625,0.078125
1664374303682,-0.15014648,-0.85723877,0.52459717,0.21875,-0.09375,-0.015625
1664374303727,-0.1472168,-0.8477173,0.5282593,0.609375,0.15625,0.34375
1664374303757,-0.14624023,-0.85943604,0.5182495,1.703125,0.34375,0.015625
1664374303803,-0.15966797,-0.85284424,0.52996826,-1.4375,0.328125,-0.28125
1664374303846,-0.15161133,-0.8591919,0.5348511,1.171875,0.03125,0.078125
1664374303877,-0.1484375,-0.85406494,0.526062,0.34375,0.34375,0.0
1664374303922,-0.15405273,-0.8623657,0.5360718,0.015625,0.0,-0.078125
1664374303967,-0.1538086,-0.8518677,0.526062,0.328125,0.265625,0.234375
1664374303996,-0.15454102,-0.8501587,0.5270386,0.609375,0.171875,-0.046875
1664374304042,-0.15844727,-0.85235596,0.5258179,0.59375,0.5,-0.28125
1664374304086,-0.15234375,-0.85406494,0.5223999,0.796875,0.28125,0.09375
1664374304116,-0.1538086,-0.8579712,0.5145874,0.609375,0.265625,0.0625
1664374304162,-0.15991211,-0.85406494,0.5253296,-0.515625,0.5625,-0.28125
1664374304192,-0.15136719,-0.8596802,0.52459717,-0.546875,-0.046875,-0.34375
1664374304235,-0.15185547,-0.8508911,0.527771,1.9375,1.015625,0.296875
1664374304281,-0.13989258,-0.8670044,0.5175171,-2.25,0.140625,-0.875
1664374304310,-0.16748047,-0.8418579,0.5380249,-1.84375,-0.625,-0.203125
1664374304356,-0.1496582,-0.8521118,0.5348511,3.21875,0.078125,0.546875
1664374304402,-0.15429688,-0.8604126,0.51361084,-1.109375,0.5625,-0.234375
1664374304432,-0.15893555,-0.8491821,0.52874756,-0.953125,0.203125,-0.296875
1664374304475,-0.15454102,-0.85406494,0.5282593,0.53125,0.125,-0.0625
1664374304508,-0.15820312,-0.85040283,0.5282593,1.15625,0.359375,0.296875
1664374304552,-0.14794922,-0.8604126,0.52752686,-0.140625,0.46875,-0.40625
1664374304595,-0.16088867,-0.83843994,0.5380249,-0.03125,0.515625,-0.140625
1664374304627,-0.15332031,-0.8550415,0.5309448,1.890625,0.484375,0.078125
1664374304671,-0.15063477,-0.85357666,0.526062,-0.8125,0.375,-0.125
1664374304715,-0.15283203,-0.8579712,0.52948,0.78125,0.421875,0.125
1664374304746,-0.15307617,-0.8567505,0.5289917,-0.1875,0.265625,0.0
1664374304790,-0.15722656,-0.8501587,0.53045654,0.125,0.203125,-0.140625
1664374304820,-0.15576172,-0.8530884,0.526062,0.96875,0.578125,0.1875
1664374304864,-0.15722656,-0.85357666,0.5258179,0.0625,0.546875,-0.171875
1664374304912,-0.15185547,-0.8491821,0.5289917,0.15625,-0.171875,0.171875
1664374304944,-0.15722656,-0.85723877,0.52801514,0.125,0.453125,-0.03125
1664374304987,-0.15209961,-0.8530884,0.53289795,-2.1875,0.015625,-0.46875
1664374305032,-0.15161133,-0.8557739,0.5343628,1.625,1.0,0.15625
1664374305062,-0.15307617,-0.86065674,0.52801514,-2.96875,0.09375,-1.140625
1664374305106,-0.16308594,-0.83306885,0.5441284,-0.5,-0.71875,-0.125
1664374305151,-0.14697266,-0.84991455,0.5387573,3.390625,0.640625,0.328125
1664374305181,-0.1574707,-0.84942627,0.52923584,-1.375,0.609375,-0.4375
1664374305226,-0.16113281,-0.84991455,0.5355835,0.015625,0.125,-0.625
1664374305258,-0.15136719,-0.85357666,0.5368042,0.640625,0.125,0.109375
1664374305301,-0.15478516,-0.8521118,0.5338745,1.15625,0.5625,0.0
1664374305346,-0.15551758,-0.8569946,0.52923584,-0.078125,0.78125,-0.328125
1664374305375,-0.15917969,-0.8406372,0.5426636,1.375,0.53125,-0.09375
1664374305423,-0.1586914,-0.85821533,0.53411865,1.671875,0.359375,-0.15625
1664374305467,-0.15844727,-0.8479614,0.5350952,-0.15625,0.359375,-0.1875
1664374305495,-0.15429688,-0.8479614,0.5331421,0.90625,0.28125,0.078125
1664374305543,-0.16113281,-0.8521118,0.527771,0.390625,0.390625,-0.21875
1664374305571,-0.16088867,-0.8518677,0.5289917,0.390625,0.421875,-0.046875
1664374305616,-0.14941406,-0.84991455,0.5297241,1.09375,0.65625,-0.046875
1664374305663,-0.15576172,-0.85650635,0.5368042,0.15625,0.1875,-0.109375
1664374305691,-0.15991211,-0.8543091,0.52630615,0.15625,0.625,-0.125
1664374305736,-0.15966797,-0.8501587,0.53778076,0.140625,0.234375,-0.25
1664374305783,-0.15283203,-0.8521118,0.53338623,-0.078125,0.171875,-0.15625
1664374305812,-0.16259766,-0.8460083,0.5319214,2.0,1.078125,0.234375
1664374305856,-0.13745117,-0.86846924,0.5206909,-1.5625,0.171875,-0.8125
1664374305903,-0.1665039,-0.8406372,0.52948,-2.0,-0.390625,-0.34375
1664374305933,-0.1574707,-0.8555298,0.53778076,3.234375,0.0,0.296875
1664374305975,-0.15795898,-0.85162354,0.52801514,-1.375,0.5625,-0.171875
1664374306006,-0.15405273,-0.8435669,0.53948975,-0.46875,0.21875,-0.5625
1664374306051,-0.1586914,-0.8496704,0.54071045,1.171875,0.359375,-0.265625
1664374306096,-0.15185547,-0.8484497,0.5368042,0.921875,0.421875,0.53125
1664374306126,-0.15039062,-0.8530884,0.53118896,0.3125,0.5,-0.171875
1664374306171,-0.16064453,-0.83966064,0.5380249,0.375,0.6875,-0.078125
1664374306217,-0.15722656,-0.8543091,0.5285034,1.6875,0.0625,0.265625
1664374306247,-0.15234375,-0.8406372,0.5219116,-0.578125,0.5625,-0.1875
1664374306293,-0.16137695,-0.85040283,0.53045654,0.328125,0.265625,0.03125
1664374306321,-0.14331055,-0.85528564,0.53118896,-0.5,0.53125,-0.09375
1664374306369,-0.14794922,-0.8401489,0.53411865,-0.1875,0.5625,-0.3125
1664374306412,-0.16479492,-0.8491821,0.53411865,2.21875,0.734375,0.125
1664374306440,-0.15258789,-0.8555298,0.53289795,0.0,0.15625,-0.109375
1664374306487,-0.15625,-0.8521118,0.527771,-0.796875,0.359375,-0.046875
1664374306532,-0.16772461,-0.84454346,0.53338623,0.90625,0.234375,0.1875
1664374306562,-0.1496582,-0.85650635,0.53167725,-1.96875,0.1875,-0.1875
1664374306607,-0.16064453,-0.84454346,0.54071045,1.6875,0.75,0.28125
1664374306652,-0.15698242,-0.862854,0.5282593,-1.71875,0.265625,-1.03125
1664374306681,-0.16430664,-0.8345337,0.53778076,-1.03125,-0.25,-0.15625
1664374306727,-0.15942383,-0.8574829,0.54974365,2.296875,-0.03125,0.25
1664374306754,-0.15844727,-0.85113525,0.5336304,-1.109375,0.34375,-0.171875
1664374306803,-0.15673828,-0.84039307,0.5375366,-0.9375,0.25,-0.265625
1664374306848,-0.16137695,-0.85040283,0.5375366,1.21875,0.21875,0.03125
1664374306876,-0.15136719,-0.84820557,0.54315186,0.578125,0.734375,0.109375
1664374306923,-0.15039062,-0.848938,0.52752686,0.625,0.71875,-0.09375
1664374306967,-0.16430664,-0.8479614,0.5409546,0.921875,0.4375,-0.21875
1664374306995,-0.1586914,-0.847229,0.53656006,0.8125,0.1875,0.015625
1664374307041,-0.15844727,-0.8357544,0.5385132,1.515625,0.328125,0.21875
1664374307073,-0.15454102,-0.8526001,0.5343628,0.234375,0.171875,-0.21875
1664374307117,-0.15063477,-0.85650635,0.5289917,0.578125,0.09375,-0.21875
1664374307161,-0.15917969,-0.8521118,0.53656006,0.078125,0.46875,-0.09375
1664374307193,-0.15966797,-0.8513794,0.53289795,0.671875,0.265625,0.078125
1664374307234,-0.1574707,-0.85235596,0.5350952,-0.203125,0.3125,-0.15625
1664374307311,-0.15942383,-0.8484497,0.5355835,1.0,0.28125,-0.046875
1664374307315,-0.15136719,-0.8508911,0.5421753,-0.96875,0.25,-0.5625
1664374307356,-0.16333008,-0.8479614,0.53533936,2.515625,0.6875,0.5625
1664374307402,-0.14257812,-0.8567505,0.527771,-2.6875,0.390625,-1.421875
1664374307431,-0.16796875,-0.8362427,0.54803467,-0.640625,-0.46875,-0.03125
1664374307478,-0.1538086,-0.8550415,0.5453491,3.34375,0.359375,0.390625
1664374307506,-0.15625,-0.84820557,0.5314331,-1.328125,0.46875,-0.078125
1664374307552,-0.15625,-0.8413696,0.5338745,-0.328125,0.046875,-0.46875
1664374307595,-0.15722656,-0.84820557,0.54437256,0.65625,0.484375,-0.234375
1664374307627,-0.1574707,-0.8447876,0.5392456,0.8125,0.40625,0.296875
1664374307672,-0.16088867,-0.8467407,0.5355835,-0.484375,0.78125,-0.546875
1664374307715,-0.17382812,-0.84747314,0.54608154,0.875,0.609375,-0.21875
1664374307746,-0.15405273,-0.8501587,0.5355835,1.46875,0.28125,0.09375
1664374307792,-0.15771484,-0.8386841,0.53948975,-0.90625,0.15625,-0.140625
1664374307822,-0.16186523,-0.8508911,0.53656006,1.171875,0.421875,0.03125
1664374307865,-0.15649414,-0.8430786,0.5372925,0.0625,0.25,0.0625
1664374307913,-0.15673828,-0.84942627,0.5385132,0.921875,0.0625,0.015625
1664374307943,-0.15405273,-0.8567505,0.5326538,-0.359375,0.53125,0.15625
1664374307986,-0.16625977,-0.83966064,0.54241943,0.75,0.359375,0.03125
1664374308032,-0.15356445,-0.85162354,0.53411865,-0.609375,-0.296875,-0.25
1664374308062,-0.15673828,-0.8364868,0.5458374,0.8125,0.796875,0.28125
1664374308105,-0.14501953,-0.85650635,0.53167725,-0.671875,0.15625,-0.484375
1664374308151,-0.16455078,-0.83966064,0.5368042,-1.875,-0.1875,-0.234375
1664374308184,-0.15405273,-0.84161377,0.54901123,3.125,-0.265625,0.328125
1664374308226,-0.15356445,-0.85943604,0.5319214,-0.171875,0.5625,-0.015625
1664374308255,-0.16381836,-0.8399048,0.5392456,-1.828125,0.28125,-0.390625
1664374308302,-0.15405273,-0.848938,0.5414429,1.15625,0.09375,-0.078125
1664374308346,-0.15136719,-0.8452759,0.5477905,0.46875,0.3125,0.34375
1664374308377,-0.15600586,-0.85235596,0.53533936,0.34375,0.328125,-0.03125
1664374308422,-0.16210938,-0.8335571,0.543396,0.84375,0.859375,-0.125
1664374308465,-0.15454102,-0.8442993,0.53826904,1.546875,0.171875,0.109375
1664374308495,-0.15576172,-0.8411255,0.5426636,-0.609375,0.21875,-0.03125
1664374308543,-0.15698242,-0.84576416,0.5385132,1.125,0.328125,0.0
1664374308573,-0.15307617,-0.85357666,0.5385132,0.3125,0.390625,0.109375
1664374308615,-0.15136719,-0.8479614,0.53582764,-0.015625,0.296875,-0.1875
1664374308662,-0.1616211,-0.8362427,0.5429077,0.765625,0.640625,-0.03125
1664374308691,-0.15673828,-0.8616333,0.52630615,0.609375,-0.078125,0.296875
1664374308736,-0.1616211,-0.8335571,0.5487671,-0.796875,0.703125,-0.421875
1664374308784,-0.15209961,-0.8640747,0.524353,1.28125,0.390625,0.03125
1664374308813,-0.16479492,-0.84698486,0.5392456,-3.578125,-0.21875,-0.59375
1664374308856,-0.16259766,-0.82647705,0.5516968,2.921875,-0.3125,0.328125
1664374308933,-0.15600586,-0.85601807,0.53826904,0.875,0.578125,0.109375
1664374308935,-0.16088867,-0.8430786,0.5360718,-2.765625,0.203125,-0.3125
1664374308977,-0.16088867,-0.8430786,0.545105,1.28125,0.390625,-0.390625
1664374309007,-0.16259766,-0.848938,0.5453491,0.375,0.15625,0.375
1664374309051,-0.15551758,-0.848938,0.5336304,1.078125,0.546875,-0.0625
1664374309096,-0.16430664,-0.83843994,0.5375366,-0.578125,0.671875,-0.234375
1664374309126,-0.16015625,-0.8460083,0.54364014,2.1875,0.5,0.15625
1664374309172,-0.15527344,-0.84332275,0.5343628,-0.34375,0.3125,0.140625
1664374309217,-0.16040039,-0.84747314,0.54193115,0.640625,0.21875,-0.171875
1664374309246,-0.15820312,-0.8479614,0.5350952,0.53125,0.21875,0.203125
1664374309294,-0.16381836,-0.83673096,0.5348511,0.609375,0.453125,-0.3125
1664374309322,-0.15600586,-0.8428345,0.5429077,-0.109375,0.109375,-0.09375
1664374309367,-0.16015625,-0.8518677,0.5350952,0.875,0.390625,0.078125
1664374309411,-0.16308594,-0.84454346,0.5426636,-1.265625,0.4375,-0.65625
1664374309443,-0.14697266,-0.8599243,0.52630615,1.3125,0.671875,0.125
1664374309486,-0.16381836,-0.8442993,0.5363159,-2.53125,-0.109375,-0.921875
1664374309532,-0.1652832,-0.829895,0.5565796,1.296875,-0.28125,0.328125
1664374309563,-0.15551758,-0.8543091,0.5385132,2.0,0.578125,0.171875
1664374309607,-0.16796875,-0.8447876,0.5404663,-2.390625,0.15625,-0.484375
1664374309682,-0.1586914,-0.8430786,0.54193115,0.59375,0.234375,-0.328125
1664374309685,-0.15917969,-0.8467407,0.539978,1.296875,0.3125,0.328125
1664374309726,-0.15332031,-0.8550415,0.54486084,0.4375,0.625,-0.0625
1664374309756,-0.16333008,-0.83721924,0.54022217,-0.765625,0.71875,-0.3125
1664374309801,-0.16259766,-0.8423462,0.54437256,2.296875,0.5,0.171875
1664374309876,-0.15576172,-0.8381958,0.54022217,-0.453125,0.234375,0.0625
1664374309879,-0.15844727,-0.8394165,0.5404663,0.78125,0.484375,-0.171875
1664374309923,-0.16088867,-0.8533325,0.54241943,0.1875,0.359375,-0.015625
1664374309967,-0.1652832,-0.84381104,0.543396,0.734375,0.328125,0.0625
1664374309996,-0.15283203,-0.84991455,0.5387573,0.21875,0.265625,-0.078125
1664374310042,-0.16235352,-0.8479614,0.5421753,0.390625,0.546875,-0.046875
1664374310072,-0.1538086,-0.8569946,0.5326538,0.421875,-0.203125,-0.0625
1664374310116,-0.16210938,-0.8377075,0.55340576,-0.34375,0.71875,-0.203125
1664374310163,-0.14770508,-0.8599243,0.5272827,0.984375,0.546875,-0.1875
1664374310192,-0.16796875,-0.8413696,0.54193115,-3.140625,-0.328125,-0.34375
1664374310235,-0.15893555,-0.8357544,0.54901123,3.09375,-0.34375,0.34375
1664374310282,-0.15332031,-0.8567505,0.54022217,0.109375,0.65625,-0.015625
1664374310311,-0.16259766,-0.8394165,0.545105,-1.953125,0.46875,-0.375
1664374310356,-0.15820312,-0.84698486,0.5446167,0.828125,0.375,-0.28125
1664374310431,-0.16259766,-0.8418579,0.5438843,1.328125,0.484375,0.46875
1664374310435,-0.15112305,-0.8501587,0.5387573,0.53125,0.46875,-0.203125
1664374310477,-0.16430664,-0.83477783,0.5446167,-0.28125,0.78125,-0.109375
1664374310504,-0.15551758,-0.8479614,0.5414429,1.921875,0.078125,0.125
1664374310553,-0.15234375,-0.84039307,0.545105,-0.234375,0.484375,-0.234375
1664374310595,-0.1574707,-0.8428345,0.541687,0.25,-0.0625,0.0
1664374310626,-0.16577148,-0.8467407,0.5385132,1.0625,0.53125,-0.03125
1664374310672,-0.1586914,-0.8413696,0.54681396,0.0,0.171875,0.078125
1664374310716,-0.15478516,-0.8533325,0.54119873,1.203125,0.6875,-0.015625
1664374310745,-0.16088867,-0.84503174,0.5336304,-0.328125,-0.09375,0.0625
1664374310791,-0.16723633,-0.8423462,0.545105,0.90625,0.328125,0.03125
1664374310822,-0.15283203,-0.84698486,0.54681396,-0.921875,0.34375,-0.390625
1664374310865,-0.15356445,-0.8435669,0.54730225,1.9375,0.8125,0.484375
1664374310909,-0.1586914,-0.85040283,0.53045654,-1.8125,0.328125,-0.921875
1664374310940,-0.16137695,-0.83258057,0.5531616,0.015625,-0.453125,0.15625
1664374310984,-0.15283203,-0.8538208,0.5499878,2.578125,0.359375,0.28125
1664374311033,-0.1706543,-0.83966064,0.53948975,-2.0,0.53125,-0.28125
1664374311061,-0.16235352,-0.8440552,0.5441284,-0.5,0.125,-0.421875
1664374311105,-0.15893555,-0.8389282,0.5392456,1.71875,0.671875,0.0
1664374311151,-0.15209961,-0.848938,0.545105,1.34375,0.53125,0.09375
1664374311182,-0.1640625,-0.8428345,0.54730225,-0.84375,0.78125,-0.296875
1664374311226,-0.16674805,-0.8377075,0.54315186,2.203125,0.328125,0.09375
1664374311255,-0.15722656,-0.8428345,0.53533936,0.515625,0.46875,0.1875
1664374311303,-0.16235352,-0.83966064,0.5453491,0.875,0.34375,-0.25
1664374311347,-0.16235352,-0.85040283,0.5465698,0.40625,0.171875,0.109375
1664374311376,-0.15576172,-0.8413696,0.54022217,0.625,0.578125,-0.046875
1664374311421,-0.15795898,-0.8491821,0.5397339,0.5625,0.390625,-0.046875
1664374311465,-0.15307617,-0.8477173,0.5465698,0.0,0.125,0.078125
1664374311496,-0.1665039,-0.8440552,0.5446167,0.90625,0.75,-0.140625
1664374311542,-0.16040039,-0.8501587,0.5441284,-0.34375,0.234375,0.1875
1664374311572,-0.15698242,-0.8467407,0.53704834,0.640625,-0.078125,-0.125
1664374311615,-0.17016602,-0.84088135,0.5504761,0.828125,0.875,0.203125
1664374311662,-0.14453125,-0.86065674,0.5272827,-0.578125,0.46875,-0.46875
1664374311693,-0.16699219,-0.83135986,0.5463257,-2.046875,-0.53125,-0.1875
1664374311737,-0.15893555,-0.8323364,0.5529175,2.5625,-0.34375,0.265625
1664374311783,-0.16235352,-0.8406372,0.5375366,-0.9375,0.90625,-0.046875
1664374311813,-0.16845703,-0.8435669,0.5458374,-1.796875,0.09375,-0.4375
1664374311855,-0.15991211,-0.8447876,0.5463257,1.328125,0.390625,-0.03125
1664374311902,-0.15576172,-0.84039307,0.55267334,0.6875,0.3125,0.265625
1664374311933,-0.15917969,-0.85235596,0.54364014,0.515625,0.671875,-0.15625
1664374311975,-0.16918945,-0.83062744,0.54364014,0.21875,0.6875,0.015625
1664374312009,-0.15722656,-0.84625244,0.541687,1.359375,0.296875,0.0625
1664374312053,-0.15771484,-0.8399048,0.5492554,-0.53125,0.34375,-0.09375
1664374312095,-0.16357422,-0.8467407,0.54364014,1.546875,0.5,-0.125
1664374312126,-0.15258789,-0.850647,0.54193115,-0.0625,0.453125,0.015625
1664374312171,-0.15844727,-0.83477783,0.5446167,0.390625,0.28125,-0.078125
1664374312218,-0.15600586,-0.84552,0.54486084,0.375,0.5625,0.15625
1664374312247,-0.16088867,-0.8423462,0.5465698,0.265625,0.171875,-0.03125
1664374312293,-0.15527344,-0.8374634,0.5385132,0.8125,0.421875,-0.0625
1664374312322,-0.16308594,-0.84210205,0.5438843,-0.109375,0.125,-0.03125
1664374312368,-0.15600586,-0.847229,0.54119873,0.203125,-0.25,-0.078125
1664374312426,-0.16967773,-0.8328247,0.55096436,0.78125,1.015625,-0.09375
1664374312441,-0.14575195,-0.8545532,0.5336304,-0.125,0.390625,-0.453125
1664374312487,-0.17016602,-0.8296509,0.54071045,-2.015625,-0.15625,-0.40625
1664374312533,-0.15844727,-0.8411255,0.55096436,3.078125,-0.21875,0.109375
1664374312560,-0.15625,-0.8435669,0.54193115,-1.09375,0.84375,-0.171875
1664374312606,-0.16674805,-0.8364868,0.5475464,-0.625,0.1875,-0.375
1664374312652,-0.15991211,-0.8464966,0.54852295,0.0625,0.28125,-0.171875
1664374312682,-0.15942383,-0.8374634,0.54730225,1.65625,0.546875,0.234375
1664374312727,-0.1574707,-0.85040283,0.5414429,0.796875,0.546875,-0.171875
1664374312755,-0.16577148,-0.8323364,0.5504761,-0.609375,0.640625,-0.1875
1664374312802,-0.15942383,-0.84088135,0.5470581,1.6875,0.28125,0.0
1664374312848,-0.15698242,-0.84039307,0.5458374,-1.125,0.203125,0.046875
1664374312875,-0.15625,-0.8406372,0.5499878,0.671875,0.28125,0.03125
1664374312923,-0.16333008,-0.85040283,0.5397339,0.578125,0.359375,0.171875
1664374312968,-0.15283203,-0.8328247,0.54364014,0.75,0.390625,-0.1875
1664374312995,-0.15673828,-0.8418579,0.545105,0.34375,0.4375,0.046875
1664374313042,-0.16088867,-0.84332275,0.5446167,-0.0625,0.328125,0.0
1664374313072,-0.15576172,-0.84576416,0.54486084,0.421875,0.34375,-0.234375
1664374313116,-0.15966797,-0.8447876,0.54315186,0.078125,-0.125,-0.046875
1664374313161,-0.15283203,-0.8484497,0.543396,1.234375,0.15625,0.015625
1664374313193,-0.16040039,-0.8303833,0.5585327,-1.109375,0.59375,-0.5
1664374313235,-0.1496582,-0.848938,0.53460693,1.78125,0.359375,0.109375
1664374313282,-0.16308594,-0.8440552,0.54022217,-3.703125,-0.46875,-0.6875
1664374313312,-0.15991211,-0.8335571,0.5634155,1.65625,-0.390625,-0.015625
1664374313356,-0.15698242,-0.85235596,0.545105,1.03125,0.53125,0.125
1664374313403,-0.1652832,-0.82940674,0.5426636,-2.328125,0.21875,-0.34375
1664374313431,-0.15991211,-0.84088135,0.54852295,1.234375,0.140625,-0.265625
1664374313477,-0.15844727,-0.83673096,0.5487671,0.640625,0.484375,0.328125
1664374313505,-0.1574707,-0.8428345,0.5548706,1.65625,0.875,-0.0625
1664374313552,-0.16503906,-0.8401489,0.54681396,-1.09375,0.796875,-0.15625
1664374313595,-0.15893555,-0.8311157,0.5516968,2.078125,0.359375,0.125
1664374313625,-0.16088867,-0.84942627,0.54437256,0.53125,0.359375,0.21875
1664374313673,-0.15698242,-0.8340454,0.55096436,0.09375,0.375,-0.140625
1664374313715,-0.16357422,-0.8423462,0.54803467,1.265625,0.546875,0.046875
1664374313746,-0.15698242,-0.8423462,0.5446167,0.34375,0.359375,0.21875
1664374313791,-0.1586914,-0.8352661,0.5458374,1.625,0.796875,0.0625
1664374313822,-0.16430664,-0.8428345,0.5524292,0.546875,0.671875,0.140625
1664374313865,-0.16040039,-0.84088135,0.54241943,0.9375,0.546875,0.015625
1664374313911,-0.16479492,-0.8401489,0.5541382,0.546875,0.359375,0.015625
1664374313943,-0.15991211,-0.8518677,0.54315186,2.03125,0.59375,0.15625
1664374313986,-0.1616211,-0.8272095,0.55389404,0.046875,1.046875,-0.078125
1664374314032,-0.15332031,-0.85650635,0.5350952,2.78125,1.015625,0.328125
1664374314061,-0.16894531,-0.8389282,0.5397339,-3.109375,0.125,-0.390625
1664374314106,-0.15917969,-0.829895,0.55804443,2.6875,0.046875,0.546875
1664374314155,-0.1616211,-0.86138916,0.5446167,2.109375,1.0,0.546875
1664374314181,-0.16088867,-0.8430786,0.5409546,-3.78125,-0.484375,0.046875
1664374314225,-0.15649414,-0.8423462,0.54559326,-2.5625,-1.078125,-0.140625
1664374314257,-0.16137695,-0.8362427,0.5499878,-0.25,-0.359375,0.359375
1664374314303,-0.15039062,-0.84747314,0.54119873,0.84375,0.0,0.625
1664374314346,-0.15673828,-0.83428955,0.5438843,-1.3125,0.375,0.1875
1664374314376,-0.16064453,-0.8369751,0.55145264,-0.03125,0.15625,0.296875
1664374314423,-0.15673828,-0.84259033,0.5512085,-0.5,-0.09375,0.28125
1664374314466,-0.15405273,-0.8357544,0.55023193,-1.15625,-0.265625,0.046875
1664374314496,-0.15063477,-0.8394165,0.54730225,-0.71875,-0.015625,0.34375
1664374314544,-0.1550293,-0.8362427,0.5512085,0.34375,0.3125,0.296875
1664374314572,-0.15551758,-0.83135986,0.5519409,-0.484375,0.171875,0.125
1664374314615,-0.15283203,-0.83673096,0.55218506,0.359375,0.3125,0.1875
1664374314662,-0.15454102,-0.83306885,0.5504761,-0.796875,-0.1875,-0.0625
1664374314692,-0.15258789,-0.8377075,0.5516968,0.90625,0.171875,0.328125
1664374314736,-0.15551758,-0.8345337,0.5543823,-1.34375,0.390625,-0.671875
1664374314783,-0.15625,-0.83843994,0.5492554,-0.640625,0.125,-0.078125
1664374314813,-0.15673828,-0.8440552,0.5626831,-2.0,-0.21875,-0.640625
1664374314855,-0.1574707,-0.8262329,0.5673218,-0.8125,0.234375,-0.234375
1664374314901,-0.15600586,-0.833313,0.5578003,2.0,0.71875,0.046875
1664374314933,-0.16186523,-0.8323364,0.55682373,-1.0,0.609375,-0.34375
1664374314976,-0.16210938,-0.8279419,0.56414795,-0.25,0.03125,-0.5
1664374315022,-0.16381836,-0.8279419,0.56536865,0.640625,0.328125,-0.109375
1664374315055,-0.15161133,-0.82940674,0.55926514,1.78125,0.84375,-0.140625
1664374315095,-0.16137695,-0.8303833,0.55682373,-0.609375,0.671875,-0.171875
1664374315126,-0.16040039,-0.8267212,0.56073,0.15625,0.5,-0.3125
1664374315172,-0.15893555,-0.8308716,0.559021,1.625,0.53125,-0.03125
1664374315217,-0.16186523,-0.83721924,0.56048584,0.328125,0.625,-0.40625
1664374315247,-0.15722656,-0.8296509,0.56121826,0.71875,0.4375,-0.21875
1664374315293,-0.15771484,-0.83551025,0.5560913,1.015625,0.5,-0.296875
1664374315323,-0.15356445,-0.8320923,0.5570679,1.046875,0.6875,-0.125
1664374315367,-0.15136719,-0.83428955,0.557312,1.40625,0.875,-0.140625
1664374315411,-0.15698242,-0.83599854,0.5529175,0.234375,0.484375,-0.21875
1664374315442,-0.16308594,-0.83428955,0.55999756,1.046875,0.828125,-0.296875
1664374315488,-0.15307617,-0.831604,0.56463623,-0.171875,0.40625,-0.3125
1664374315534,-0.16235352,-0.8311157,0.5560913,1.421875,0.984375,0.03125
1664374315562,-0.14990234,-0.84210205,0.55218506,-1.921875,-0.046875,-1.109375
1664374315607,-0.16674805,-0.8196411,0.56829834,-1.75,-0.140625,-0.34375
1664374315681,-0.15771484,-0.8345337,0.56951904,3.78125,0.765625,0.21875
1664374315685,-0.15966797,-0.83599854,0.5543823,-0.28125,0.390625,-0.125
1664374315726,-0.15600586,-0.8286743,0.56365967,-0.4375,0.28125,-0.46875
1664374315756,-0.16137695,-0.8352661,0.5626831,0.109375,0.390625,-0.375
1664374315801,-0.16601562,-0.8362427,0.5656128,1.4375,0.609375,0.25
1664374315847,-0.15942383,-0.83673096,0.5553589,0.421875,0.328125,-0.140625
1664374315875,-0.16235352,-0.8267212,0.5639038,-0.859375,0.421875,-0.296875
1664374315921,-0.16381836,-0.83013916,0.55926514,1.828125,0.671875,-0.203125
1664374315965,-0.15258789,-0.8335571,0.5585327,-1.109375,0.046875,-0.0625
1664374315997,-0.15429688,-0.8274536,0.5639038,1.25,1.15625,-0.203125
1664374316042,-0.16918945,-0.84088135,0.55682373,4.9375,1.234375,0.375
1664374316073,-0.15307617,-0.835022,0.5541382,0.96875,0.90625,0.21875
1664374316117,-0.15771484,-0.83135986,0.5531616,1.5625,0.65625,-0.015625
1664374316163,-0.16113281,-0.8418579,0.5524292,0.015625,0.28125,0.09375
1664374316192,-0.16015625,-0.8352661,0.5548706,1.0625,0.4375,0.015625
1664374316235,-0.15698242,-0.84259033,0.55462646,-1.265625,-0.484375,-0.25
1664374316281,-0.15722656,-0.83477783,0.5626831,0.328125,0.5625,0.03125
1664374316311,-0.14892578,-0.85040283,0.545105,-0.6875,-0.0625,-0.3125
1664374316355,-0.16772461,-0.82818604,0.55755615,-3.3125,-0.3125,-0.609375
1664374316402,-0.16186523,-0.8262329,0.5687866,2.578125,-0.109375,0.265625
1664374316432,-0.15820312,-0.8413696,0.5536499,0.078125,0.453125,-0.078125
1664374316476,-0.16333008,-0.8274536,0.55999756,-1.390625,0.265625,-0.453125
1664374316505,-0.16015625,-0.83599854,0.555603,-0.125,-0.1875,-0.203125
1664374316552,-0.16455078,-0.8284302,0.56121826,1.0,0.390625,0.265625
1664374316597,-0.15893555,-0.84454346,0.5553589,2.390625,0.875,0.171875
1664374316625,-0.15966797,-0.8255005,0.5639038,-0.3125,0.71875,0.078125
1664374316671,-0.16235352,-0.8374634,0.55511475,2.21875,0.375,0.15625
1664374316715,-0.15942383,-0.84332275,0.55755615,-0.453125,0.171875,0.125
1664374316745,-0.16479492,-0.8340454,0.56585693,1.578125,0.484375,0.109375
1664374316791,-0.16210938,-0.8413696,0.56170654,1.5,0.3125,0.265625
1664374316823,-0.15844727,-0.83721924,0.55145264,1.21875,0.5,0.09375
1664374316865,-0.15405273,-0.8386841,0.55218506,0.46875,0.0,0.453125
1664374316912,-0.1586914,-0.84088135,0.5529175,-0.515625,0.15625,0.1875
1664374316942,-0.1665039,-0.83013916,0.5582886,-0.1875,-0.125,0.0625
1664374316986,-0.14941406,-0.84210205,0.5595093,0.3125,0.1875,0.21875
1664374317031,-0.15820312,-0.83843994,0.5643921,-0.796875,0.03125,-0.1875
1664374317064,-0.15209961,-0.8386841,0.54559326,0.703125,0.640625,0.34375
1664374317107,-0.15551758,-0.8364868,0.557312,-2.75,-0.375,-0.5625
1664374317152,-0.16235352,-0.82403564,0.57025146,-0.796875,-0.453125,0.21875
1664374317183,-0.1574707,-0.83380127,0.5697632,2.359375,0.828125,0.234375
1664374317228,-0.16015625,-0.83721924,0.5529175,0.203125,0.8125,0.515625
1664374317256,-0.15625,-0.82598877,0.55926514,-1.15625,-0.578125,-0.015625
1664374317302,-0.15600586,-0.83013916,0.55804443,0.078125,-0.109375,0.140625
1664374317346,-0.15307617,-0.8369751,0.55877686,0.875,0.171875,0.546875
1664374317376,-0.15234375,-0.83477783,0.5541382,0.171875,0.5,0.375
1664374317424,-0.15576172,-0.831604,0.5582886,-0.125,0.203125,-0.015625
1664374317466,-0.15112305,-0.8394165,0.559021,0.84375,0.109375,0.203125
1664374317495,-0.14794922,-0.83306885,0.5560913,0.15625,0.125,0.234375
1664374317555,-0.14477539,-0.835022,0.5543823,-0.0625,-0.296875,0.109375
1664374317572,-0.14672852,-0.8377075,0.5531616,-0.234375,0.03125,-0.09375
1664374317614,-0.15234375,-0.83013916,0.557312,-0.25,0.203125,-0.046875
1664374317663,-0.15942383,-0.8279419,0.55682373,-0.3125,0.40625,-0.015625
1664374317693,-0.15942383,-0.83306885,0.5675659,-1.46875,-0.171875,-0.21875
1664374317737,-0.14550781,-0.8364868,0.56365967,0.34375,-0.28125,-0.015625
1664374317782,-0.15991211,-0.8206177,0.5631714,-1.9375,0.5625,-0.6875
1664374317813,-0.14990234,-0.83258057,0.5595093,-0.421875,-0.203125,-0.34375
1664374317855,-0.16235352,-0.8311157,0.5704956,-2.171875,-0.328125,-0.40625
1664374317902,-0.15527344,-0.8179321,0.57366943,0.171875,0.46875,-0.25
1664374317933,-0.1538086,-0.8286743,0.56903076,2.4375,1.015625,-0.015625
1664374317976,-0.16064453,-0.82354736,0.57147217,-0.765625,0.765625,-0.078125
1664374318005,-0.16479492,-0.829895,0.57073975,-0.578125,-0.109375,-0.53125
1664374318051,-0.15478516,-0.82940674,0.5668335,1.296875,0.453125,-0.046875
1664374318096,-0.14868164,-0.82940674,0.5643921,1.609375,0.828125,-0.21875
1664374318126,-0.15625,-0.83135986,0.56463623,-0.3125,0.859375,-0.5
1664374318171,-0.16015625,-0.8233032,0.57025146,1.375,0.875,-0.34375
1664374318218,-0.15551758,-0.829895,0.5663452,1.53125,0.703125,-0.03125
1664374318245,-0.15917969,-0.82696533,0.572937,1.15625,0.875,-0.359375
1664374318292,-0.14941406,-0.8364868,0.5687866,1.21875,0.640625,-0.359375
1664374318321,-0.1472168,-0.83428955,0.56243896,0.96875,0.4375,-0.296875
1664374318367,-0.15625,-0.82940674,0.571228,1.703125,0.71875,-0.25
1664374318413,-0.16210938,-0.83306885,0.5614624,1.75,0.859375,-0.15625
1664374318442,-0.15307617,-0.8340454,0.56121826,0.453125,0.203125,-0.34375
1664374318487,-0.16064453,-0.82403564,0.55999756,0.8125,0.609375,-0.421875
1664374318532,-0.15771484,-0.84088135,0.56781006,0.5,0.1875,-0.484375
1664374318562,-0.16064453,-0.8220825,0.5634155,1.765625,1.078125,0.109375
1664374318607,-0.14355469,-0.84088135,0.5543823,-1.046875,-0.078125,-0.921875
1664374318651,-0.1640625,-0.82598877,0.5614624,-3.546875,-0.5625,-0.546875
1664374318682,-0.15307617,-0.8257446,0.57977295,4.171875,0.53125,0.21875
1664374318727,-0.15991211,-0.8335571,0.5570679,1.328125,0.578125,0.09375
1664374318756,-0.1586914,-0.82598877,0.5614624,-0.5625,0.359375,-0.296875
1664374318832,-0.15771484,-0.83917236,0.56073,-0.140625,-0.0625,-0.578125
1664374318847,-0.15942383,-0.829895,0.5668335,0.65625,0.53125,-0.015625
1664374318875,-0.15356445,-0.8394165,0.559021,2.078125,0.734375,-0.109375
1664374318922,-0.16699219,-0.829895,0.5643921,-0.703125,0.46875,-0.390625
1664374318966,-0.15209961,-0.835022,0.55877686,1.203125,0.59375,-0.046875
1664374318996,-0.15649414,-0.83013916,0.5609741,0.53125,0.375,-0.109375
1664374319042,-0.16113281,-0.8335571,0.5661011,0.4375,0.046875,-0.03125
1664374319072,-0.15942383,-0.8377075,0.5553589,0.453125,0.359375,0.046875
1664374319117,-0.15625,-0.83013916,0.55340576,0.421875,0.28125,-0.09375
1664374319161,-0.15966797,-0.8340454,0.56073,1.125,0.5625,0.0625
1664374319192,-0.16577148,-0.83917236,0.56463623,0.640625,0.546875,-0.03125
1664374319237,-0.15698242,-0.8323364,0.5619507,0.140625,0.015625,0.28125
1664374319283,-0.15917969,-0.8386841,0.5582886,1.953125,0.65625,-0.109375
1664374319311,-0.15527344,-0.8308716,0.5656128,-0.953125,0.375,-0.375
1664374319355,-0.15258789,-0.8435669,0.5487671,3.484375,1.078125,0.546875
1664374319401,-0.14916992,-0.84503174,0.54437256,-2.515625,-0.109375,-0.9375
1664374319431,-0.17041016,-0.81378174,0.5668335,0.265625,-0.171875,0.140625
1664374319478,-0.1508789,-0.8467407,0.5634155,4.671875,1.0,0.515625
1664374319506,-0.15673828,-0.83428955,0.555603,-2.09375,0.546875,-0.015625
1664374319551,-0.15942383,-0.84039307,0.557312,1.4375,0.515625,-0.078125
1664374319595,-0.15942383,-0.8423462,0.5536499,0.53125,0.21875,0.234375
1664374319627,-0.15356445,-0.835022,0.5578003,1.765625,0.4375,0.421875
1664374319670,-0.15356445,-0.84210205,0.5499878,-0.078125,-0.09375,0.328125
1664374319715,-0.1550293,-0.8242798,0.5553589,-0.25,0.5625,0.0625
1664374319746,-0.16088867,-0.8369751,0.5541382,2.34375,1.234375,0.03125
1664374319792,-0.1496582,-0.8418579,0.55755615,1.546875,1.109375,0.484375
1664374319820,-0.15478516,-0.8401489,0.55340576,1.296875,0.53125,0.390625
1664374319866,-0.15209961,-0.8435669,0.55145264,0.390625,0.171875,0.171875
1664374319911,-0.15332031,-0.8357544,0.5507202,0.171875,0.28125,0.09375
1664374319942,-0.15673828,-0.84210205,0.55023193,0.515625,0.3125,0.21875
1664374319985,-0.15283203,-0.8435669,0.54486084,-0.515625,-0.109375,-0.015625
1664374320030,-0.15429688,-0.8362427,0.5499878,-0.953125,-0.265625,0.125
1664374320059,-0.14624023,-0.8411255,0.54681396,0.59375,-0.09375,0.078125
1664374320122,-0.15625,-0.8311157,0.55096436,-1.015625,0.375,-0.296875
1664374320152,-0.15063477,-0.8435669,0.5372925,-0.015625,0.296875,-0.1875
1664374320182,-0.16210938,-0.83551025,0.55340576,-4.421875,-0.734375,-0.734375
1664374320228,-0.1640625,-0.82354736,0.56463623,0.609375,-0.28125,-0.1875
1664374320257,-0.15576172,-0.8452759,0.56121826,1.28125,0.5,-0.046875
1664374320302,-0.15991211,-0.82598877,0.55926514,-2.140625,0.15625,-0.4375
1664374320355,-0.15625,-0.8357544,0.56243896,-0.78125,-0.40625,-0.515625
1664374320377,-0.15600586,-0.8274536,0.56585693,0.21875,0.15625,-0.09375
1664374320420,-0.15209961,-0.83477783,0.5639038,1.484375,0.59375,0.0
1664374320465,-0.15649414,-0.8311157,0.56048584,-1.25,0.53125,-0.4375
1664374320495,-0.1640625,-0.8245239,0.5709839,0.375,0.578125,-0.328125
1664374320540,-0.15356445,-0.83135986,0.5631714,1.1875,0.703125,-0.015625
1664374320573,-0.15478516,-0.8335571,0.5614624,-0.09375,0.46875,-0.234375
1664374320615,-0.16357422,-0.8323364,0.56243896,0.515625,0.609375,-0.296875
1664374320661,-0.15356445,-0.8369751,0.55877686,0.421875,0.46875,-0.0625
1664374320693,-0.15454102,-0.8308716,0.5675659,0.34375,0.484375,-0.125
1664374320737,-0.15600586,-0.8320923,0.56414795,0.640625,0.78125,0.046875
1664374320780,-0.15551758,-0.83477783,0.55804443,0.15625,0.5,-0.078125
1664374320810,-0.15991211,-0.8296509,0.56048584,-0.703125,0.140625,0.078125
1664374320855,-0.15429688,-0.84210205,0.5565796,0.265625,-0.203125,-0.0625
1664374320902,-0.16113281,-0.81988525,0.57196045,0.1875,0.59375,-0.03125
1664374320932,-0.15039062,-0.8452759,0.5578003,0.984375,0.546875,0.046875
1664374320976,-0.16015625,-0.8303833,0.55340576,-4.09375,-0.59375,-0.875
1664374321054,-0.16137695,-0.8123169,0.57977295,1.640625,-0.109375,0.0625
1664374321057,-0.15820312,-0.8308716,0.5668335,2.109375,0.796875,0.125
1664374321096,-0.1628418,-0.8237915,0.56585693,-1.609375,0.796875,-0.359375
1664374321126,-0.1616211,-0.83551025,0.5656128,-0.109375,0.34375,-0.578125
1664374321172,-0.15991211,-0.82769775,0.57366943,0.90625,0.484375,0.234375
1664374321215,-0.1538086,-0.82769775,0.5663452,2.0625,0.9375,-0.046875
1664374321247,-0.16552734,-0.8284302,0.5634155,-0.6875,0.40625,-0.1875
1664374321291,-0.15917969,-0.82696533,0.5692749,1.046875,0.484375,-0.21875
1664374321321,-0.16113281,-0.82818604,0.55999756,1.453125,0.75,-0.03125
1664374321396,-0.1586914,-0.82891846,0.5700073,0.53125,0.234375,0.0
1664374321411,-0.15698242,-0.8303833,0.5663452,1.453125,0.609375,-0.015625
1664374321442,-0.16113281,-0.83721924,0.56292725,1.53125,0.59375,0.28125
1664374321485,-0.16137695,-0.82696533,0.56658936,1.1875,0.59375,0.484375
1664374321533,-0.16137695,-0.8279419,0.5651245,1.484375,0.65625,0.0625
1664374321562,-0.16235352,-0.83135986,0.557312,1.328125,0.078125,0.5625
1664374321606,-0.15966797,-0.835022,0.56170654,0.421875,0.421875,0.0625
1664374321653,-0.1508789,-0.8423462,0.5578003,0.265625,-0.390625,0.09375
1664374321683,-0.16040039,-0.8308716,0.56048584,1.125,0.828125,0.5625
1664374321726,-0.14453125,-0.84820557,0.5519409,-1.59375,-0.46875,-0.59375
1664374321754,-0.16235352,-0.82232666,0.56536865,-2.78125,-0.625,-0.09375
1664374321802,-0.14819336,-0.8311157,0.56829834,3.265625,0.640625,0.5625
1664374321846,-0.14575195,-0.8340454,0.55755615,0.484375,0.65625,0.375
1664374321875,-0.15551758,-0.8381958,0.5609741,-1.03125,-0.09375,-0.078125
1664374321923,-0.15942383,-0.8320923,0.5680542,0.421875,-0.03125,0.109375
1664374321966,-0.1508789,-0.8430786,0.55877686,1.515625,-0.078125,0.9375
1664374321996,-0.15185547,-0.8320923,0.55462646,0.078125,0.078125,0.265625
1664374322042,-0.16113281,-0.8267212,0.55584717,0.09375,0.40625,0.359375
1664374322071,-0.1496582,-0.83966064,0.56073,0.921875,0.15625,0.203125
1664374322115,-0.14819336,-0.8352661,0.557312,0.109375,0.296875,0.078125
1664374322163,-0.15527344,-0.8335571,0.5631714,-0.0625,-0.296875,0.03125
1664374322192,-0.14624023,-0.8374634,0.5619507,0.71875,0.25,0.234375
1664374322236,-0.15136719,-0.83013916,0.5560913,0.5625,0.328125,0.140625
1664374322281,-0.15039062,-0.835022,0.5570679,-0.03125,0.3125,0.015625
1664374322312,-0.15234375,-0.829895,0.55218506,-0.390625,-0.078125,0.015625
1664374322356,-0.13842773,-0.8399048,0.5565796,0.75,0.046875,0.234375
1664374322402,-0.15698242,-0.8323364,0.56414795,-1.84375,0.4375,-0.609375
1664374322432,-0.1496582,-0.8413696,0.5585327,-0.28125,-0.1875,-0.21875
1664374322476,-0.15576172,-0.82891846,0.5651245,-2.859375,-0.46875,-0.71875
1664374322506,-0.1538086,-0.81866455,0.57318115,-0.46875,-0.15625,-0.234375
1664374322550,-0.14819336,-0.8274536,0.56585693,0.921875,0.5,-0.03125
1664374322597,-0.15942383,-0.8255005,0.57073975,-0.46875,0.53125,-0.359375
1664374322625,-0.15258789,-0.8284302,0.572937,-1.5625,-0.34375,-0.546875
1664374322670,-0.15942383,-0.8262329,0.5717163,0.8125,0.171875,-0.046875
1664374322716,-0.15673828,-0.8242798,0.57489014,0.875,0.59375,-0.15625
1664374322747,-0.15917969,-0.82525635,0.56585693,-0.53125,0.53125,-0.296875
1664374322792,-0.15625,-0.8303833,0.5783081,0.28125,0.375,-0.046875
1664374322822,-0.15625,-0.83062744,0.56951904,0.359375,0.453125,-0.25
1664374322866,-0.15429688,-0.8208618,0.5697632,-0.125,0.140625,-0.125
1664374322911,-0.1550293,-0.8286743,0.57147217,1.140625,0.5625,-0.21875
1664374322941,-0.15820312,-0.829895,0.57318115,0.84375,0.515625,-0.046875
1664374322986,-0.15332031,-0.8296509,0.5709839,0.15625,0.453125,-0.1875
1664374323031,-0.15454102,-0.8257446,0.5668335,0.640625,0.609375,-0.171875
1664374323063,-0.16210938,-0.82354736,0.5680542,0.703125,0.46875,-0.140625
1664374323105,-0.15649414,-0.83428955,0.56951904,-0.15625,0.0625,-0.46875
1664374323152,-0.15551758,-0.8267212,0.5734253,1.65625,1.046875,-0.0625
1664374323183,-0.14624023,-0.8345337,0.56829834,-1.03125,0.203125,-1.0625
1664374323226,-0.17163086,-0.8135376,0.5753784,-2.171875,-0.109375,-0.59375
1664374323255,-0.15795898,-0.81988525,0.5819702,3.671875,0.90625,0.265625
1664374323302,-0.16040039,-0.83428955,0.5656128,2.0625,0.71875,0.171875
1664374323346,-0.16186523,-0.8245239,0.56903076,-1.34375,-0.015625,-0.21875
1664374323376,-0.1628418,-0.82281494,0.5680542,-2.125,-1.0625,-0.4375
1664374323422,-0.1586914,-0.8184204,0.5783081,0.375,-0.546875,0.234375
1664374323465,-0.15600586,-0.8389282,0.5675659,0.921875,-0.109375,-0.125
1664374323495,-0.1652832,-0.81427,0.5717163,0.0625,0.734375,-0.34375
1664374323542,-0.16357422,-0.82940674,0.5734253,2.15625,0.21875,0.09375
1664374323572,-0.1574707,-0.8296509,0.572937,-0.21875,0.5,-0.109375
1664374323615,-0.15527344,-0.8272095,0.5741577,1.265625,0.734375,-0.328125
1664374323664,-0.16455078,-0.82818604,0.57196045,0.53125,0.96875,-0.28125
1664374323692,-0.15893555,-0.8274536,0.56903076,0.96875,0.703125,-0.078125
1664374323736,-0.1616211,-0.82354736,0.5700073,1.546875,0.8125,-0.03125
1664374323782,-0.16674805,-0.8167114,0.5778198,1.75,1.09375,0.125
1664374323812,-0.15795898,-0.8362427,0.56829834,1.59375,0.34375,0.046875
1664374323856,-0.15771484,-0.81866455,0.5739136,0.84375,1.234375,0.078125
1664374323902,-0.15283203,-0.8406372,0.55999756,2.515625,1.0,0.125
1664374323932,-0.16748047,-0.8352661,0.5631714,-2.75,0.09375,-0.453125
1664374323975,-0.1616211,-0.8147583,0.5795288,2.640625,-0.09375,0.953125
1664374324006,-0.1574707,-0.84625244,0.559021,1.96875,0.171875,0.59375
1664374324051,-0.15576172,-0.82769775,0.5609741,-1.390625,-0.09375,0.078125
1664374324096,-0.16064453,-0.83380127,0.559021,-0.296875,-0.25,0.015625
1664374324127,-0.1574707,-0.83135986,0.56829834,0.6875,-0.078125,0.59375
1664374324172,-0.1496582,-0.83843994,0.5663452,2.0625,0.015625,0.671875
1664374324216,-0.1616211,-0.8242798,0.55926514,-0.84375,0.0625,0.15625
1664374324246,-0.1538086,-0.8286743,0.5673218,-0.46875,-0.703125,0.140625
1664374324291,-0.15917969,-0.83795166,0.5639038,-0.90625,-0.546875,0.03125
1664374324322,-0.1574707,-0.8225708,0.56536865,0.078125,-0.296875,0.21875
1664374324367,-0.15966797,-0.8377075,0.55999756,0.609375,-0.046875,0.3125
1664374324413,-0.15307617,-0.8267212,0.5621948,0.6875,0.15625,0.609375
1664374324443,-0.15722656,-0.83258057,0.56414795,1.4375,0.453125,0.1875
1664374324488,-0.15722656,-0.83062744,0.56658936,-0.15625,0.328125,0.359375
1664374324531,-0.15136719,-0.8369751,0.56292725,-0.015625,0.015625,0.359375
1664374324562,-0.15551758,-0.82940674,0.5648804,-0.953125,0.578125,-0.03125
1664374324607,-0.14428711,-0.84161377,0.55755615,-2.3125,-0.34375,-0.078125
1664374324635,-0.16992188,-0.82281494,0.5692749,-2.640625,-0.203125,-0.0625
1664374324681,-0.15234375,-0.8225708,0.5739136,-0.25,0.109375,0.3125
1664374324727,-0.14697266,-0.82232666,0.5634155,0.84375,0.234375,0.140625
1664374324756,-0.1586914,-0.8208618,0.56829834,-0.03125,0.03125,-0.21875
1664374324801,-0.15478516,-0.8242798,0.57196045,-0.71875,-0.34375,-0.015625
1664374324847,-0.15527344,-0.8267212,0.56414795,1.34375,0.25,0.234375
1664374324875,-0.14404297,-0.82818604,0.5639038,0.515625,0.46875,-0.09375
1664374324922,-0.15356445,-0.82769775,0.5722046,-0.84375,0.5,-0.453125
1664374324968,-0.15478516,-0.82281494,0.57440186,0.703125,0.28125,0.0
1664374324995,-0.15844727,-0.8311157,0.57147217,0.921875,0.40625,-0.171875
1664374325042,-0.15722656,-0.8184204,0.57025146,-0.734375,0.0,-0.34375
1664374325072,-0.1574707,-0.8242798,0.57440186,0.15625,0.34375,-0.21875
1664374325119,-0.14916992,-0.82818604,0.5722046,0.0,0.40625,-0.296875
1664374325162,-0.15356445,-0.82476807,0.576355,-0.765625,0.421875,-0.03125
1664374325192,-0.16430664,-0.8208618,0.5783081,0.84375,0.28125,-0.09375
1664374325236,-0.14990234,-0.8242798,0.5775757,-0.90625,-0.109375,-0.484375
1664374325283,-0.16040039,-0.82110596,0.57025146,-0.3125,0.640625,-0.28125
1664374325311,-0.15600586,-0.83062744,0.5778198,-0.5625,-0.015625,-0.90625
1664374325355,-0.1640625,-0.815979,0.58465576,-1.59375,0.234375,-0.328125
1664374325385,-0.15234375,-0.8179321,0.57928467,2.265625,0.8125,0.0
1664374325431,-0.16186523,-0.8255005,0.5734253,0.578125,0.859375,-0.203125
1664374325476,-0.15258789,-0.8220825,0.57562256,-0.9375,0.28125,-0.5625
1664374325506,-0.16015625,-0.82159424,0.5883179,0.71875,0.453125,-0.40625
1664374325552,-0.15307617,-0.8257446,0.588562,2.28125,0.953125,-0.046875
1664374325597,-0.15332031,-0.8220825,0.576355,-1.125,0.453125,-0.4375
1664374325626,-0.16552734,-0.81427,0.5836792,1.03125,1.078125,-0.671875
1664374325673,-0.15771484,-0.8237915,0.576355,1.546875,0.40625,-0.0625
1664374325716,-0.1586914,-0.815979,0.5795288,0.734375,0.859375,-0.46875
1664374325747,-0.15722656,-0.82940674,0.5758667,1.0625,0.53125,-0.421875
1664374325791,-0.16137695,-0.8279419,0.57855225,0.53125,0.625,-0.34375
1664374325823,-0.15722656,-0.8255005,0.57806396,1.65625,0.453125,-0.359375
1664374325865,-0.16235352,-0.8196411,0.574646,1.3125,0.75,-0.0625
1664374325913,-0.16748047,-0.817688,0.5751343,1.609375,0.875,-0.375
1664374325943,-0.15625,-0.82940674,0.5717163,0.484375,-0.09375,-0.171875
1664374325986,-0.15991211,-0.817688,0.57806396,0.484375,0.671875,-0.046875
1664374326032,-0.14868164,-0.84039307,0.5643921,-0.015625,0.21875,-0.859375
1664374326063,-0.17041016,-0.81378174,0.5709839,-3.859375,-0.453125,-0.78125
1664374326105,-0.16210938,-0.81915283,0.58807373,3.578125,0.546875,0.25
1664374326135,-0.16381836,-0.8245239,0.57244873,1.3125,0.609375,0.3125
1664374326183,-0.17163086,-0.82281494,0.5775757,-0.90625,0.453125,-0.3125
1664374326226,-0.16186523,-0.82476807,0.5795288,-0.015625,-0.4375,-0.453125
1664374326255,-0.16845703,-0.82354736,0.57318115,1.0625,0.296875,0.40625
1664374326302,-0.15283203,-0.82525635,0.5673218,1.578125,0.71875,-0.25
1664374326346,-0.1640625,-0.8196411,0.5770874,-1.171875,0.546875,-0.125
1664374326377,-0.15844727,-0.8230591,0.576355,1.765625,0.78125,-0.015625
1664374326423,-0.15966797,-0.82476807,0.57196045,-0.03125,0.109375,0.0
1664374326465,-0.16088867,-0.8242798,0.5685425,-0.28125,0.15625,-0.171875
1664374326496,-0.1550293,-0.8255005,0.5700073,-0.9375,-0.171875,-0.15625
1664374326541,-0.15429688,-0.8250122,0.5675659,-0.53125,0.484375,-0.515625
1664374326571,-0.15942383,-0.81817627,0.5807495,-0.296875,0.359375,-0.171875
1664374326616,-0.16186523,-0.8167114,0.58636475,-0.140625,0.671875,-0.21875
1664374326663,-0.15698242,-0.8286743,0.57489014,0.5,-0.046875,-0.0625
1664374326693,-0.16186523,-0.80474854,0.59002686,1.125,1.109375,0.1875
1664374326735,-0.15576172,-0.829895,0.57244873,1.0,0.625,-0.140625
1664374326782,-0.16577148,-0.8167114,0.57366943,-3.453125,-0.125,-0.4375
1664374326812,-0.16381836,-0.80792236,0.5951538,4.796875,0.671875,0.5625
1664374326856,-0.1586914,-0.835022,0.5685425,1.265625,0.65625,0.3125
1664374326886,-0.15795898,-0.81622314,0.576355,-0.65625,0.8125,-0.015625
1664374326933,-0.16113281,-0.8242798,0.5692749,2.109375,0.265625,0.3125
1664374326976,-0.15771484,-0.82232666,0.57196045,0.6875,0.46875,0.8125
1664374327007,-0.15258789,-0.82769775,0.5700073,1.015625,0.375,0.15625
1664374327054,-0.16064453,-0.817688,0.5770874,-0.734375,0.484375,0.171875
1664374327096,-0.1574707,-0.8164673,0.5751343,1.265625,0.5625,0.375
1664374327127,-0.15673828,-0.8323364,0.5700073,0.125,0.0,0.3125
1664374327173,-0.15844727,-0.8255005,0.571228,-0.140625,0.109375,0.125
1664374327216,-0.1508789,-0.82769775,0.5680542,0.0,0.09375,0.3125
1664374327246,-0.15966797,-0.83013916,0.5726929,-0.484375,0.078125,0.15625
1664374327292,-0.15112305,-0.8267212,0.5717163,0.890625,0.34375,0.359375
1664374327322,-0.16040039,-0.8233032,0.572937,0.625,0.78125,0.15625
1664374327365,-0.16455078,-0.8250122,0.57318115,-0.34375,-0.109375,0.21875
1664374327413,-0.14916992,-0.8340454,0.571228,0.84375,0.59375,0.5
1664374327442,-0.15356445,-0.82037354,0.5805054,-0.671875,0.40625,-0.21875
1664374327486,-0.14135742,-0.8345337,0.56073,0.203125,0.515625,0.09375
1664374327532,-0.1574707,-0.82110596,0.57318115,-2.796875,-0.484375,-0.375
1664374327575,-0.15917969,-0.81500244,0.5910034,0.484375,0.140625,0.046875
1664374327606,-0.1508789,-0.8308716,0.5753784,2.265625,0.828125,0.296875
1664374327635,-0.15625,-0.8225708,0.5675659,-2.0,-0.09375,-0.0625
1664374327682,-0.1496582,-0.8237915,0.5717163,-1.015625,-0.328125,-0.171875
1664374327726,-0.15649414,-0.82354736,0.57928467,1.125,0.46875,0.09375
1664374327756,-0.14819336,-0.82598877,0.5722046,0.78125,0.71875,0.203125
1664374327802,-0.16601562,-0.82159424,0.5734253,-1.328125,0.5,-0.34375
1664374327846,-0.15307617,-0.8206177,0.58221436,0.328125,0.1875,-0.203125
1664374327876,-0.15454102,-0.8257446,0.58026123,-0.484375,-0.015625,-0.171875
1664374327922,-0.15625,-0.8140259,0.5824585,-0.546875,0.21875,-0.5
1664374327965,-0.15551758,-0.82354736,0.586853,-0.703125,0.015625,-0.109375
1664374327995,-0.14892578,-0.8201294,0.5831909,0.140625,0.234375,-0.09375
1664374328041,-0.15966797,-0.819397,0.5824585,0.15625,0.359375,-0.171875
1664374328070,-0.15209961,-0.8213501,0.5787964,-0.109375,0.0625,-0.0625
1664374328116,-0.15478516,-0.8115845,0.59295654,0.234375,0.46875,-0.265625
1664374328162,-0.15136719,-0.81695557,0.5861206,-0.390625,-0.234375,-0.34375
1664374328191,-0.16137695,-0.8086548,0.5853882,0.125,0.71875,-0.34375
1664374328235,-0.15356445,-0.82598877,0.5807495,-0.765625,-0.140625,-0.859375
1664374328281,-0.16357422,-0.80963135,0.57928467,-2.625,-0.359375,-0.46875
1664374328310,-0.16015625,-0.80718994,0.5961304,3.296875,1.0625,-0.328125
1664374328354,-0.16040039,-0.8213501,0.5787964,1.96875,0.859375,-0.0625
1664374328386,-0.1586914,-0.8123169,0.5844116,-0.515625,0.3125,-0.546875
1664374328432,-0.15820312,-0.8164673,0.586853,0.8125,0.25,-0.453125
1664374328475,-0.16894531,-0.8140259,0.588562,1.78125,0.546875,0.046875
1664374328505,-0.14990234,-0.8279419,0.5726929,1.609375,0.328125,-0.140625
1664374328552,-0.16821289,-0.81329346,0.58587646,-1.171875,0.734375,-0.71875
1664374328596,-0.16308594,-0.82281494,0.5866089,1.65625,0.640625,-0.09375
1664374328626,-0.15893555,-0.81378174,0.5805054,0.171875,0.125,0.0625
1664374328671,-0.16015625,-0.81915283,0.5910034,1.125,1.046875,-0.28125
1664374328749,-0.15649414,-0.8225708,0.58148193,0.4375,0.65625,-0.09375
1664374328751,-0.1628418,-0.815979,0.5829468,0.375,0.609375,-0.1875
1664374328792,-0.1586914,-0.8206177,0.58587646,0.96875,0.4375,0.109375
1664374328823,-0.1652832,-0.82159424,0.5844116,1.359375,0.640625,-0.046875
1664374328868,-0.15600586,-0.8233032,0.5770874,0.265625,0.375,-0.140625
1664374328911,-0.16210938,-0.81451416,0.5883179,0.03125,0.265625,-0.25
1664374328942,-0.15551758,-0.82110596,0.5778198,0.703125,-0.375,-0.03125
1664374328988,-0.16455078,-0.8088989,0.5883179,0.625,0.78125,0.03125
1664374329031,-0.15307617,-0.8286743,0.57611084,1.21875,0.734375,-0.484375
1664374329062,-0.17260742,-0.81695557,0.5878296,-3.609375,-0.59375,-0.546875
1664374329105,-0.16040039,-0.8076782,0.5944214,4.15625,0.265625,0.4375
1664374329139,-0.16186523,-0.82940674,0.57855225,1.296875,0.75,0.234375
1664374329182,-0.15795898,-0.81207275,0.588562,-0.78125,0.71875,-0.296875
1664374329227,-0.16064453,-0.8245239,0.5795288,1.484375,0.265625,0.234375
1664374329256,-0.16894531,-0.8225708,0.5751343,1.953125,0.84375,0.5
1664374329304,-0.14892578,-0.8218384,0.5765991,2.09375,0.375,0.515625
1664374329361,-0.16186523,-0.81695557,0.5751343,-1.09375,0.234375,-0.015625
1664374329375,-0.16259766,-0.8237915,0.5807495,0.28125,-0.03125,0.125
1664374329422,-0.15429688,-0.8262329,0.5758667,-0.421875,0.0625,0.265625
1664374329496,-0.15478516,-0.82647705,0.5758667,0.203125,0.484375,0.15625
1664374329500,-0.1538086,-0.82696533,0.5717163,0.078125,0.03125,0.109375
1664374329544,-0.15112305,-0.8237915,0.57733154,-0.0625,0.21875,0.171875
1664374329571,-0.15722656,-0.82037354,0.57684326,1.84375,0.640625,0.359375
1664374329615,-0.15356445,-0.8208618,0.5739136,-0.453125,0.1875,0.28125
1664374329661,-0.15356445,-0.8250122,0.57147217,-0.734375,-0.5,0.03125
1664374329693,-0.15429688,-0.8267212,0.57733154,0.921875,0.5625,0.125
1664374329736,-0.15673828,-0.8213501,0.58099365,-0.59375,0.171875,0.078125
1664374329782,-0.14672852,-0.8323364,0.5656128,0.59375,0.453125,0.265625
1664374329812,-0.15795898,-0.819397,0.57855225,-2.8125,-0.578125,-0.6875
1664374329855,-0.15405273,-0.8167114,0.58514404,-0.1875,-0.109375,0.0625
1664374329886,-0.14770508,-0.8184204,0.58148193,2.40625,0.875,0.34375
1664374329946,-0.1616211,-0.81915283,0.5709839,-1.015625,0.484375,0.0
1664374329977,-0.15112305,-0.8213501,0.57244873,-1.046875,-0.5625,-0.375
1664374330007,-0.16186523,-0.81256104,0.57855225,0.4375,0.5,0.015625
1664374330052,-0.1508789,-0.8250122,0.58880615,1.109375,0.59375,-0.078125
1664374330096,-0.1550293,-0.82403564,0.5783081,-1.03125,0.15625,-0.015625
1664374330129,-0.16088867,-0.8118286,0.586853,-0.125,0.375,-0.375
1664374330173,-0.15429688,-0.83184814,0.5800171,-0.171875,0.0625,-0.25
1664374330247,-0.15698242,-0.8101196,0.5890503,-0.65625,0.25,-0.328125
1664374330250,-0.16040039,-0.8213501,0.586853,0.21875,0.359375,-0.390625
1664374330292,-0.15332031,-0.81988525,0.58343506,0.078125,0.359375,-0.203125
1664374330322,-0.15820312,-0.815979,0.5848999,1.421875,0.765625,-0.1875
1664374330367,-0.16699219,-0.81866455,0.58514404,0.0625,0.234375,-0.234375
1664374330412,-0.15795898,-0.819397,0.5856323,-0.375,-0.28125,-0.28125
1664374330441,-0.15625,-0.82598877,0.57977295,0.625,0.03125,-0.203125
1664374330487,-0.16308594,-0.81378174,0.59124756,-1.671875,0.625,-0.984375
1664374330532,-0.15454102,-0.81866455,0.5807495,0.484375,3.109375,-1.53125
1664374330562,-0.15673828,-0.82159424,0.5824585,-3.75,1.796875,-1.96875
1664374330607,-0.15673828,-0.7788696,0.5968628,-0.890625,1.203125,-0.75
1664374330636,-0.15795898,-0.81207275,0.60321045,6.59375,1.4375,-0.46875
1664374330682,-0.17651367,-0.8303833,0.5824585,-2.703125,1.765625,-0.421875
1664374330728,-0.15478516,-0.8101196,0.586853,-2.515625,0.546875,-0.46875
1664374330756,-0.15332031,-0.8076782,0.59417725,2.78125,1.28125,-0.140625
1664374330801,-0.16113281,-0.82159424,0.5878296,2.765625,1.78125,-0.03125
1664374330846,-0.15478516,-0.8237915,0.588562,-3.5,0.046875,-1.546875
1664374330876,-0.1730957,-0.8101196,0.5993042,0.609375,0.6875,-0.171875
1664374330921,-0.16308594,-0.8242798,0.5910034,2.453125,0.375,-0.46875
1664374330966,-0.16772461,-0.8045044,0.602478,-0.046875,2.078125,0.46875
1664374330996,-0.14770508,-0.800354,0.5980835,3.40625,1.6875,-0.203125
1664374331041,-0.1315918,-0.8076782,0.5997925,2.15625,1.28125,-0.6875
1664374331071,-0.16333008,-0.8206177,0.5973511,-1.0625,0.578125,-0.203125
1664374331116,-0.1430664,-0.80181885,0.5897827,5.328125,1.125,0.046875
1664374331162,-0.16699219,-0.8340454,0.57196045,4.90625,0.90625,0.84375
1664374331191,-0.16308594,-0.81329346,0.57147217,1.5,-0.734375,-0.21875
1664374331252,-0.15478516,-0.8213501,0.5602417,0.515625,-0.296875,0.546875
1664374331282,-0.18237305,-0.82940674,0.5873413,-0.984375,-0.546875,-0.109375
1664374331312,-0.14672852,-0.8364868,0.57318115,-1.609375,-0.09375,0.140625
1664374331357,-0.1472168,-0.81134033,0.5812378,-0.0625,-0.375,-0.46875
1664374331416,-0.17358398,-0.8206177,0.5927124,3.078125,-0.78125,0.25
1664374331431,-0.17407227,-0.8311157,0.57806396,-1.0625,-0.25,0.71875
1664374331476,-0.15942383,-0.81500244,0.574646,1.453125,-0.140625,0.0
1664374331506,-0.15722656,-0.8284302,0.574646,-0.296875,-0.375,0.09375
1664374331552,-0.15478516,-0.81988525,0.5805054,-0.15625,-0.234375,0.265625
1664374331596,-0.14550781,-0.8230591,0.5800171,1.375,0.1875,0.203125
1664374331627,-0.15673828,-0.8220825,0.57196045,-0.4375,0.4375,0.421875
1664374331686,-0.15673828,-0.81329346,0.58026123,-0.25,0.484375,-0.265625
