# Sensor type: Thingy
# Activity type: Standing
# Activity code: 100
# Subject id: s1912575
# Notes: 
timestamp,accel_x,accel_y,accel_z,gyro_x,gyro_y,gyro_z,mag_x,mag_y,mag_z
1664371687502,-0.9501953,0.31640625,-0.15039062,-0.875,-3.21875,-2.3125,0.0,0.0,0.0
1664371687529,-0.94628906,0.32226562,-0.16015625,0.28125,-3.8125,-3.46875,0.0,0.0,0.0
1664371687560,-0.9423828,0.3173828,-0.17089844,-0.03125,-1.75,-3.28125,-55.0625,26.125,-148.6875
1664371687622,-0.9423828,0.30078125,-0.16699219,0.03125,-0.40625,-0.71875,0.0,0.0,0.0
1664371687651,-0.9472656,0.3125,-0.17285156,1.75,0.15625,0.5,0.0,0.0,0.0
1664371687680,-0.95703125,0.3173828,-0.17871094,-0.15625,1.1875,0.5,0.0,0.0,0.0
1664371687741,-0.95410156,0.3173828,-0.17578125,-1.8125,1.125,0.25,0.0,0.0,0.0
1664371687772,-0.95410156,0.29785156,-0.16308594,-2.96875,1.4375,-0.34375,0.0,0.0,0.0
1664371687800,-0.9501953,0.3017578,-0.16992188,-0.40625,-0.46875,0.75,0.0,0.0,0.0
1664371687860,-0.9472656,0.32128906,-0.16308594,-0.9375,-0.96875,0.5625,0.0,0.0,0.0
1664371687889,-0.94628906,0.32226562,-0.1484375,-1.9375,0.625,-0.46875,0.0,0.0,0.0
1664371687920,-0.94140625,0.30371094,-0.17285156,-1.6875,0.875,-1.15625,0.0,0.0,0.0
1664371687981,-0.9550781,0.2919922,-0.16503906,-1.125,0.75,-0.90625,0.0,0.0,0.0
1664371688009,-0.9511719,0.3046875,-0.15917969,-0.21875,1.53125,-0.25,0.0,0.0,0.0
1664371688039,-0.95996094,0.3251953,-0.18457031,-0.65625,1.96875,0.125,-57.4375,24.5,-148.125
1664371688100,-0.9453125,0.30371094,-0.17773438,-2.21875,0.875,-0.34375,0.0,0.0,0.0
1664371688129,-0.9560547,0.29101562,-0.17382812,-1.9375,-0.21875,-1.40625,0.0,0.0,0.0
1664371688158,-0.9453125,0.28515625,-0.17675781,-0.9375,-0.40625,-1.21875,0.0,0.0,0.0
1664371688219,-0.9550781,0.3076172,-0.16894531,0.15625,-0.71875,-0.0625,0.0,0.0,0.0
1664371688250,-0.9589844,0.30273438,-0.16699219,0.8125,-1.15625,0.0,0.0,0.0,0.0
1664371688278,-0.9472656,0.2998047,-0.16601562,1.0,-1.375,-0.96875,0.0,0.0,0.0
1664371688338,-0.95996094,0.3095703,-0.15039062,0.5,-0.53125,-1.15625,0.0,0.0,0.0
1664371688367,-0.94628906,0.31640625,-0.16503906,-0.34375,-0.78125,-0.1875,0.0,0.0,0.0
1664371688397,-0.95214844,0.29492188,-0.15917969,-0.9375,0.03125,-0.125,0.0,0.0,0.0
1664371688458,-0.94433594,0.31054688,-0.15429688,-0.875,0.15625,0.1875,0.0,0.0,0.0
1664371688488,-0.9472656,0.31347656,-0.17089844,-1.8125,0.3125,-0.0625,0.0,0.0,0.0
1664371688518,-0.94921875,0.3095703,-0.16113281,-1.9375,0.15625,-0.71875,0.0,0.0,0.0
1664371688580,-0.9628906,0.296875,-0.15429688,-1.9375,-0.53125,-0.46875,-56.25,24.1875,-148.875
1664371688612,-0.95214844,0.29589844,-0.16601562,-1.6875,-0.65625,-0.71875,0.0,0.0,0.0
1664371688638,-0.9638672,0.296875,-0.15625,-0.875,-0.59375,-0.84375,0.0,0.0,0.0
1664371688699,-0.9580078,0.296875,-0.16992188,-0.28125,-0.84375,-0.78125,0.0,0.0,0.0
1664371688729,-0.95703125,0.29296875,-0.16308594,-0.28125,-1.1875,-0.71875,0.0,0.0,0.0
1664371688758,-0.953125,0.3095703,-0.16210938,0.34375,-0.71875,-0.46875,0.0,0.0,0.0
1664371688818,-0.94433594,0.31445312,-0.16796875,-0.15625,-0.96875,-0.46875,0.0,0.0,0.0
1664371688847,-0.95214844,0.2939453,-0.16308594,-0.40625,-1.03125,-0.90625,0.0,0.0,0.0
1664371688878,-0.94921875,0.3046875,-0.16601562,0.46875,-1.375,-0.96875,0.0,0.0,0.0
1664371688942,-0.9580078,0.30273438,-0.15234375,0.21875,-1.1875,-0.78125,0.0,0.0,0.0
1664371688967,-0.9560547,0.30273438,-0.15429688,-0.34375,-1.1875,-1.28125,0.0,0.0,0.0
1664371689001,-0.9609375,0.30273438,-0.15039062,-0.40625,-1.5,-1.75,0.0,0.0,0.0
1664371689091,-0.9560547,0.29003906,-0.17089844,-0.03125,-1.875,-2.125,0.0,0.0,0.0
1664371689094,-0.95410156,0.30566406,-0.16992188,0.9375,-1.8125,-1.6875,-56.875,23.875,-147.9375
1664371689119,-0.94433594,0.30371094,-0.16308594,0.875,-1.8125,-1.8125,0.0,0.0,0.0
1664371689178,-0.95703125,0.30273438,-0.15429688,0.40625,-1.8125,-1.9375,0.0,0.0,0.0
1664371689210,-0.9550781,0.3017578,-0.13769531,0.15625,-1.9375,-1.875,0.0,0.0,0.0
1664371689238,-0.9638672,0.30078125,-0.140625,-0.71875,-0.71875,-1.65625,0.0,0.0,0.0
1664371689297,-0.9589844,0.28710938,-0.13671875,-0.34375,-0.90625,-1.21875,0.0,0.0,0.0
1664371689328,-0.9589844,0.29003906,-0.15136719,-0.09375,-0.96875,-0.78125,0.0,0.0,0.0
1664371689361,-0.9628906,0.2861328,-0.15625,-0.03125,-1.09375,-0.90625,0.0,0.0,0.0
1664371689417,-0.9628906,0.29101562,-0.15039062,-0.40625,-0.96875,-1.34375,0.0,0.0,0.0
1664371689447,-0.9560547,0.2919922,-0.15234375,-0.03125,-1.1875,-1.9375,0.0,0.0,0.0
1664371689478,-0.9609375,0.2841797,-0.12988281,-0.84375,-1.25,-2.125,0.0,0.0,0.0
1664371689539,-0.953125,0.28808594,-0.14257812,-1.375,-1.25,-2.5,0.0,0.0,0.0
1664371689567,-0.9580078,0.2783203,-0.12988281,-1.375,-1.03125,-2.125,-56.875,22.8125,-146.875
1664371689598,-0.9707031,0.28515625,-0.14160156,-1.0,-1.15625,-1.53125,0.0,0.0,0.0
1664371689657,-0.9501953,0.28808594,-0.14453125,-1.875,-0.78125,-1.53125,0.0,0.0,0.0
1664371689690,-0.9550781,0.27246094,-0.140625,-1.0625,-1.4375,-2.25,0.0,0.0,0.0
1664371689718,-0.9658203,0.28515625,-0.12695312,-0.15625,-1.4375,-2.1875,0.0,0.0,0.0
1664371689778,-0.95703125,0.28222656,-0.13183594,0.15625,-1.03125,-2.0,0.0,0.0,0.0
1664371689807,-0.95996094,0.2861328,-0.12988281,-0.53125,-0.84375,-1.40625,0.0,0.0,0.0
1664371689839,-0.9638672,0.28515625,-0.14355469,-0.78125,-0.34375,-0.84375,0.0,0.0,0.0
1664371689897,-0.9658203,0.28222656,-0.14355469,-1.0,-0.09375,-0.46875,0.0,0.0,0.0
1664371689927,-0.96191406,0.2841797,-0.13476562,-1.5,0.375,-0.71875,0.0,0.0,0.0
1664371689957,-0.9638672,0.28027344,-0.12890625,-1.0625,-0.34375,-0.84375,0.0,0.0,0.0
1664371690020,-0.9580078,0.2763672,-0.13574219,-1.8125,0.03125,-1.28125,0.0,0.0,0.0
1664371690047,-0.9716797,0.27246094,-0.12792969,-1.0625,0.25,-1.28125,0.0,0.0,0.0
1664371690077,-0.9707031,0.2685547,-0.119140625,-1.5,0.25,-0.53125,-58.0625,25.25,-147.1875
1664371690137,-0.9658203,0.265625,-0.12402344,-1.125,0.4375,-0.125,0.0,0.0,0.0
1664371690168,-0.97265625,0.27929688,-0.13867188,-0.84375,0.3125,-0.1875,0.0,0.0,0.0
1664371690197,-0.96972656,0.27441406,-0.12695312,-1.0,0.09375,-0.0625,0.0,0.0,0.0
1664371690257,-0.9580078,0.26464844,-0.13867188,-0.21875,0.375,-0.125,0.0,0.0,0.0
1664371690287,-0.9589844,0.2685547,-0.13671875,0.21875,0.375,0.5,0.0,0.0,0.0
1664371690318,-0.9628906,0.2685547,-0.13574219,0.46875,0.4375,0.625,0.0,0.0,0.0
1664371690378,-0.9638672,0.27148438,-0.13769531,0.9375,0.5625,0.8125,0.0,0.0,0.0
1664371690407,-0.9638672,0.2705078,-0.13183594,0.46875,0.5625,0.75,0.0,0.0,0.0
1664371690438,-0.9628906,0.28222656,-0.12695312,0.46875,0.6875,0.875,0.0,0.0,0.0
1664371690498,-0.9658203,0.28222656,-0.13574219,0.34375,0.75,0.96875,0.0,0.0,0.0
1664371690527,-0.96777344,0.2841797,-0.13574219,0.75,0.5,0.6875,0.0,0.0,0.0
1664371690557,-0.9628906,0.2783203,-0.140625,0.46875,0.3125,0.75,-58.0625,23.75,-148.125
1664371690621,-0.9628906,0.28320312,-0.13671875,0.46875,0.4375,0.375,0.0,0.0,0.0
1664371690650,-0.95996094,0.28710938,-0.14160156,1.0,0.15625,0.75,0.0,0.0,0.0
1664371690680,-0.95996094,0.28027344,-0.13769531,0.40625,0.375,0.6875,0.0,0.0,0.0
1664371690740,-0.96972656,0.29003906,-0.14160156,0.15625,0.3125,0.5,0.0,0.0,0.0
1664371690769,-0.953125,0.28222656,-0.12792969,0.09375,0.03125,0.5625,0.0,0.0,0.0
1664371690798,-0.95410156,0.28222656,-0.13671875,-0.15625,0.4375,0.4375,0.0,0.0,0.0
1664371690861,-0.9609375,0.29492188,-0.14746094,-0.03125,0.15625,0.1875,0.0,0.0,0.0
1664371690889,-0.95996094,0.28808594,-0.13964844,-0.15625,0.15625,0.125,0.0,0.0,0.0
1664371690919,-0.9638672,0.28515625,-0.13671875,0.03125,0.09375,0.1875,0.0,0.0,0.0
1664371690981,-0.9580078,0.28515625,-0.13867188,0.03125,0.1875,0.375,0.0,0.0,0.0
1664371691013,-0.9580078,0.2861328,-0.1328125,0.03125,0.4375,0.6875,0.0,0.0,0.0
1664371691039,-0.9580078,0.28320312,-0.12695312,-0.09375,0.3125,0.9375,0.0,0.0,0.0
1664371691100,-0.9638672,0.2919922,-0.12109375,-0.09375,0.375,0.9375,-55.8125,24.3125,-147.625
1664371691131,-0.9658203,0.2861328,-0.15039062,-0.09375,0.6875,1.21875,0.0,0.0,0.0
1664371691160,-0.9628906,0.28808594,-0.14257812,-0.09375,1.0,1.34375,0.0,0.0,0.0
1664371691221,-0.9609375,0.2939453,-0.13769531,-0.03125,0.5625,1.15625,0.0,0.0,0.0
1664371691250,-0.96191406,0.29589844,-0.12792969,-1.0625,0.75,0.625,0.0,0.0,0.0
1664371691280,-0.953125,0.28222656,-0.14648438,-1.5625,0.8125,0.5625,0.0,0.0,0.0
1664371691371,-0.96484375,0.2939453,-0.13671875,-0.59375,0.5625,0.375,0.0,0.0,0.0
1664371691373,-0.9560547,0.29296875,-0.15136719,0.03125,0.375,0.125,0.0,0.0,0.0
1664371691400,-0.9609375,0.2939453,-0.14160156,0.5,0.375,0.0,0.0,0.0,0.0
1664371691461,-0.9580078,0.3017578,-0.140625,0.8125,0.1875,0.0625,0.0,0.0,0.0
1664371691491,-0.9560547,0.29882812,-0.14648438,0.40625,0.375,0.0,0.0,0.0,0.0
1664371691519,-0.95703125,0.29589844,-0.14648438,0.28125,0.4375,0.0625,0.0,0.0,0.0
1664371691579,-0.9560547,0.2890625,-0.15234375,0.5,0.03125,0.25,-57.75,25.25,-147.1875
1664371691610,-0.9609375,0.29296875,-0.15527344,0.46875,0.1875,-0.1875,0.0,0.0,0.0
1664371691640,-0.9589844,0.296875,-0.15527344,0.5,-0.09375,-0.40625,0.0,0.0,0.0
1664371691699,-0.9580078,0.29785156,-0.1484375,0.5625,0.03125,-0.40625,0.0,0.0,0.0
1664371691730,-0.95703125,0.3046875,-0.15234375,0.5625,-0.03125,-0.0625,0.0,0.0,0.0
1664371691760,-0.95996094,0.28808594,-0.13183594,0.28125,0.15625,-0.3125,0.0,0.0,0.0
1664371691819,-0.953125,0.29101562,-0.15136719,0.28125,-0.28125,-0.71875,0.0,0.0,0.0
1664371691851,-0.9580078,0.2890625,-0.13964844,-0.15625,0.09375,-0.71875,0.0,0.0,0.0
1664371691879,-0.96875,0.28027344,-0.14355469,-0.03125,-0.09375,-0.46875,0.0,0.0,0.0
1664371691939,-0.96484375,0.28808594,-0.14257812,0.09375,0.03125,-0.59375,0.0,0.0,0.0
1664371691971,-0.9658203,0.29003906,-0.12792969,0.15625,0.15625,-0.0625,0.0,0.0,0.0
1664371691999,-0.9658203,0.2939453,-0.15429688,0.15625,0.15625,-0.3125,0.0,0.0,0.0
1664371692059,-0.9589844,0.29589844,-0.14746094,0.5,0.25,-0.46875,0.0,0.0,0.0
1664371692091,-0.9560547,0.2919922,-0.14355469,0.34375,0.1875,-0.1875,-57.0,24.8125,-147.5
1664371692120,-0.9511719,0.29492188,-0.14160156,0.5,0.5,-0.0625,0.0,0.0,0.0
1664371692180,-0.9589844,0.29589844,-0.13769531,0.34375,0.625,0.125,0.0,0.0,0.0
1664371692210,-0.95703125,0.2939453,-0.14453125,0.40625,0.875,0.5,0.0,0.0,0.0
1664371692240,-0.9550781,0.30078125,-0.14648438,-0.09375,0.6875,0.375,0.0,0.0,0.0
1664371692299,-0.9580078,0.29296875,-0.15234375,0.15625,1.0625,0.125,0.0,0.0,0.0
1664371692330,-0.96191406,0.29589844,-0.14746094,-0.21875,0.875,0.375,0.0,0.0,0.0
1664371692362,-0.9560547,0.29296875,-0.13378906,-1.375,1.65625,0.0,0.0,0.0,0.0
1664371692420,-0.95703125,0.3046875,-0.14648438,-1.625,2.75,-0.25,0.0,0.0,0.0
1664371692449,-0.95703125,0.29101562,-0.15625,-2.15625,1.71875,0.8125,0.0,0.0,0.0
1664371692479,-0.953125,0.3017578,-0.14746094,-2.34375,1.65625,0.375,0.0,0.0,0.0
1664371692538,-0.96191406,0.2890625,-0.16699219,-2.15625,1.25,0.125,0.0,0.0,0.0
1664371692567,-0.9638672,0.29003906,-0.14453125,-0.9375,0.625,0.1875,-57.875,25.0625,-148.375
1664371692598,-0.9580078,0.28808594,-0.15039062,-0.09375,0.375,0.0,0.0,0.0,0.0
1664371692658,-0.9560547,0.2998047,-0.15136719,0.03125,0.375,-0.1875,0.0,0.0,0.0
1664371692690,-0.9628906,0.2998047,-0.15039062,-0.84375,1.0,0.0625,0.0,0.0,0.0
1664371692720,-0.9580078,0.2998047,-0.15722656,0.03125,0.6875,0.5625,0.0,0.0,0.0
1664371692779,-0.9589844,0.30078125,-0.14941406,-0.84375,0.6875,0.25,0.0,0.0,0.0
1664371692810,-0.9550781,0.2998047,-0.14746094,-1.125,0.3125,0.0,0.0,0.0,0.0
1664371692840,-0.95410156,0.29101562,-0.14355469,0.28125,0.1875,-0.25,0.0,0.0,0.0
1664371692901,-0.9472656,0.30371094,-0.14648438,0.625,0.1875,0.125,0.0,0.0,0.0
1664371692930,-0.9589844,0.29785156,-0.14550781,0.09375,0.03125,0.125,0.0,0.0,0.0
1664371692960,-0.94921875,0.30371094,-0.14257812,0.21875,0.15625,0.0625,0.0,0.0,0.0
1664371693020,-0.9560547,0.30371094,-0.15722656,-0.03125,-0.03125,-0.0625,0.0,0.0,0.0
1664371693049,-0.9472656,0.3095703,-0.14257812,-0.40625,0.09375,-0.125,0.0,0.0,0.0
1664371693080,-0.9550781,0.29296875,-0.15429688,-0.28125,0.15625,0.0,-57.4375,24.1875,-146.4375
1664371693139,-0.95703125,0.29785156,-0.15039062,-0.34375,-0.03125,0.0,0.0,0.0,0.0
1664371693170,-0.9628906,0.30371094,-0.1640625,0.03125,-0.34375,-0.0625,0.0,0.0,0.0
1664371693199,-0.94921875,0.2998047,-0.14550781,-0.34375,-0.03125,-0.34375,0.0,0.0,0.0
1664371693260,-0.9667969,0.29003906,-0.16796875,0.40625,-0.28125,-0.40625,0.0,0.0,0.0
1664371693290,-0.9511719,0.3154297,-0.14550781,0.21875,-0.34375,-0.40625,0.0,0.0,0.0
1664371693319,-0.9560547,0.29296875,-0.15429688,0.5,-0.21875,-0.1875,0.0,0.0,0.0
1664371693381,-0.953125,0.29882812,-0.16796875,0.875,-0.09375,-0.0625,0.0,0.0,0.0
1664371693409,-0.95410156,0.29003906,-0.13671875,1.125,-0.40625,-0.40625,0.0,0.0,0.0
1664371693439,-0.9511719,0.30371094,-0.13574219,1.6875,-0.84375,-0.40625,0.0,0.0,0.0
1664371693500,-0.9550781,0.29589844,-0.14941406,1.25,-0.46875,-0.34375,0.0,0.0,0.0
1664371693531,-0.9628906,0.3017578,-0.15234375,1.1875,-0.21875,-0.46875,0.0,0.0,0.0
1664371693559,-0.9628906,0.3046875,-0.14453125,1.125,-0.34375,-0.46875,-57.125,26.125,-149.3125
1664371693652,-0.953125,0.296875,-0.14550781,0.46875,-0.34375,-0.84375,0.0,0.0,0.0
1664371693655,-0.95410156,0.2919922,-0.15527344,0.34375,-0.09375,-0.84375,0.0,0.0,0.0
1664371693679,-0.9589844,0.2841797,-0.15429688,0.21875,-0.15625,-0.71875,0.0,0.0,0.0
1664371693739,-0.96191406,0.2919922,-0.15527344,-0.46875,0.15625,-0.71875,0.0,0.0,0.0
1664371693770,-0.9628906,0.29589844,-0.15234375,-0.59375,0.4375,-0.25,0.0,0.0,0.0
1664371693799,-0.9609375,0.2998047,-0.14746094,-0.46875,0.375,-0.34375,0.0,0.0,0.0
1664371693860,-0.96972656,0.296875,-0.14746094,-0.46875,0.15625,-0.1875,0.0,0.0,0.0
1664371693890,-0.9580078,0.29589844,-0.13671875,-0.40625,-0.03125,-0.25,0.0,0.0,0.0
1664371693919,-0.9482422,0.29589844,-0.15136719,-0.46875,0.1875,-0.3125,0.0,0.0,0.0
1664371693981,-0.95703125,0.29296875,-0.15234375,-0.59375,0.25,0.3125,0.0,0.0,0.0
1664371694010,-0.94628906,0.29492188,-0.15039062,-0.28125,-0.03125,0.4375,0.0,0.0,0.0
1664371694040,-0.953125,0.29492188,-0.15722656,-0.21875,-0.03125,0.3125,0.0,0.0,0.0
1664371694101,-0.953125,0.29003906,-0.15917969,0.46875,0.03125,0.0,-57.625,24.3125,-147.625
1664371694132,-0.9550781,0.30273438,-0.14550781,0.8125,-0.03125,0.5625,0.0,0.0,0.0
1664371694160,-0.9589844,0.29589844,-0.13867188,0.28125,-0.03125,0.0625,0.0,0.0,0.0
1664371694222,-0.9550781,0.29101562,-0.14941406,0.75,0.09375,0.0,0.0,0.0,0.0
1664371694249,-0.9511719,0.29785156,-0.14355469,1.0625,-0.21875,0.125,0.0,0.0,0.0
1664371694280,-0.9501953,0.29296875,-0.14257812,1.25,-0.15625,0.3125,0.0,0.0,0.0
1664371694340,-0.9560547,0.30273438,-0.14257812,1.4375,-0.21875,0.0,0.0,0.0,0.0
1664371694370,-0.95703125,0.30371094,-0.14746094,1.375,0.09375,-0.1875,0.0,0.0,0.0
1664371694402,-0.95996094,0.3095703,-0.15332031,1.4375,-0.03125,0.3125,0.0,0.0,0.0
1664371694460,-0.95214844,0.30566406,-0.14941406,0.875,-0.15625,0.125,0.0,0.0,0.0
1664371694490,-0.9550781,0.3017578,-0.14453125,0.03125,0.1875,0.0,0.0,0.0,0.0
1664371694520,-0.94628906,0.30078125,-0.15527344,0.40625,0.1875,0.0625,0.0,0.0,0.0
1664371694580,-0.953125,0.296875,-0.15429688,0.15625,0.25,-0.125,-56.25,24.5,-148.875
1664371694611,-0.95703125,0.29003906,-0.14746094,0.28125,0.375,-0.3125,0.0,0.0,0.0
1664371694641,-0.9589844,0.2861328,-0.15527344,0.9375,-0.15625,-0.0625,0.0,0.0,0.0
1664371694699,-0.94628906,0.3017578,-0.14648438,0.8125,-0.15625,-0.25,0.0,0.0,0.0
1664371694732,-0.9501953,0.30273438,-0.14746094,0.625,0.03125,-0.125,0.0,0.0,0.0
1664371694765,-0.9501953,0.30078125,-0.15429688,0.6875,-0.34375,0.0,0.0,0.0,0.0
1664371694820,-0.9560547,0.2998047,-0.14746094,0.09375,0.5625,0.0,0.0,0.0,0.0
1664371694850,-0.9550781,0.30078125,-0.13964844,-0.03125,0.1875,0.1875,0.0,0.0,0.0
1664371694880,-0.9482422,0.30273438,-0.15917969,0.03125,0.09375,-0.1875,0.0,0.0,0.0
1664371694938,-0.9560547,0.296875,-0.13671875,-0.46875,0.375,0.0,0.0,0.0,0.0
1664371694970,-0.9501953,0.2939453,-0.15917969,-0.15625,-0.09375,0.0625,0.0,0.0,0.0
1664371694999,-0.9550781,0.30078125,-0.14746094,-0.40625,0.5,0.0,0.0,0.0,0.0
1664371695058,-0.9560547,0.30078125,-0.15332031,-0.46875,0.1875,0.3125,0.0,0.0,0.0
1664371695091,-0.95410156,0.29492188,-0.16113281,-0.03125,0.15625,-0.0625,-56.875,24.625,-148.375
1664371695121,-0.95703125,0.3017578,-0.14550781,0.21875,0.375,0.125,0.0,0.0,0.0
1664371695182,-0.94628906,0.296875,-0.14355469,-0.03125,-0.03125,0.0625,0.0,0.0,0.0
1664371695209,-0.9472656,0.296875,-0.16308594,0.09375,0.375,0.125,0.0,0.0,0.0
1664371695239,-0.9501953,0.29589844,-0.15039062,0.09375,0.4375,0.3125,0.0,0.0,0.0
1664371695299,-0.9511719,0.2939453,-0.15039062,0.03125,0.375,0.5625,0.0,0.0,0.0
1664371695328,-0.95410156,0.3046875,-0.15039062,0.03125,0.25,0.3125,0.0,0.0,0.0
1664371695363,-0.9550781,0.30566406,-0.15527344,0.15625,0.25,-0.1875,0.0,0.0,0.0
1664371695418,-0.953125,0.3095703,-0.15332031,0.03125,0.09375,-0.125,0.0,0.0,0.0
1664371695448,-0.94628906,0.3046875,-0.14746094,-0.03125,0.15625,-0.1875,0.0,0.0,0.0
1664371695481,-0.9472656,0.30078125,-0.1484375,0.09375,0.09375,0.125,0.0,0.0,0.0
1664371695542,-0.9560547,0.30371094,-0.14257812,-0.03125,0.1875,0.0625,0.0,0.0,0.0
1664371695571,-0.95410156,0.29882812,-0.15234375,0.34375,-0.03125,-0.1875,-57.4375,24.8125,-148.125
1664371695601,-0.9560547,0.3076172,-0.14746094,-0.21875,0.3125,0.125,0.0,0.0,0.0
1664371695659,-0.9472656,0.29589844,-0.17480469,0.09375,0.3125,0.25,0.0,0.0,0.0
1664371695689,-0.95410156,0.29785156,-0.14550781,0.5625,-0.15625,-0.0625,0.0,0.0,0.0
1664371695721,-0.9501953,0.31640625,-0.1484375,0.21875,-0.03125,-0.125,0.0,0.0,0.0
1664371695779,-0.95703125,0.29882812,-0.16015625,0.09375,-0.09375,-0.1875,0.0,0.0,0.0
1664371695809,-0.9580078,0.29882812,-0.15234375,0.15625,0.25,-0.0625,0.0,0.0,0.0
1664371695839,-0.94628906,0.3046875,-0.15039062,0.40625,-0.09375,0.0,0.0,0.0,0.0
1664371695930,-0.9433594,0.30273438,-0.15429688,0.46875,0.5,0.0625,0.0,0.0,0.0
1664371695932,-0.9580078,0.30371094,-0.15429688,0.15625,0.15625,0.0,0.0,0.0,0.0
1664371695960,-0.9589844,0.31054688,-0.13476562,0.5625,0.5,-0.1875,0.0,0.0,0.0
1664371696021,-0.9453125,0.29492188,-0.18847656,0.5625,0.9375,-0.59375,0.0,0.0,0.0
1664371696049,-0.95214844,0.29589844,-0.15722656,1.4375,0.625,0.25,0.0,0.0,0.0
1664371696079,-0.95996094,0.30371094,-0.15136719,0.5,0.5625,-0.125,-57.125,25.375,-147.9375
1664371696139,-0.953125,0.29785156,-0.16210938,0.75,0.1875,-0.0625,0.0,0.0,0.0
1664371696170,-0.9511719,0.3017578,-0.15039062,0.5,-0.15625,-0.0625,0.0,0.0,0.0
1664371696198,-0.96191406,0.3076172,-0.1640625,0.75,0.1875,0.0,0.0,0.0,0.0
1664371696260,-0.9589844,0.3076172,-0.16601562,1.5625,-0.03125,0.125,0.0,0.0,0.0
1664371696289,-0.9453125,0.3076172,-0.16796875,0.40625,-0.09375,-0.125,0.0,0.0,0.0
1664371696319,-0.95703125,0.30371094,-0.16015625,0.09375,-0.03125,-0.3125,0.0,0.0,0.0
1664371696380,-0.9667969,0.30859375,-0.15429688,0.34375,-0.28125,-0.25,0.0,0.0,0.0
1664371696411,-0.9482422,0.30566406,-0.16796875,0.09375,-0.34375,0.0,0.0,0.0,0.0
1664371696439,-0.953125,0.31152344,-0.16015625,0.15625,-0.53125,-0.1875,0.0,0.0,0.0
1664371696500,-0.9550781,0.296875,-0.16601562,-0.71875,-0.21875,-0.40625,0.0,0.0,0.0
1664371696531,-0.953125,0.32128906,-0.14453125,-0.21875,-0.15625,-0.3125,0.0,0.0,0.0
1664371696560,-0.94921875,0.31347656,-0.15039062,-0.59375,-0.09375,-0.3125,-57.4375,24.8125,-147.8125
1664371696619,-0.95703125,0.30664062,-0.15429688,-0.875,0.1875,-0.65625,0.0,0.0,0.0
1664371696650,-0.9482422,0.3046875,-0.14941406,-0.78125,0.3125,-0.59375,0.0,0.0,0.0
1664371696679,-0.94433594,0.30273438,-0.14453125,-0.40625,-0.15625,-0.65625,0.0,0.0,0.0
1664371696740,-0.95410156,0.3154297,-0.15332031,-0.34375,-0.09375,-0.71875,0.0,0.0,0.0
1664371696769,-0.95410156,0.3076172,-0.15625,-0.875,-0.15625,-0.65625,0.0,0.0,0.0
1664371696800,-0.9580078,0.3095703,-0.16113281,-0.9375,0.09375,-0.65625,0.0,0.0,0.0
1664371696861,-0.9550781,0.29882812,-0.15136719,-1.125,0.15625,-0.59375,0.0,0.0,0.0
1664371696890,-0.9589844,0.2998047,-0.15722656,-0.71875,-0.15625,-0.78125,0.0,0.0,0.0
1664371696923,-0.9628906,0.296875,-0.1484375,-0.34375,0.09375,-0.53125,0.0,0.0,0.0
1664371696979,-0.95214844,0.2939453,-0.15234375,0.21875,-0.34375,-0.59375,0.0,0.0,0.0
1664371697012,-0.9589844,0.29101562,-0.15917969,0.46875,-0.46875,-0.46875,0.0,0.0,0.0
1664371697042,-0.9501953,0.29882812,-0.15429688,0.6875,-0.59375,-0.53125,0.0,0.0,0.0
1664371697100,-0.953125,0.30566406,-0.15527344,0.6875,-0.53125,-0.65625,-58.0625,24.5,-147.8125
1664371697132,-0.9423828,0.3017578,-0.15625,0.28125,-0.53125,-0.90625,0.0,0.0,0.0
1664371697160,-0.9560547,0.30371094,-0.15527344,0.40625,-0.71875,-0.96875,0.0,0.0,0.0
1664371697221,-0.9453125,0.29589844,-0.16113281,0.34375,-0.65625,-0.59375,0.0,0.0,0.0
1664371697250,-0.94628906,0.30078125,-0.16015625,0.875,-0.84375,-0.1875,0.0,0.0,0.0
1664371697280,-0.9404297,0.3046875,-0.14746094,0.03125,-0.28125,-0.34375,0.0,0.0,0.0
1664371697340,-0.95410156,0.30078125,-0.15429688,-0.46875,-0.03125,-0.53125,0.0,0.0,0.0
1664371697371,-0.95996094,0.2998047,-0.16113281,-0.28125,-0.21875,-0.3125,0.0,0.0,0.0
1664371697400,-0.9609375,0.3017578,-0.15332031,-0.65625,-0.09375,-0.40625,0.0,0.0,0.0
1664371697460,-0.95214844,0.2919922,-0.14257812,-0.28125,-0.15625,-0.53125,0.0,0.0,0.0
1664371697490,-0.953125,0.29296875,-0.16503906,-0.03125,-0.09375,-0.53125,0.0,0.0,0.0
1664371697521,-0.9609375,0.29785156,-0.14648438,0.21875,-0.21875,-0.3125,0.0,0.0,0.0
1664371697580,-0.9560547,0.296875,-0.14941406,0.5625,-0.46875,-0.53125,-56.25,25.5625,-147.1875
1664371697610,-0.953125,0.30078125,-0.14160156,0.21875,-0.09375,-0.34375,0.0,0.0,0.0
1664371697640,-0.953125,0.29492188,-0.15429688,-0.15625,-0.15625,-0.34375,0.0,0.0,0.0
1664371697698,-0.95996094,0.29492188,-0.14550781,-0.03125,-0.21875,-0.46875,0.0,0.0,0.0
1664371697732,-0.9501953,0.2919922,-0.14941406,-0.09375,-0.21875,-0.46875,0.0,0.0,0.0
1664371697760,-0.9453125,0.3046875,-0.15820312,0.09375,-0.28125,-0.40625,0.0,0.0,0.0
1664371697819,-0.9550781,0.29492188,-0.15625,0.03125,-0.21875,-0.46875,0.0,0.0,0.0
1664371697850,-0.94921875,0.29882812,-0.14550781,0.34375,-0.15625,-0.46875,0.0,0.0,0.0
1664371697881,-0.9628906,0.29296875,-0.14355469,0.09375,-0.03125,-0.53125,0.0,0.0,0.0
1664371697938,-0.9453125,0.30078125,-0.13769531,-0.03125,-0.28125,-0.34375,0.0,0.0,0.0
1664371697971,-0.9609375,0.30859375,-0.14648438,-0.40625,0.03125,-0.3125,0.0,0.0,0.0
1664371697999,-0.95703125,0.29101562,-0.14355469,-0.34375,0.25,-0.25,0.0,0.0,0.0
1664371698060,-0.95410156,0.29492188,-0.14550781,-0.59375,0.09375,-0.3125,0.0,0.0,0.0
1664371698091,-0.953125,0.2919922,-0.15429688,-0.46875,-0.03125,-0.25,-56.6875,23.75,-148.125
1664371698120,-0.953125,0.29003906,-0.15722656,-0.09375,-0.09375,-0.46875,0.0,0.0,0.0
1664371698210,-0.96777344,0.29101562,-0.14550781,0.15625,-0.09375,-0.3125,0.0,0.0,0.0
1664371698241,-0.94628906,0.29296875,-0.13574219,-0.03125,0.03125,0.125,0.0,0.0,0.0
1664371698270,-0.9580078,0.2919922,-0.15039062,-0.15625,-0.21875,0.125,0.0,0.0,0.0
1664371698301,-0.9511719,0.29882812,-0.15429688,-0.09375,-0.03125,-0.25,0.0,0.0,0.0
1664371698330,-0.95703125,0.30371094,-0.13769531,-0.71875,0.03125,-0.3125,0.0,0.0,0.0
1664371698360,-0.95410156,0.30078125,-0.15527344,-0.40625,-0.15625,-0.34375,0.0,0.0,0.0
1664371698419,-0.95996094,0.3017578,-0.15332031,-0.46875,-0.59375,-0.34375,0.0,0.0,0.0
1664371698449,-0.95703125,0.29003906,-0.15136719,-0.40625,-0.71875,-0.71875,0.0,0.0,0.0
1664371698480,-0.95214844,0.2939453,-0.140625,0.21875,-0.84375,-0.84375,0.0,0.0,0.0
1664371698541,-0.953125,0.2939453,-0.14453125,-0.09375,-0.40625,-0.59375,0.0,0.0,0.0
1664371698570,-0.9550781,0.30371094,-0.12988281,-0.03125,-0.09375,0.125,-56.5625,24.625,-147.625
1664371698600,-0.9609375,0.2939453,-0.13671875,-0.65625,0.1875,0.0625,0.0,0.0,0.0
1664371698659,-0.95703125,0.29101562,-0.13867188,-0.59375,0.5,-0.34375,0.0,0.0,0.0
1664371698689,-0.96191406,0.2841797,-0.14941406,0.40625,-0.28125,-0.3125,0.0,0.0,0.0
1664371698721,-0.9482422,0.28710938,-0.14355469,0.6875,-0.46875,-0.65625,0.0,0.0,0.0
1664371698779,-0.95410156,0.2939453,-0.13574219,0.8125,-0.09375,-0.71875,0.0,0.0,0.0
1664371698810,-0.9560547,0.296875,-0.13964844,0.9375,-0.09375,0.1875,0.0,0.0,0.0
1664371698839,-0.95214844,0.29882812,-0.14160156,0.9375,0.3125,0.625,0.0,0.0,0.0
1664371698900,-0.95703125,0.29003906,-0.16015625,0.6875,0.15625,0.3125,0.0,0.0,0.0
1664371698929,-0.9609375,0.29882812,-0.14160156,0.46875,0.5,0.0625,0.0,0.0,0.0
1664371698959,-0.9511719,0.3017578,-0.1328125,0.03125,0.25,-0.40625,0.0,0.0,0.0
1664371699021,-0.9560547,0.29882812,-0.14453125,-0.03125,0.03125,-0.34375,0.0,0.0,0.0
1664371699049,-0.95410156,0.29296875,-0.16210938,0.21875,0.25,-0.25,0.0,0.0,0.0
1664371699080,-0.9638672,0.30859375,-0.15234375,0.03125,-0.15625,-0.3125,-57.75,25.25,-147.8125
1664371699140,-0.9511719,0.29785156,-0.15136719,-0.78125,-0.15625,-0.46875,0.0,0.0,0.0
1664371699173,-0.95410156,0.3017578,-0.14355469,-0.53125,-0.09375,-0.84375,0.0,0.0,0.0
1664371699199,-0.9560547,0.30078125,-0.13964844,-1.125,0.03125,-0.90625,0.0,0.0,0.0
1664371699260,-0.9609375,0.2998047,-0.13671875,-0.875,0.09375,-0.90625,0.0,0.0,0.0
1664371699291,-0.95703125,0.29589844,-0.14355469,-0.53125,0.5,-0.34375,0.0,0.0,0.0
1664371699320,-0.9628906,0.29589844,-0.15234375,0.21875,0.25,0.0,0.0,0.0,0.0
1664371699380,-0.9580078,0.296875,-0.14355469,0.09375,0.25,0.125,0.0,0.0,0.0
1664371699409,-0.9638672,0.296875,-0.14355469,-0.03125,0.1875,-0.125,0.0,0.0,0.0
1664371699439,-0.9589844,0.29589844,-0.1484375,0.15625,0.3125,-0.25,0.0,0.0,0.0
1664371699501,-0.95410156,0.29785156,-0.13964844,0.34375,0.25,0.0,0.0,0.0,0.0
1664371699531,-0.9560547,0.28808594,-0.1484375,0.625,0.25,0.0,0.0,0.0,0.0
1664371699559,-0.9658203,0.29589844,-0.12988281,0.9375,0.03125,-0.0625,-57.75,24.5,-146.75
1664371699620,-0.9580078,0.30273438,-0.14453125,1.125,-0.03125,0.0,0.0,0.0,0.0
1664371699651,-0.9550781,0.2890625,-0.14160156,1.25,-0.65625,-0.3125,0.0,0.0,0.0
1664371699679,-0.94433594,0.30273438,-0.15722656,0.5,0.03125,-0.1875,0.0,0.0,0.0
1664371699740,-0.9628906,0.29101562,-0.15039062,0.9375,-0.28125,-0.125,0.0,0.0,0.0
1664371699770,-0.953125,0.31152344,-0.13964844,0.28125,0.09375,-0.1875,0.0,0.0,0.0
1664371699800,-0.9638672,0.30371094,-0.13867188,0.15625,-0.03125,-0.0625,0.0,0.0,0.0
1664371699861,-0.9511719,0.30371094,-0.14453125,-0.40625,-0.03125,-0.25,0.0,0.0,0.0
1664371699890,-0.9580078,0.2919922,-0.16015625,-0.21875,0.15625,-0.0625,0.0,0.0,0.0
1664371699919,-0.9550781,0.30371094,-0.13867188,-0.65625,0.4375,0.0625,0.0,0.0,0.0
1664371699980,-0.94921875,0.29882812,-0.14550781,-0.84375,0.3125,0.0,0.0,0.0,0.0
1664371700010,-0.9609375,0.29492188,-0.15136719,-1.0,0.1875,-0.34375,0.0,0.0,0.0
1664371700040,-0.96777344,0.29589844,-0.15820312,-0.875,0.375,-0.1875,0.0,0.0,0.0
1664371700101,-0.9550781,0.29882812,-0.14550781,-0.40625,0.25,-0.125,-57.625,24.625,-147.9375
1664371700132,-0.9628906,0.29785156,-0.140625,-0.46875,0.09375,-0.25,0.0,0.0,0.0
1664371700160,-0.95996094,0.29589844,-0.14160156,-0.34375,-0.03125,-0.40625,0.0,0.0,0.0
1664371700219,-0.96191406,0.3095703,-0.14453125,-0.40625,0.09375,-0.25,0.0,0.0,0.0
1664371700251,-0.9550781,0.29785156,-0.14550781,0.03125,0.09375,0.125,0.0,0.0,0.0
1664371700280,-0.953125,0.29785156,-0.140625,-0.09375,-0.03125,-0.0625,0.0,0.0,0.0
1664371700340,-0.9589844,0.30078125,-0.15429688,0.34375,-0.28125,-0.40625,0.0,0.0,0.0
1664371700369,-0.95410156,0.30566406,-0.13574219,0.34375,-0.15625,0.0625,0.0,0.0,0.0
1664371700399,-0.9609375,0.29785156,-0.15136719,0.28125,-0.21875,-0.0625,0.0,0.0,0.0
1664371700492,-0.9550781,0.2939453,-0.13769531,-0.03125,-0.15625,-0.0625,0.0,0.0,0.0
1664371700520,-0.9609375,0.29882812,-0.15332031,-0.03125,-0.15625,0.4375,0.0,0.0,0.0
1664371700549,-0.9482422,0.3095703,-0.15429688,-0.03125,-0.21875,0.25,0.0,0.0,0.0
1664371700580,-0.9550781,0.30859375,-0.12695312,-0.40625,-0.34375,-0.1875,-56.875,23.3125,-147.9375
1664371700610,-0.95703125,0.30566406,-0.13671875,-1.25,-0.15625,-0.46875,0.0,0.0,0.0
1664371700640,-0.9501953,0.31347656,-0.14257812,-1.75,0.09375,-0.53125,0.0,0.0,0.0
1664371700699,-0.953125,0.29882812,-0.14355469,-1.9375,0.09375,-0.59375,0.0,0.0,0.0
1664371700730,-0.95996094,0.3046875,-0.14941406,-1.5,-0.09375,-0.34375,0.0,0.0,0.0
1664371700760,-0.94628906,0.29882812,-0.14160156,-1.5625,-0.28125,0.125,0.0,0.0,0.0
1664371700820,-0.953125,0.3046875,-0.14550781,-1.0625,-0.03125,-0.40625,0.0,0.0,0.0
1664371700849,-0.9658203,0.3046875,-0.13867188,-0.78125,0.03125,-0.25,0.0,0.0,0.0
1664371700880,-0.9658203,0.2861328,-0.13183594,-0.65625,0.03125,-0.40625,0.0,0.0,0.0
1664371700939,-0.96777344,0.30078125,-0.14257812,-0.15625,-0.28125,-0.125,0.0,0.0,0.0
1664371700969,-0.9560547,0.28515625,-0.14746094,0.15625,-0.46875,0.0,0.0,0.0,0.0
1664371701000,-0.95996094,0.29492188,-0.15820312,1.125,-0.34375,0.0,0.0,0.0,0.0
1664371701058,-0.95703125,0.29589844,-0.13867188,0.5625,0.1875,0.125,0.0,0.0,0.0
1664371701091,-0.96191406,0.29296875,-0.14257812,0.09375,0.09375,-0.25,-57.875,25.0625,-147.9375
1664371701119,-0.9550781,0.2890625,-0.14257812,0.28125,0.09375,0.25,0.0,0.0,0.0
1664371701181,-0.9589844,0.2890625,-0.14257812,0.09375,0.3125,0.1875,0.0,0.0,0.0
1664371701209,-0.95703125,0.29882812,-0.140625,0.34375,0.25,0.5,0.0,0.0,0.0
1664371701240,-0.95996094,0.3046875,-0.140625,0.40625,0.15625,0.125,0.0,0.0,0.0
1664371701300,-0.953125,0.3076172,-0.13867188,-0.21875,-0.21875,-0.25,0.0,0.0,0.0
1664371701330,-0.953125,0.2998047,-0.13183594,-0.9375,0.25,-0.3125,0.0,0.0,0.0
1664371701358,-0.9609375,0.29101562,-0.140625,-0.875,0.09375,-0.3125,0.0,0.0,0.0
1664371701419,-0.9511719,0.30371094,-0.13964844,-0.875,0.5,0.0,0.0,0.0,0.0
1664371701450,-0.96777344,0.30078125,-0.13476562,-0.59375,0.3125,-0.40625,0.0,0.0,0.0
1664371701481,-0.94921875,0.3017578,-0.15136719,-0.34375,0.09375,-0.53125,0.0,0.0,0.0
1664371701541,-0.9609375,0.29589844,-0.13476562,-0.78125,0.03125,-0.59375,0.0,0.0,0.0
1664371701569,-0.95214844,0.29003906,-0.1484375,-0.40625,0.1875,-0.40625,-58.0625,23.75,-147.8125
1664371701598,-0.953125,0.2919922,-0.1484375,-0.34375,0.3125,0.1875,0.0,0.0,0.0
1664371701660,-0.95996094,0.29101562,-0.12109375,-0.15625,0.25,0.125,0.0,0.0,0.0
1664371701690,-0.96484375,0.29296875,-0.140625,0.625,-0.09375,-0.125,0.0,0.0,0.0
1664371701720,-0.9550781,0.29492188,-0.13867188,0.34375,0.03125,-0.3125,0.0,0.0,0.0
1664371701779,-0.9511719,0.29296875,-0.13378906,0.5,-0.15625,-0.25,0.0,0.0,0.0
1664371701809,-0.96191406,0.29492188,-0.14160156,0.46875,0.3125,0.0625,0.0,0.0,0.0
1664371701839,-0.9609375,0.29492188,-0.13378906,-0.15625,0.3125,0.0625,0.0,0.0,0.0
1664371701900,-0.9580078,0.29101562,-0.13671875,-0.15625,0.375,0.1875,0.0,0.0,0.0
1664371701930,-0.9580078,0.29296875,-0.13378906,0.28125,0.25,-0.0625,0.0,0.0,0.0
1664371701961,-0.9511719,0.30664062,-0.14160156,-0.03125,0.03125,-0.59375,0.0,0.0,0.0
1664371702021,-0.9501953,0.296875,-0.13574219,-0.53125,-0.09375,-1.21875,0.0,0.0,0.0
1664371702048,-0.95996094,0.30371094,-0.14257812,-0.09375,0.3125,-0.71875,0.0,0.0,0.0
1664371702079,-0.9560547,0.3017578,-0.15820312,-0.21875,0.4375,-0.53125,-57.0,23.75,-146.75
1664371702139,-0.96972656,0.2939453,-0.13378906,-0.28125,0.375,-0.34375,0.0,0.0,0.0
1664371702169,-0.9589844,0.3017578,-0.13183594,0.03125,0.4375,-0.1875,0.0,0.0,0.0
1664371702199,-0.95996094,0.2890625,-0.13867188,-0.15625,0.5625,-0.34375,0.0,0.0,0.0
1664371702261,-0.9609375,0.2998047,-0.14550781,-0.03125,0.375,-0.53125,0.0,0.0,0.0
1664371702291,-0.9550781,0.29882812,-0.14550781,-0.34375,0.3125,-0.40625,0.0,0.0,0.0
1664371702321,-0.9580078,0.29492188,-0.13476562,-0.78125,0.625,-0.78125,0.0,0.0,0.0
1664371702379,-0.95703125,0.29589844,-0.14257812,-0.40625,0.5,-0.90625,0.0,0.0,0.0
1664371702409,-0.9560547,0.30371094,-0.14257812,-0.59375,0.8125,-0.53125,0.0,0.0,0.0
1664371702439,-0.9511719,0.2890625,-0.14941406,-0.28125,0.5625,-0.25,0.0,0.0,0.0
1664371702501,-0.95996094,0.296875,-0.15429688,-0.03125,0.5625,-0.46875,0.0,0.0,0.0
1664371702529,-0.9628906,0.28710938,-0.13769531,0.34375,0.375,-0.1875,0.0,0.0,0.0
1664371702559,-0.953125,0.29003906,-0.14550781,0.75,-0.03125,-0.3125,-57.125,25.0625,-146.875
1664371702622,-0.9746094,0.29003906,-0.13476562,1.1875,-0.09375,0.0,0.0,0.0,0.0
1664371702654,-0.95214844,0.2841797,-0.14453125,1.125,-0.21875,0.25,0.0,0.0,0.0
1664371702677,-0.9638672,0.3017578,-0.14550781,0.9375,-0.09375,0.4375,0.0,0.0,0.0
1664371702770,-0.9560547,0.30078125,-0.14648438,0.5625,0.1875,0.0625,0.0,0.0,0.0
1664371702772,-0.9658203,0.29101562,-0.1328125,0.34375,0.09375,0.0,0.0,0.0,0.0
1664371702799,-0.94628906,0.30078125,-0.14746094,0.625,0.09375,0.0625,0.0,0.0,0.0
1664371702860,-0.94433594,0.30273438,-0.14941406,0.15625,0.03125,-0.125,0.0,0.0,0.0
1664371702890,-0.95996094,0.30078125,-0.15234375,-0.65625,0.375,-0.125,0.0,0.0,0.0
1664371702920,-0.95703125,0.296875,-0.14941406,-0.9375,0.375,-0.25,0.0,0.0,0.0
1664371702981,-0.9550781,0.29492188,-0.15332031,-1.1875,0.375,0.0,0.0,0.0,0.0
1664371703011,-0.9658203,0.2890625,-0.15527344,-1.1875,0.5,-0.1875,0.0,0.0,0.0
1664371703040,-0.9589844,0.2861328,-0.15039062,-1.0,0.6875,0.3125,0.0,0.0,0.0
1664371703101,-0.9580078,0.2861328,-0.13769531,-0.40625,0.15625,0.6875,-58.5,24.8125,-148.5625
1664371703129,-0.96191406,0.29882812,-0.13867188,-0.21875,0.75,0.1875,0.0,0.0,0.0
1664371703158,-0.9550781,0.29101562,-0.14648438,0.09375,0.5,0.0625,0.0,0.0,0.0
1664371703218,-0.9482422,0.30664062,-0.14453125,-0.28125,0.25,-0.34375,0.0,0.0,0.0
1664371703251,-0.95214844,0.29589844,-0.14453125,-0.40625,0.1875,-0.40625,0.0,0.0,0.0
1664371703279,-0.9472656,0.296875,-0.14160156,-1.1875,1.1875,0.625,0.0,0.0,0.0
1664371703339,-0.9589844,0.30664062,-0.16503906,-0.78125,0.875,0.8125,0.0,0.0,0.0
1664371703369,-0.9580078,0.296875,-0.13574219,-1.25,0.6875,0.125,0.0,0.0,0.0
1664371703400,-0.96972656,0.2841797,-0.15332031,-0.53125,1.0,-0.40625,0.0,0.0,0.0
1664371703459,-0.953125,0.2841797,-0.14648438,-0.21875,0.375,0.25,0.0,0.0,0.0
1664371703489,-0.9550781,0.29785156,-0.15429688,0.03125,0.625,-0.1875,0.0,0.0,0.0
1664371703519,-0.953125,0.29003906,-0.140625,-0.34375,0.25,0.125,0.0,0.0,0.0
1664371703578,-0.9511719,0.29882812,-0.14453125,-0.53125,0.375,-0.34375,-56.875,22.8125,-147.9375
1664371703609,-0.9560547,0.296875,-0.16308594,-0.78125,0.3125,-0.65625,0.0,0.0,0.0
1664371703640,-0.9628906,0.29785156,-0.15234375,-0.21875,0.03125,-0.53125,0.0,0.0,0.0
1664371703699,-0.9453125,0.30371094,-0.14257812,0.15625,-0.09375,0.1875,0.0,0.0,0.0
1664371703729,-0.953125,0.29785156,-0.16015625,-0.71875,0.75,0.1875,0.0,0.0,0.0
1664371703758,-0.9501953,0.30273438,-0.15332031,-0.53125,0.4375,0.0,0.0,0.0,0.0
1664371703821,-0.95703125,0.30371094,-0.14550781,-0.59375,0.375,-0.34375,0.0,0.0,0.0
1664371703849,-0.9580078,0.296875,-0.13476562,-0.9375,1.0625,-0.1875,0.0,0.0,0.0
1664371703879,-0.953125,0.2841797,-0.14746094,-0.78125,0.8125,0.0625,0.0,0.0,0.0
1664371703939,-0.96484375,0.28808594,-0.15527344,-0.40625,0.625,-0.0625,0.0,0.0,0.0
1664371703971,-0.9609375,0.2861328,-0.16113281,0.5625,0.03125,-0.71875,0.0,0.0,0.0
1664371703998,-0.953125,0.29296875,-0.14355469,0.6875,-0.40625,-0.53125,0.0,0.0,0.0
1664371704060,-0.9482422,0.2890625,-0.13574219,1.75,-0.90625,-0.1875,0.0,0.0,0.0
1664371704089,-0.9472656,0.30664062,-0.13671875,1.625,-0.09375,0.125,-57.875,23.5625,-146.875
1664371704119,-0.95996094,0.30078125,-0.13476562,0.625,0.15625,0.125,0.0,0.0,0.0
1664371704180,-0.9560547,0.3095703,-0.14941406,0.15625,0.1875,0.0625,0.0,0.0,0.0
1664371704215,-0.9560547,0.30566406,-0.14648438,-1.0625,0.75,-0.53125,0.0,0.0,0.0
1664371704240,-0.95703125,0.30078125,-0.15722656,-1.0,0.1875,-0.53125,0.0,0.0,0.0
1664371704302,-0.9580078,0.3076172,-0.13671875,-0.53125,1.0,0.1875,0.0,0.0,0.0
1664371704336,-0.9589844,0.29101562,-0.16796875,-0.53125,0.9375,-0.125,0.0,0.0,0.0
1664371704358,-0.9560547,0.2939453,-0.15136719,-0.15625,0.3125,0.1875,0.0,0.0,0.0
1664371704419,-0.953125,0.2890625,-0.1484375,-0.46875,0.375,-0.25,0.0,0.0,0.0
1664371704452,-0.9638672,0.2919922,-0.15332031,0.03125,1.0625,-0.53125,0.0,0.0,0.0
1664371704480,-0.9736328,0.3046875,-0.16210938,-0.21875,0.375,-0.34375,0.0,0.0,0.0
1664371704538,-0.9472656,0.2939453,-0.14648438,-0.78125,0.375,0.0,0.0,0.0,0.0
1664371704570,-0.9638672,0.29003906,-0.14550781,-0.03125,0.625,0.25,-56.6875,24.5,-147.1875
1664371704599,-0.9638672,0.2861328,-0.14550781,1.0625,0.1875,0.1875,0.0,0.0,0.0
1664371704658,-0.9580078,0.29296875,-0.15429688,0.625,-0.34375,0.125,0.0,0.0,0.0
1664371704688,-0.9628906,0.2919922,-0.1484375,0.6875,-0.09375,-0.46875,0.0,0.0,0.0
1664371704719,-0.9580078,0.3046875,-0.14746094,0.8125,-0.65625,-0.65625,0.0,0.0,0.0
1664371704779,-0.9580078,0.29296875,-0.15820312,0.03125,-0.40625,-0.46875,0.0,0.0,0.0
1664371704812,-0.9580078,0.29492188,-0.15429688,0.5,0.09375,0.125,0.0,0.0,0.0
1664371704838,-0.9560547,0.29003906,-0.15820312,1.0,0.25,0.3125,0.0,0.0,0.0
1664371704901,-0.9482422,0.29492188,-0.16015625,0.5,0.1875,0.0,0.0,0.0,0.0
1664371704932,-0.95703125,0.296875,-0.15722656,-0.09375,0.3125,-0.59375,0.0,0.0,0.0
1664371704960,-0.9482422,0.3017578,-0.14257812,0.09375,0.4375,-0.3125,0.0,0.0,0.0
1664371705055,-0.953125,0.2939453,-0.16308594,-0.71875,0.25,-0.25,0.0,0.0,0.0
1664371705065,-0.9658203,0.29003906,-0.15234375,-1.1875,0.625,-0.1875,0.0,0.0,0.0
1664371705080,-0.96777344,0.2919922,-0.15429688,-1.5625,0.9375,0.0,-56.6875,25.25,-147.5
1664371705138,-0.94921875,0.28710938,-0.15429688,-0.15625,1.4375,0.9375,0.0,0.0,0.0
1664371705170,-0.953125,0.30078125,-0.15625,-0.53125,1.0,0.5,0.0,0.0,0.0
1664371705198,-0.95996094,0.28515625,-0.14355469,-1.0,-0.03125,-0.3125,0.0,0.0,0.0
1664371705259,-0.9560547,0.296875,-0.16210938,-0.34375,-0.09375,-0.53125,0.0,0.0,0.0
1664371705290,-0.96191406,0.29003906,-0.15917969,-0.40625,0.1875,-0.46875,0.0,0.0,0.0
1664371705318,-0.9658203,0.28222656,-0.15136719,-0.21875,-0.28125,-0.3125,0.0,0.0,0.0
1664371705379,-0.9511719,0.2841797,-0.14257812,0.9375,-0.71875,-0.34375,0.0,0.0,0.0
1664371705408,-0.9550781,0.29785156,-0.15234375,1.96875,0.03125,0.25,0.0,0.0,0.0
1664371705440,-0.95214844,0.32226562,-0.15429688,1.375,-0.34375,0.5625,0.0,0.0,0.0
1664371705499,-0.9580078,0.3046875,-0.15332031,0.15625,0.1875,-0.34375,0.0,0.0,0.0
1664371705530,-0.95410156,0.29296875,-0.15527344,-0.15625,0.3125,-0.3125,0.0,0.0,0.0
1664371705559,-0.9511719,0.29492188,-0.15625,-0.46875,0.75,-0.125,-57.75,23.75,-147.1875
1664371705619,-0.9560547,0.29785156,-0.15625,0.15625,0.1875,0.125,0.0,0.0,0.0
1664371705649,-0.9638672,0.2841797,-0.15527344,0.21875,0.5,0.1875,0.0,0.0,0.0
1664371705677,-0.9550781,0.29101562,-0.14453125,0.6875,0.875,-0.1875,0.0,0.0,0.0
1664371705742,-0.95214844,0.29003906,-0.14941406,-0.15625,-0.53125,-0.25,0.0,0.0,0.0
1664371705769,-0.9628906,0.2861328,-0.1484375,-0.34375,-0.03125,-0.3125,0.0,0.0,0.0
1664371705800,-0.9501953,0.30371094,-0.17675781,0.03125,0.1875,0.1875,0.0,0.0,0.0
1664371705860,-0.95996094,0.3095703,-0.15917969,-0.09375,-0.09375,0.0625,0.0,0.0,0.0
1664371705888,-0.95703125,0.29296875,-0.16699219,-0.53125,-0.40625,0.0,0.0,0.0,0.0
1664371705917,-0.9580078,0.296875,-0.15917969,0.28125,0.09375,0.375,0.0,0.0,0.0
1664371705979,-0.9609375,0.29882812,-0.15136719,0.09375,-0.15625,0.5,0.0,0.0,0.0
1664371706009,-0.9589844,0.31347656,-0.15332031,0.21875,-0.59375,0.125,0.0,0.0,0.0
1664371706038,-0.9482422,0.29101562,-0.15429688,-1.1875,-0.21875,0.125,0.0,0.0,0.0
1664371706101,-0.9550781,0.296875,-0.13671875,-0.53125,-0.46875,0.25,-57.75,24.8125,-146.75
1664371706130,-0.94433594,0.2998047,-0.14355469,-0.34375,-0.34375,0.125,0.0,0.0,0.0
1664371706158,-0.95703125,0.29785156,-0.14355469,-0.46875,-0.09375,0.125,0.0,0.0,0.0
1664371706221,-0.953125,0.296875,-0.15820312,-0.28125,0.09375,0.25,0.0,0.0,0.0
1664371706248,-0.9580078,0.29296875,-0.16503906,-0.53125,0.15625,-0.25,0.0,0.0,0.0
1664371706279,-0.9580078,0.28808594,-0.16308594,-0.21875,-0.40625,0.125,0.0,0.0,0.0
1664371706338,-0.9472656,0.2939453,-0.14355469,0.15625,-0.03125,0.25,0.0,0.0,0.0
1664371706369,-0.95410156,0.28515625,-0.15136719,-0.28125,0.09375,-0.1875,0.0,0.0,0.0
1664371706400,-0.9482422,0.29296875,-0.15136719,-0.46875,0.09375,0.0,0.0,0.0,0.0
1664371706457,-0.95703125,0.3017578,-0.15527344,-0.65625,0.25,0.125,0.0,0.0,0.0
1664371706490,-0.9550781,0.2939453,-0.15039062,-0.03125,0.1875,-0.0625,0.0,0.0,0.0
1664371706519,-0.9560547,0.29589844,-0.14453125,0.34375,-0.21875,-0.0625,0.0,0.0,0.0
1664371706582,-0.9550781,0.29492188,-0.14257812,0.6875,0.03125,0.1875,-57.4375,23.4375,-147.8125
1664371706608,-0.94921875,0.3017578,-0.15917969,0.15625,-0.09375,0.0,0.0,0.0,0.0
1664371706638,-0.953125,0.30078125,-0.15039062,0.21875,0.15625,-0.125,0.0,0.0,0.0
1664371706700,-0.953125,0.30371094,-0.12988281,-0.46875,-0.03125,0.125,0.0,0.0,0.0
1664371706728,-0.9589844,0.30371094,-0.15429688,-0.03125,0.03125,-0.1875,0.0,0.0,0.0
1664371706760,-0.9580078,0.29882812,-0.15625,-0.03125,0.1875,-0.1875,0.0,0.0,0.0
1664371706819,-0.953125,0.30273438,-0.15136719,-0.21875,0.8125,0.0625,0.0,0.0,0.0
1664371706850,-0.9580078,0.296875,-0.15429688,-0.34375,0.625,0.0625,0.0,0.0,0.0
1664371706879,-0.95996094,0.30664062,-0.15429688,-0.9375,1.0625,-0.40625,0.0,0.0,0.0
1664371706937,-0.9453125,0.30273438,-0.14648438,-1.125,0.8125,-0.65625,0.0,0.0,0.0
1664371706970,-0.94921875,0.29882812,-0.16015625,-1.4375,1.46875,-0.40625,0.0,0.0,0.0
1664371707000,-0.95410156,0.29296875,-0.16113281,-1.1875,1.0,-0.71875,0.0,0.0,0.0
1664371707058,-0.95703125,0.29101562,-0.15234375,-0.84375,1.1875,-0.53125,0.0,0.0,0.0
1664371707089,-0.9550781,0.2861328,-0.15722656,-0.15625,1.53125,0.1875,-57.0,25.5625,-147.8125
1664371707118,-0.96191406,0.296875,-0.16503906,0.625,0.6875,0.375,0.0,0.0,0.0
1664371707181,-0.9589844,0.2841797,-0.15625,0.875,-0.34375,0.0625,0.0,0.0,0.0
1664371707209,-0.95214844,0.29492188,-0.16113281,1.84375,-0.40625,-0.1875,0.0,0.0,0.0
1664371707242,-0.95410156,0.2939453,-0.16210938,1.90625,-0.15625,0.125,0.0,0.0,0.0
1664371707333,-0.9609375,0.30273438,-0.16113281,1.4375,-0.15625,0.125,0.0,0.0,0.0
1664371707336,-0.9501953,0.3046875,-0.16210938,0.6875,-0.28125,0.0,0.0,0.0,0.0
1664371707361,-0.9550781,0.30078125,-0.15722656,0.875,0.09375,-0.0625,0.0,0.0,0.0
1664371707422,-0.9550781,0.31152344,-0.15917969,0.5625,-0.21875,0.0,0.0,0.0,0.0
1664371707450,-0.9580078,0.28710938,-0.15429688,0.28125,-0.28125,-0.34375,0.0,0.0,0.0
1664371707480,-0.9580078,0.29882812,-0.15332031,0.8125,-0.34375,-0.40625,0.0,0.0,0.0
1664371707541,-0.94628906,0.29101562,-0.15039062,0.625,-0.09375,0.125,0.0,0.0,0.0
1664371707569,-0.9580078,0.29589844,-0.15625,0.03125,0.15625,0.125,-57.0,24.8125,-147.8125
1664371707600,-0.9580078,0.30273438,-0.14941406,0.09375,-0.28125,-0.3125,0.0,0.0,0.0
1664371707659,-0.9482422,0.29785156,-0.14257812,-0.15625,0.375,-0.25,0.0,0.0,0.0
1664371707688,-0.9560547,0.3046875,-0.15429688,-0.09375,0.3125,0.3125,0.0,0.0,0.0
1664371707719,-0.9511719,0.296875,-0.15039062,-0.46875,0.6875,0.125,0.0,0.0,0.0
1664371707781,-0.9667969,0.2998047,-0.16210938,-0.875,0.875,-0.125,0.0,0.0,0.0
1664371707809,-0.95410156,0.29882812,-0.15625,-1.0625,0.5,-0.40625,0.0,0.0,0.0
1664371707839,-0.9550781,0.2939453,-0.140625,-1.0,0.6875,-0.34375,0.0,0.0,0.0
1664371707901,-0.9501953,0.3046875,-0.171875,-1.1875,0.75,-0.1875,0.0,0.0,0.0
1664371707929,-0.9580078,0.2998047,-0.1484375,-2.0,1.3125,-0.25,0.0,0.0,0.0
1664371707960,-0.94921875,0.30371094,-0.16796875,-2.0,1.1875,-0.1875,0.0,0.0,0.0
1664371708021,-0.95703125,0.30078125,-0.171875,-2.28125,0.6875,-0.25,0.0,0.0,0.0
1664371708051,-0.9482422,0.27929688,-0.171875,-1.3125,2.09375,-0.65625,0.0,0.0,0.0
1664371708079,-0.95996094,0.28515625,-0.15722656,-0.21875,1.0,-0.40625,-56.875,23.3125,-148.6875
1664371708140,-0.9716797,0.28515625,-0.15234375,0.625,-0.15625,-0.125,0.0,0.0,0.0
1664371708170,-0.9511719,0.30664062,-0.17285156,1.125,-0.84375,-0.34375,0.0,0.0,0.0
1664371708198,-0.9560547,0.30273438,-0.16113281,0.40625,-0.40625,-0.46875,0.0,0.0,0.0
1664371708259,-0.9423828,0.3017578,-0.16210938,0.09375,-0.21875,-0.1875,0.0,0.0,0.0
1664371708289,-0.9511719,0.3017578,-0.14257812,-0.84375,0.03125,-0.1875,0.0,0.0,0.0
1664371708319,-0.94433594,0.29101562,-0.16894531,-1.375,0.25,-0.25,0.0,0.0,0.0
1664371708381,-0.953125,0.29296875,-0.15625,-0.875,0.15625,-0.125,0.0,0.0,0.0
1664371708409,-0.9638672,0.30078125,-0.17089844,-0.84375,-0.09375,-0.0625,0.0,0.0,0.0
1664371708439,-0.9550781,0.28125,-0.15136719,-0.40625,-0.21875,-0.25,0.0,0.0,0.0
1664371708501,-0.9589844,0.29296875,-0.16015625,0.28125,-0.03125,-0.1875,0.0,0.0,0.0
1664371708529,-0.9589844,0.2939453,-0.16308594,0.15625,-0.53125,-0.125,0.0,0.0,0.0
1664371708561,-0.9560547,0.29882812,-0.18457031,0.875,-0.65625,-0.0625,-57.0,24.1875,-149.125
1664371708620,-0.9550781,0.296875,-0.15625,0.8125,-0.65625,0.0,0.0,0.0,0.0
1664371708649,-0.953125,0.2998047,-0.15820312,0.46875,-0.40625,-0.125,0.0,0.0,0.0
1664371708679,-0.95410156,0.29589844,-0.1640625,0.5625,-0.59375,0.0,0.0,0.0,0.0
1664371708741,-0.9550781,0.30078125,-0.14648438,0.46875,-0.46875,-0.3125,0.0,0.0,0.0
1664371708770,-0.9560547,0.3017578,-0.16113281,0.21875,-0.21875,-0.25,0.0,0.0,0.0
1664371708800,-0.95996094,0.2939453,-0.16308594,0.03125,-0.21875,-0.34375,0.0,0.0,0.0
1664371708861,-0.9628906,0.29589844,-0.15332031,-0.03125,-0.15625,-0.46875,0.0,0.0,0.0
1664371708892,-0.9628906,0.2919922,-0.15625,0.21875,-0.28125,-0.34375,0.0,0.0,0.0
1664371708920,-0.9550781,0.29003906,-0.16796875,0.15625,-0.15625,-0.25,0.0,0.0,0.0
1664371708982,-0.96484375,0.2890625,-0.16796875,0.5625,-0.21875,-0.125,0.0,0.0,0.0
1664371709009,-0.9658203,0.29296875,-0.17480469,0.875,-0.34375,0.25,0.0,0.0,0.0
1664371709038,-0.95214844,0.2998047,-0.16113281,0.875,-0.09375,0.25,0.0,0.0,0.0
1664371709101,-0.9589844,0.2939453,-0.16113281,0.34375,-0.40625,0.125,-58.625,25.0625,-148.375
1664371709131,-0.9560547,0.29101562,-0.18457031,0.5625,-0.28125,-0.125,0.0,0.0,0.0
1664371709159,-0.95214844,0.30078125,-0.14648438,1.0,-0.34375,-0.0625,0.0,0.0,0.0
1664371709219,-0.95410156,0.3076172,-0.16015625,0.21875,-0.53125,-0.0625,0.0,0.0,0.0
1664371709250,-0.95703125,0.3095703,-0.15527344,-0.34375,0.3125,-0.125,0.0,0.0,0.0
1664371709280,-0.9550781,0.2998047,-0.15917969,-1.3125,0.625,0.0,0.0,0.0,0.0
1664371709339,-0.95410156,0.2890625,-0.14648438,-1.6875,0.9375,-0.46875,0.0,0.0,0.0
1664371709370,-0.9580078,0.29296875,-0.15625,-1.25,1.0,-0.46875,0.0,0.0,0.0
1664371709399,-0.9609375,0.2861328,-0.16308594,-0.53125,0.5625,0.125,0.0,0.0,0.0
1664371709461,-0.9609375,0.28320312,-0.16113281,1.375,-0.03125,0.5625,0.0,0.0,0.0
1664371709491,-0.95214844,0.29003906,-0.16796875,1.5625,-0.34375,0.25,0.0,0.0,0.0
1664371709520,-0.9501953,0.29492188,-0.16308594,1.4375,-0.40625,0.0,0.0,0.0,0.0
1664371709613,-0.953125,0.2919922,-0.17480469,0.5625,-0.28125,0.0,-57.625,23.875,-147.9375
1664371709615,-0.96191406,0.28808594,-0.17089844,0.40625,0.03125,0.4375,0.0,0.0,0.0
1664371709640,-0.9501953,0.296875,-0.15039062,-0.15625,-0.15625,0.0,0.0,0.0,0.0
1664371709699,-0.95996094,0.27929688,-0.16210938,-0.03125,-0.28125,0.0,0.0,0.0,0.0
1664371709730,-0.9501953,0.2841797,-0.16113281,0.34375,-0.34375,0.0,0.0,0.0,0.0
1664371709761,-0.9580078,0.29492188,-0.16796875,0.9375,-0.34375,0.0625,0.0,0.0,0.0
1664371709819,-0.95214844,0.30859375,-0.15039062,1.25,-0.46875,0.25,0.0,0.0,0.0
1664371709849,-0.9589844,0.2939453,-0.15234375,0.8125,-0.40625,0.0625,0.0,0.0,0.0
1664371709879,-0.9482422,0.30566406,-0.16894531,-0.03125,0.03125,-0.125,0.0,0.0,0.0
1664371709939,-0.95703125,0.30273438,-0.16015625,-0.59375,0.09375,0.0625,0.0,0.0,0.0
1664371709972,-0.95410156,0.3095703,-0.16796875,-1.25,-0.03125,-0.125,0.0,0.0,0.0
1664371710000,-0.9511719,0.29101562,-0.15820312,-1.5625,0.03125,-0.65625,0.0,0.0,0.0
1664371710091,-0.9589844,0.29003906,-0.17578125,-0.40625,-0.21875,-0.53125,-57.125,24.625,-147.625
1664371710092,-0.95703125,0.2998047,-0.16113281,-0.09375,-0.34375,0.0,0.0,0.0,0.0
1664371710119,-0.9638672,0.296875,-0.15917969,-0.40625,-0.34375,0.1875,0.0,0.0,0.0
1664371710209,-0.953125,0.29882812,-0.16601562,-0.15625,-0.40625,-0.125,0.0,0.0,0.0
1664371710211,-0.9511719,0.296875,-0.14941406,-0.78125,-0.15625,-0.1875,0.0,0.0,0.0
1664371710241,-0.95214844,0.2890625,-0.16601562,-0.84375,-0.03125,0.125,0.0,0.0,0.0
1664371710302,-0.95996094,0.28515625,-0.16699219,-0.53125,-0.21875,0.0,0.0,0.0,0.0
1664371710328,-0.95214844,0.30078125,-0.16796875,-0.03125,-0.34375,0.125,0.0,0.0,0.0
1664371710359,-0.9580078,0.296875,-0.15429688,0.03125,-0.09375,0.1875,0.0,0.0,0.0
1664371710421,-0.9560547,0.29003906,-0.15625,1.0625,-0.53125,0.0625,0.0,0.0,0.0
1664371710450,-0.95214844,0.2998047,-0.1640625,1.0,-0.65625,0.0,0.0,0.0,0.0
1664371710480,-0.9482422,0.29785156,-0.16503906,0.75,-0.65625,-0.1875,0.0,0.0,0.0
1664371710540,-0.96191406,0.30273438,-0.15332031,0.875,-0.65625,0.0625,0.0,0.0,0.0
1664371710570,-0.96191406,0.30273438,-0.16015625,0.46875,-0.53125,0.0625,-57.125,24.3125,-148.6875
1664371710600,-0.9589844,0.30371094,-0.16699219,-0.03125,-0.34375,0.0625,0.0,0.0,0.0
1664371710659,-0.95703125,0.30664062,-0.15429688,-0.09375,-0.15625,-0.53125,0.0,0.0,0.0
1664371710692,-0.95410156,0.29882812,-0.15039062,-0.03125,-0.34375,-0.46875,0.0,0.0,0.0
1664371710719,-0.96484375,0.2919922,-0.16992188,-0.53125,-0.21875,0.0,0.0,0.0,0.0
1664371710780,-0.96484375,0.30273438,-0.15820312,-0.28125,-0.34375,-0.0625,0.0,0.0,0.0
1664371710810,-0.95410156,0.2890625,-0.16699219,-0.34375,-0.34375,-0.46875,0.0,0.0,0.0
1664371710838,-0.9638672,0.30566406,-0.16992188,-0.65625,0.09375,-0.0625,0.0,0.0,0.0
1664371710928,-0.9453125,0.2998047,-0.17382812,-0.78125,-0.21875,0.125,0.0,0.0,0.0
1664371710932,-0.9609375,0.3046875,-0.1796875,-0.65625,0.03125,-0.0625,0.0,0.0,0.0
1664371710959,-0.9501953,0.2890625,-0.14648438,-0.78125,-0.34375,0.125,0.0,0.0,0.0
1664371711049,-0.9560547,0.29296875,-0.140625,0.28125,0.1875,0.9375,0.0,0.0,0.0
1664371711051,-0.9511719,0.30371094,-0.15039062,0.75,-0.53125,0.5625,0.0,0.0,0.0
1664371711080,-0.9550781,0.2939453,-0.1640625,0.9375,-0.40625,-0.40625,-57.875,25.375,-147.375
1664371711141,-0.9609375,0.2939453,-0.15625,1.1875,0.03125,0.25,0.0,0.0,0.0
1664371711170,-0.96484375,0.29589844,-0.16113281,0.75,0.09375,0.8125,0.0,0.0,0.0
1664371711199,-0.9472656,0.296875,-0.15234375,-0.21875,-0.28125,-0.25,0.0,0.0,0.0
1664371711260,-0.96777344,0.29882812,-0.15429688,-1.4375,0.15625,-1.15625,0.0,0.0,0.0
1664371711291,-0.9550781,0.29003906,-0.14550781,-1.625,0.03125,-0.96875,0.0,0.0,0.0
1664371711318,-0.94921875,0.2998047,-0.15332031,-1.375,-0.03125,-0.59375,0.0,0.0,0.0
1664371711380,-0.9550781,0.296875,-0.15722656,-0.53125,-0.09375,-0.3125,0.0,0.0,0.0
1664371711410,-0.9589844,0.296875,-0.16015625,0.46875,-0.34375,0.25,0.0,0.0,0.0
1664371711440,-0.9589844,0.3046875,-0.15917969,0.6875,-0.21875,-0.125,0.0,0.0,0.0
1664371711502,-0.9550781,0.296875,-0.16308594,-0.28125,0.03125,-0.1875,0.0,0.0,0.0
1664371711530,-0.94921875,0.3017578,-0.15820312,-0.78125,-0.28125,-0.0625,0.0,0.0,0.0
1664371711560,-0.9580078,0.30273438,-0.15234375,-0.78125,0.3125,-0.25,-57.4375,24.1875,-148.125
1664371711621,-0.9550781,0.2890625,-0.16015625,-0.03125,0.03125,0.0,0.0,0.0,0.0
1664371711650,-0.9501953,0.29589844,-0.14746094,-0.40625,-0.03125,0.0,0.0,0.0,0.0
1664371711680,-0.9580078,0.296875,-0.15234375,0.03125,0.09375,-0.3125,0.0,0.0,0.0
1664371711740,-0.95996094,0.296875,-0.15722656,-0.53125,-0.03125,-0.1875,0.0,0.0,0.0
1664371711771,-0.9560547,0.30078125,-0.15527344,-0.21875,0.15625,0.0,0.0,0.0,0.0
1664371711800,-0.9628906,0.29492188,-0.16796875,0.15625,0.09375,-0.25,0.0,0.0,0.0
1664371711891,-0.95996094,0.2998047,-0.15527344,0.15625,-0.21875,-0.0625,0.0,0.0,0.0
1664371711895,-0.96484375,0.2998047,-0.16308594,0.15625,0.1875,-0.3125,0.0,0.0,0.0
1664371711920,-0.9472656,0.29492188,-0.16210938,-0.03125,-0.15625,-0.125,0.0,0.0,0.0
1664371711981,-0.95410156,0.29589844,-0.16210938,0.15625,0.03125,-0.125,0.0,0.0,0.0
1664371712011,-0.95703125,0.2998047,-0.17285156,0.03125,0.09375,-0.0625,0.0,0.0,0.0
1664371712040,-0.9628906,0.29882812,-0.15136719,0.09375,-0.15625,-0.34375,0.0,0.0,0.0
1664371712099,-0.95996094,0.29492188,-0.14550781,0.21875,-0.09375,-0.25,-58.0625,23.75,-147.8125
1664371712129,-0.953125,0.2890625,-0.15136719,0.15625,-0.09375,0.0,0.0,0.0,0.0
1664371712160,-0.9580078,0.30078125,-0.16601562,0.09375,0.15625,-0.125,0.0,0.0,0.0
1664371712220,-0.9472656,0.3017578,-0.14648438,-0.03125,-0.03125,0.125,0.0,0.0,0.0
1664371712250,-0.9550781,0.296875,-0.14160156,0.28125,-0.21875,-0.0625,0.0,0.0,0.0
1664371712280,-0.94628906,0.28710938,-0.1484375,-0.03125,-0.21875,-0.1875,0.0,0.0,0.0
1664371712341,-0.95703125,0.2939453,-0.16503906,0.75,-0.34375,0.0,0.0,0.0,0.0
1664371712370,-0.9589844,0.3046875,-0.15820312,0.6875,-0.40625,-0.0625,0.0,0.0,0.0
1664371712400,-0.9628906,0.30273438,-0.16308594,0.5625,0.03125,-0.0625,0.0,0.0,0.0
1664371712461,-0.9501953,0.3017578,-0.16699219,0.28125,-0.21875,0.25,0.0,0.0,0.0
1664371712492,-0.9589844,0.2939453,-0.16503906,-0.03125,0.03125,-0.1875,0.0,0.0,0.0
1664371712521,-0.9609375,0.29296875,-0.15039062,-0.15625,0.03125,-0.0625,0.0,0.0,0.0
1664371712578,-0.9589844,0.30664062,-0.16113281,-0.09375,0.375,0.3125,-58.0625,24.1875,-147.8125
1664371712611,-0.9482422,0.2998047,-0.15429688,-0.59375,0.4375,0.0,0.0,0.0,0.0
1664371712640,-0.96191406,0.296875,-0.16015625,-0.78125,0.375,-0.125,0.0,0.0,0.0
1664371712698,-0.9609375,0.29492188,-0.15527344,-0.84375,0.25,-0.25,0.0,0.0,0.0
1664371712729,-0.953125,0.29589844,-0.15820312,-0.9375,0.09375,-0.1875,0.0,0.0,0.0
1664371712759,-0.95410156,0.2998047,-0.16992188,-0.65625,0.3125,-0.3125,0.0,0.0,0.0
1664371712822,-0.94921875,0.29785156,-0.15820312,-0.78125,0.03125,-0.1875,0.0,0.0,0.0
1664371712850,-0.95703125,0.2919922,-0.16601562,-0.59375,-0.21875,0.0,0.0,0.0,0.0
1664371712880,-0.9453125,0.2998047,-0.16699219,-0.09375,-0.09375,-0.40625,0.0,0.0,0.0
1664371712941,-0.953125,0.2939453,-0.16113281,0.03125,0.09375,0.0625,0.0,0.0,0.0
1664371712971,-0.9628906,0.2939453,-0.16894531,-0.09375,-0.15625,-0.0625,0.0,0.0,0.0
1664371713000,-0.9628906,0.29492188,-0.15722656,0.03125,0.25,0.0,0.0,0.0,0.0
1664371713059,-0.953125,0.2998047,-0.1484375,0.46875,0.15625,0.375,0.0,0.0,0.0
1664371713090,-0.94921875,0.296875,-0.16015625,-0.59375,-0.21875,-0.1875,-57.875,23.5625,-147.9375
1664371713122,-0.9580078,0.3017578,-0.15625,-0.21875,-0.15625,-0.78125,0.0,0.0,0.0
1664371713178,-0.9511719,0.29785156,-0.16308594,-0.21875,-0.46875,-0.59375,0.0,0.0,0.0
1664371713210,-0.9511719,0.296875,-0.16601562,-0.28125,-0.34375,-0.65625,0.0,0.0,0.0
1664371713241,-0.95410156,0.29003906,-0.17675781,0.09375,-0.53125,-0.40625,0.0,0.0,0.0
1664371713301,-0.9580078,0.29003906,-0.17089844,0.8125,-0.59375,-0.125,0.0,0.0,0.0
1664371713328,-0.94921875,0.296875,-0.15039062,-0.03125,-0.46875,0.3125,0.0,0.0,0.0
1664371713361,-0.9550781,0.29882812,-0.14355469,-0.53125,0.03125,0.3125,0.0,0.0,0.0
1664371713419,-0.95703125,0.29003906,-0.17382812,-1.3125,0.09375,0.3125,0.0,0.0,0.0
1664371713450,-0.9609375,0.2919922,-0.14746094,-2.59375,0.25,0.0,0.0,0.0,0.0
1664371713480,-0.9501953,0.28125,-0.14648438,-1.9375,-0.03125,-0.34375,0.0,0.0,0.0
1664371713539,-0.9589844,0.29101562,-0.16113281,-1.25,-0.09375,0.0,0.0,0.0,0.0
1664371713569,-0.9511719,0.2939453,-0.15332031,-0.65625,-0.59375,0.1875,-56.5625,25.0625,-148.375
1664371713601,-0.9580078,0.29492188,-0.1484375,-0.09375,-0.96875,0.125,0.0,0.0,0.0
1664371713659,-0.95214844,0.30566406,-0.14746094,0.5,-0.40625,0.125,0.0,0.0,0.0
1664371713689,-0.95703125,0.29589844,-0.15625,0.03125,-0.65625,0.25,0.0,0.0,0.0
1664371713719,-0.9550781,0.2998047,-0.15625,-0.09375,-0.78125,0.0,0.0,0.0,0.0
1664371713780,-0.953125,0.28808594,-0.14746094,-0.21875,-0.40625,-0.34375,0.0,0.0,0.0
1664371713809,-0.95703125,0.2890625,-0.1328125,-0.21875,-0.34375,0.125,0.0,0.0,0.0
1664371713839,-0.9638672,0.2939453,-0.15917969,0.40625,-0.15625,0.75,0.0,0.0,0.0
1664371713899,-0.95703125,0.30273438,-0.14257812,0.625,-0.65625,0.75,0.0,0.0,0.0
1664371713929,-0.9638672,0.29003906,-0.14648438,1.0625,-0.46875,0.3125,0.0,0.0,0.0
1664371713959,-0.9580078,0.29882812,-0.15136719,1.625,-0.34375,0.3125,0.0,0.0,0.0
1664371714021,-0.95703125,0.3076172,-0.17382812,1.3125,-0.28125,0.375,0.0,0.0,0.0
1664371714049,-0.94628906,0.30371094,-0.14648438,0.21875,-0.21875,-0.0625,0.0,0.0,0.0
1664371714079,-0.94433594,0.296875,-0.15136719,0.03125,0.15625,0.0,-55.625,24.8125,-147.5
1664371714170,-0.9589844,0.30078125,-0.15722656,0.03125,0.15625,0.75,0.0,0.0,0.0
1664371714174,-0.9560547,0.29101562,-0.16015625,-0.34375,0.09375,0.3125,0.0,0.0,0.0
1664371714199,-0.95703125,0.30078125,-0.15527344,-0.03125,-0.15625,-0.3125,0.0,0.0,0.0
1664371714260,-0.9560547,0.31347656,-0.15234375,0.8125,-0.40625,0.25,0.0,0.0,0.0
1664371714290,-0.9501953,0.30371094,-0.16210938,0.5,-0.09375,0.125,0.0,0.0,0.0
1664371714319,-0.9550781,0.31640625,-0.16015625,0.15625,-0.09375,0.1875,0.0,0.0,0.0
1664371714381,-0.9560547,0.30566406,-0.16015625,-0.28125,0.03125,0.0,0.0,0.0,0.0
1664371714410,-0.9472656,0.296875,-0.13476562,-0.65625,-0.03125,0.0625,0.0,0.0,0.0
1664371714440,-0.9589844,0.29492188,-0.15625,-0.46875,-0.28125,-0.1875,0.0,0.0,0.0
1664371714501,-0.95996094,0.29882812,-0.14941406,-0.03125,-0.09375,-0.0625,0.0,0.0,0.0
1664371714530,-0.9580078,0.29882812,-0.1484375,0.15625,-0.46875,0.0,0.0,0.0,0.0
1664371714559,-0.9560547,0.3046875,-0.15625,-0.03125,-0.34375,-0.1875,-57.4375,25.5625,-147.1875
1664371714620,-0.95703125,0.30371094,-0.15722656,-0.28125,-0.46875,0.0625,0.0,0.0,0.0
1664371714651,-0.9580078,0.3046875,-0.15820312,-0.40625,0.03125,-0.0625,0.0,0.0,0.0
1664371714679,-0.9501953,0.29492188,-0.15722656,-0.09375,-0.65625,0.0,0.0,0.0,0.0
1664371714739,-0.9550781,0.2998047,-0.14746094,0.03125,-0.40625,0.0,0.0,0.0,0.0
1664371714771,-0.95410156,0.2998047,-0.15429688,0.6875,-0.59375,-0.1875,0.0,0.0,0.0
1664371714799,-0.9482422,0.30371094,-0.1484375,0.5625,-1.15625,-0.25,0.0,0.0,0.0
1664371714860,-0.95703125,0.2998047,-0.140625,0.15625,-0.71875,-0.40625,0.0,0.0,0.0
1664371714889,-0.953125,0.31152344,-0.14941406,1.125,-0.96875,0.0625,0.0,0.0,0.0
1664371714919,-0.96875,0.30078125,-0.15917969,0.15625,-0.46875,0.5625,0.0,0.0,0.0
1664371714980,-0.9589844,0.2939453,-0.16113281,-0.40625,-0.78125,0.625,0.0,0.0,0.0
1664371715011,-0.95703125,0.30078125,-0.16308594,-0.46875,-0.21875,-0.25,0.0,0.0,0.0
1664371715039,-0.9589844,0.29785156,-0.15234375,0.09375,-0.40625,0.0,0.0,0.0,0.0
1664371715098,-0.95214844,0.31152344,-0.15332031,-0.34375,-0.71875,-0.25,-57.625,23.875,-147.9375
1664371715130,-0.95214844,0.29882812,-0.140625,-0.21875,-0.59375,-0.25,0.0,0.0,0.0
1664371715159,-0.9589844,0.29882812,-0.15625,0.09375,-0.21875,-0.25,0.0,0.0,0.0
1664371715219,-0.95410156,0.3095703,-0.15722656,-0.09375,-0.65625,-0.0625,0.0,0.0,0.0
1664371715249,-0.9589844,0.2939453,-0.14941406,-0.46875,-0.78125,0.0,0.0,0.0,0.0
1664371715281,-0.9550781,0.29882812,-0.13769531,0.21875,-0.96875,-0.53125,0.0,0.0,0.0
1664371715337,-0.95410156,0.30859375,-0.14746094,0.5,-0.46875,-0.40625,0.0,0.0,0.0
1664371715369,-0.9550781,0.31347656,-0.14550781,0.15625,-0.34375,0.0,0.0,0.0,0.0
1664371715398,-0.94921875,0.30566406,-0.14257812,0.15625,-0.78125,-0.125,0.0,0.0,0.0
1664371715459,-0.95996094,0.3095703,-0.14355469,-0.03125,-0.15625,-0.53125,0.0,0.0,0.0
1664371715490,-0.9638672,0.29492188,-0.13769531,-0.03125,-0.15625,-0.53125,0.0,0.0,0.0
1664371715519,-0.9560547,0.2998047,-0.15625,0.9375,-0.40625,-0.34375,0.0,0.0,0.0
1664371715578,-0.953125,0.3046875,-0.14648438,1.0,-0.96875,-0.40625,-58.8125,23.4375,-147.1875
1664371715610,-0.9560547,0.3046875,-0.13867188,0.625,-0.40625,-0.3125,0.0,0.0,0.0
1664371715640,-0.953125,0.2998047,-0.14160156,0.03125,-0.09375,-0.125,0.0,0.0,0.0
1664371715671,-0.953125,0.3017578,-0.15039062,-0.40625,-0.09375,-0.125,0.0,0.0,0.0
1664371715731,-0.95703125,0.29492188,-0.15527344,-0.65625,-0.03125,-0.1875,0.0,0.0,0.0
1664371715760,-0.9580078,0.29589844,-0.15625,-0.09375,-0.34375,-0.46875,0.0,0.0,0.0
1664371715792,-0.94921875,0.29492188,-0.13085938,-0.46875,0.09375,-0.34375,0.0,0.0,0.0
1664371715850,-0.9580078,0.30566406,-0.15039062,-0.40625,-0.34375,-0.3125,0.0,0.0,0.0
1664371715881,-0.9560547,0.30273438,-0.13671875,-0.65625,0.15625,-0.1875,0.0,0.0,0.0
1664371715910,-0.9560547,0.30078125,-0.1484375,-0.875,-0.03125,0.0,0.0,0.0,0.0
1664371715970,-0.95703125,0.30566406,-0.13085938,-0.34375,-0.21875,-0.40625,0.0,0.0,0.0
1664371716000,-0.95214844,0.296875,-0.13964844,-0.40625,-0.03125,-0.125,0.0,0.0,0.0
1664371716031,-0.95996094,0.29492188,-0.13867188,-0.28125,-0.09375,-0.1875,0.0,0.0,0.0
1664371716091,-0.9589844,0.30664062,-0.13574219,-0.03125,-0.15625,-0.125,-56.875,25.0625,-147.625
1664371716120,-0.9628906,0.30078125,-0.1328125,-0.21875,-0.15625,-0.40625,0.0,0.0,0.0
1664371716150,-0.95214844,0.29589844,-0.12792969,0.03125,-0.09375,-0.34375,0.0,0.0,0.0
1664371716208,-0.95996094,0.30566406,-0.15234375,0.09375,-0.03125,-0.46875,0.0,0.0,0.0
1664371716243,-0.9511719,0.30371094,-0.13769531,0.21875,0.03125,-0.3125,0.0,0.0,0.0
1664371716269,-0.953125,0.3046875,-0.140625,0.03125,0.03125,-0.125,0.0,0.0,0.0
1664371716329,-0.95703125,0.30371094,-0.15820312,0.03125,0.09375,-0.3125,0.0,0.0,0.0
1664371716360,-0.95996094,0.30078125,-0.13671875,0.03125,0.15625,-0.3125,0.0,0.0,0.0
1664371716390,-0.94921875,0.296875,-0.14257812,-0.53125,-0.09375,-0.46875,0.0,0.0,0.0
1664371716448,-0.96484375,0.30859375,-0.14941406,-0.34375,-0.09375,-0.53125,0.0,0.0,0.0
1664371716478,-0.9550781,0.30664062,-0.14355469,-0.28125,0.3125,-0.3125,0.0,0.0,0.0
1664371716511,-0.95410156,0.29882812,-0.13964844,-0.71875,0.25,-0.1875,0.0,0.0,0.0
1664371716568,-0.95703125,0.30078125,-0.14160156,-0.15625,0.25,-0.40625,-55.9375,24.1875,-147.8125
1664371716601,-0.9472656,0.28710938,-0.14257812,-0.03125,0.1875,-0.46875,0.0,0.0,0.0
1664371716629,-0.9638672,0.29785156,-0.14746094,0.46875,0.25,-0.40625,0.0,0.0,0.0
1664371716689,-0.95996094,0.2998047,-0.15332031,0.28125,-0.03125,-0.65625,0.0,0.0,0.0
1664371716720,-0.9580078,0.3017578,-0.1328125,0.40625,0.09375,-0.84375,0.0,0.0,0.0
1664371716749,-0.9501953,0.29785156,-0.15039062,0.28125,0.375,-0.59375,0.0,0.0,0.0
1664371716809,-0.9658203,0.2939453,-0.14648438,-0.09375,0.4375,-0.71875,0.0,0.0,0.0
1664371716839,-0.9609375,0.2939453,-0.140625,-0.21875,0.09375,-0.84375,0.0,0.0,0.0
1664371716870,-0.95996094,0.2890625,-0.1328125,-0.15625,0.1875,-0.96875,0.0,0.0,0.0
1664371716930,-0.9580078,0.29003906,-0.15136719,-0.09375,0.3125,-0.84375,0.0,0.0,0.0
1664371716959,-0.96191406,0.29589844,-0.14160156,0.15625,0.1875,-0.53125,0.0,0.0,0.0
1664371716989,-0.95703125,0.29296875,-0.14257812,0.40625,0.03125,-0.53125,0.0,0.0,0.0
1664371717049,-0.95996094,0.296875,-0.15136719,0.28125,0.3125,-0.59375,0.0,0.0,0.0
1664371717079,-0.9580078,0.29882812,-0.14257812,0.03125,0.4375,-0.3125,-58.625,23.3125,-148.6875
1664371717110,-0.95703125,0.28710938,-0.15234375,-0.34375,0.1875,-0.40625,0.0,0.0,0.0
1664371717171,-0.9589844,0.2939453,-0.15332031,0.34375,0.3125,-0.34375,0.0,0.0,0.0
1664371717198,-0.9550781,0.29296875,-0.14648438,0.28125,0.09375,-0.34375,0.0,0.0,0.0
1664371717229,-0.9560547,0.296875,-0.16015625,0.40625,0.09375,-0.59375,0.0,0.0,0.0
1664371717290,-0.953125,0.296875,-0.14160156,0.625,-0.40625,-0.40625,0.0,0.0,0.0
1664371717319,-0.9589844,0.29492188,-0.14648438,0.875,-0.40625,-0.34375,0.0,0.0,0.0
1664371717352,-0.9560547,0.2998047,-0.14648438,0.40625,-0.28125,-0.125,0.0,0.0,0.0
1664371717410,-0.9550781,0.3017578,-0.140625,0.625,0.03125,-0.0625,0.0,0.0,0.0
1664371717439,-0.9501953,0.29101562,-0.14160156,0.09375,-0.21875,-0.34375,0.0,0.0,0.0
1664371717469,-0.9589844,0.29589844,-0.14160156,0.40625,-0.03125,-0.25,0.0,0.0,0.0
1664371717530,-0.9609375,0.296875,-0.15332031,0.09375,-0.15625,-0.40625,0.0,0.0,0.0
1664371717560,-0.9501953,0.27734375,-0.13964844,-0.34375,-0.03125,-0.3125,-57.125,24.3125,-145.875
1664371717650,-0.95996094,0.29296875,-0.1484375,0.21875,0.3125,-0.1875,0.0,0.0,0.0
1664371717652,-0.9609375,0.2939453,-0.14746094,0.5625,0.1875,0.0625,0.0,0.0,0.0
1664371717680,-0.9511719,0.2939453,-0.12988281,0.15625,0.15625,-0.34375,0.0,0.0,0.0
1664371717709,-0.9609375,0.2919922,-0.1484375,0.34375,0.15625,-0.34375,0.0,0.0,0.0
1664371717771,-0.953125,0.28808594,-0.14160156,0.9375,0.09375,-0.1875,0.0,0.0,0.0
1664371717801,-0.95214844,0.29492188,-0.15234375,0.28125,0.375,0.125,0.0,0.0,0.0
1664371717830,-0.95214844,0.29882812,-0.140625,0.21875,0.3125,-0.0625,0.0,0.0,0.0
1664371717889,-0.9589844,0.30371094,-0.14160156,-0.09375,0.25,-0.59375,0.0,0.0,0.0
1664371717921,-0.9628906,0.29492188,-0.14160156,-0.03125,0.25,-0.25,0.0,0.0,0.0
1664371717950,-0.95214844,0.2890625,-0.15527344,-0.03125,0.5625,0.0,0.0,0.0,0.0
1664371718010,-0.95410156,0.29492188,-0.14746094,0.03125,0.5625,-0.1875,0.0,0.0,0.0
1664371718041,-0.95996094,0.29492188,-0.14550781,0.09375,0.4375,-0.125,0.0,0.0,0.0
1664371718070,-0.9658203,0.2890625,-0.14648438,0.09375,0.3125,-0.0625,-57.125,24.3125,-147.375
1664371718130,-0.9560547,0.3017578,-0.15039062,0.75,0.1875,0.0,0.0,0.0,0.0
1664371718160,-0.9609375,0.29589844,-0.15820312,0.46875,0.1875,-0.0625,0.0,0.0,0.0
1664371718191,-0.9628906,0.30371094,-0.14746094,-0.03125,0.15625,-0.125,0.0,0.0,0.0
1664371718250,-0.9628906,0.2998047,-0.14746094,-0.15625,0.4375,-0.1875,0.0,0.0,0.0
1664371718280,-0.9580078,0.29785156,-0.14941406,0.03125,0.3125,0.1875,0.0,0.0,0.0
1664371718310,-0.95996094,0.29785156,-0.1484375,0.03125,0.5,0.0625,0.0,0.0,0.0
1664371718371,-0.9609375,0.29492188,-0.15332031,0.15625,0.15625,-0.46875,0.0,0.0,0.0
1664371718400,-0.95703125,0.28808594,-0.14550781,0.15625,0.09375,-0.46875,0.0,0.0,0.0
1664371718430,-0.9589844,0.28808594,-0.15332031,0.21875,0.375,-0.3125,0.0,0.0,0.0
1664371718490,-0.96777344,0.29296875,-0.12695312,0.21875,0.15625,0.125,0.0,0.0,0.0
1664371718520,-0.9560547,0.29003906,-0.13671875,0.03125,0.1875,-0.1875,0.0,0.0,0.0
1664371718549,-0.9560547,0.29003906,-0.14160156,-0.21875,0.4375,0.0,-56.875,25.0625,-146.875
1664371718611,-0.9501953,0.29589844,-0.14160156,0.15625,0.4375,0.0625,0.0,0.0,0.0
1664371718641,-0.95996094,0.29101562,-0.14355469,-0.46875,0.5625,-0.0625,0.0,0.0,0.0
1664371718670,-0.95996094,0.29785156,-0.1484375,-0.15625,0.5625,-0.1875,0.0,0.0,0.0
1664371718730,-0.95996094,0.29492188,-0.14453125,-0.03125,0.5,0.0625,0.0,0.0,0.0
1664371718760,-0.9589844,0.30371094,-0.14648438,-0.03125,0.625,0.125,0.0,0.0,0.0
1664371718790,-0.96484375,0.29785156,-0.14160156,-0.53125,0.6875,0.125,0.0,0.0,0.0
1664371718849,-0.95703125,0.29101562,-0.140625,-0.28125,0.75,-0.0625,0.0,0.0,0.0
1664371718880,-0.9560547,0.29785156,-0.14160156,0.03125,0.15625,-0.34375,0.0,0.0,0.0
1664371718909,-0.9589844,0.29882812,-0.15136719,0.21875,0.09375,-0.53125,0.0,0.0,0.0
1664371718971,-0.95703125,0.2939453,-0.14746094,0.15625,0.5625,-0.1875,0.0,0.0,0.0
1664371719001,-0.9609375,0.29101562,-0.15039062,-0.28125,0.25,-0.0625,0.0,0.0,0.0
1664371719031,-0.95996094,0.29101562,-0.14746094,-0.03125,0.8125,-0.125,0.0,0.0,0.0
1664371719089,-0.9609375,0.29101562,-0.15722656,-0.09375,0.3125,0.0625,-56.5625,25.0625,-147.625
1664371719120,-0.95410156,0.28710938,-0.14355469,0.5625,-0.09375,-0.0625,0.0,0.0,0.0
1664371719151,-0.94921875,0.29492188,-0.14257812,0.9375,0.03125,-0.1875,0.0,0.0,0.0
1664371719212,-0.95996094,0.28710938,-0.1328125,0.625,-0.15625,-0.0625,0.0,0.0,0.0
1664371719241,-0.9453125,0.2861328,-0.15722656,0.6875,0.03125,0.3125,0.0,0.0,0.0
1664371719271,-0.95214844,0.30078125,-0.1328125,0.46875,-0.09375,0.25,0.0,0.0,0.0
1664371719328,-0.9609375,0.29492188,-0.14355469,0.15625,-0.03125,0.0,0.0,0.0,0.0
1664371719360,-0.9628906,0.29492188,-0.14355469,0.5625,0.09375,0.1875,0.0,0.0,0.0
1664371719389,-0.96191406,0.2919922,-0.16210938,0.28125,0.09375,0.25,0.0,0.0,0.0
1664371719448,-0.9638672,0.2998047,-0.13671875,0.28125,0.1875,0.3125,0.0,0.0,0.0
1664371719483,-0.9628906,0.29492188,-0.13867188,0.09375,-0.03125,0.125,0.0,0.0,0.0
1664371719510,-0.9628906,0.2998047,-0.14746094,0.15625,0.375,0.125,0.0,0.0,0.0
1664371719571,-0.9433594,0.29589844,-0.13964844,0.21875,0.1875,0.1875,-58.375,24.625,-147.625
1664371719600,-0.9511719,0.29296875,-0.16308594,0.09375,0.25,0.5625,0.0,0.0,0.0
1664371719630,-0.95996094,0.3046875,-0.17089844,-0.03125,0.3125,0.1875,0.0,0.0,0.0
1664371719690,-0.9560547,0.2890625,-0.15039062,0.03125,0.1875,0.0625,0.0,0.0,0.0
1664371719720,-0.9589844,0.29589844,-0.13769531,0.21875,0.1875,0.3125,0.0,0.0,0.0
1664371719750,-0.9589844,0.29101562,-0.14550781,0.15625,0.09375,0.375,0.0,0.0,0.0
1664371719811,-0.9589844,0.3154297,-0.13867188,0.15625,0.25,0.25,0.0,0.0,0.0
1664371719840,-0.9560547,0.3046875,-0.14453125,0.03125,0.09375,0.1875,0.0,0.0,0.0
1664371719870,-0.9550781,0.29882812,-0.14648438,-0.21875,0.03125,0.375,0.0,0.0,0.0
1664371719929,-0.9638672,0.29785156,-0.1484375,0.28125,0.25,0.5,0.0,0.0,0.0
1664371719958,-0.95214844,0.296875,-0.14941406,0.5625,0.1875,0.4375,0.0,0.0,0.0
1664371719990,-0.9580078,0.30566406,-0.14746094,0.5,-0.21875,0.375,0.0,0.0,0.0
1664371720050,-0.95703125,0.28808594,-0.14550781,0.75,0.15625,0.125,0.0,0.0,0.0
1664371720079,-0.9580078,0.30273438,-0.14648438,0.21875,0.03125,0.3125,-56.6875,25.25,-148.125
1664371720110,-0.95703125,0.30078125,-0.13574219,0.15625,0.1875,0.3125,0.0,0.0,0.0
1664371720171,-0.95996094,0.2998047,-0.13085938,0.03125,0.1875,0.4375,0.0,0.0,0.0
1664371720199,-0.95703125,0.30078125,-0.13476562,-0.28125,0.09375,0.3125,0.0,0.0,0.0
1664371720229,-0.95410156,0.30371094,-0.15722656,0.03125,0.25,0.25,0.0,0.0,0.0
1664371720290,-0.9472656,0.29296875,-0.14257812,0.15625,0.375,0.375,0.0,0.0,0.0
1664371720317,-0.9589844,0.30371094,-0.15136719,0.03125,0.15625,0.375,0.0,0.0,0.0
1664371720347,-0.9550781,0.30273438,-0.14746094,-0.21875,0.09375,0.25,0.0,0.0,0.0
1664371720409,-0.9580078,0.29882812,-0.14355469,0.09375,0.03125,0.3125,0.0,0.0,0.0
