# Sensor type: Thingy
# Activity type: Sitting bent backward
# Activity code: 5
# Subject id: s1912575
# Notes: 
timestamp,accel_x,accel_y,accel_z,gyro_x,gyro_y,gyro_z,mag_x,mag_y,mag_z
1664371639230,-0.63183594,-0.41015625,0.64453125,0.21875,0.0,-0.34375,0.0,0.0,0.0
1664371639257,-0.63183594,-0.41503906,0.6425781,0.125,0.0,-0.21875,0.0,0.0,0.0
1664371639318,-0.6279297,-0.42089844,0.640625,0.0625,0.0,-0.34375,0.0,0.0,0.0
1664371639349,-0.63378906,-0.41015625,0.640625,0.1875,0.0625,-0.40625,0.0,0.0,0.0
1664371639380,-0.6230469,-0.41015625,0.64941406,0.1875,-0.0625,-0.28125,0.0,0.0,0.0
1664371639439,-0.6376953,-0.42089844,0.6464844,0.0,-0.1875,-0.09375,0.0,0.0,0.0
1664371639469,-0.62597656,-0.40722656,0.63964844,0.125,0.0625,-0.15625,0.0,0.0,0.0
1664371639499,-0.6269531,-0.4091797,0.63964844,0.0,0.125,-0.34375,0.0,0.0,0.0
1664371639559,-0.6201172,-0.4169922,0.6347656,-0.0625,-0.125,-0.21875,0.0,0.0,0.0
1664371639589,-0.63671875,-0.41796875,0.6542969,0.0625,0.1875,0.03125,-40.5,-4.9375,-105.625
1664371639619,-0.6220703,-0.4091797,0.62890625,-0.1875,-0.21875,-0.09375,0.0,0.0,0.0
1664371639681,-0.6298828,-0.40722656,0.63964844,0.0625,0.0,-0.34375,0.0,0.0,0.0
1664371639709,-0.62597656,-0.41308594,0.64941406,-0.0625,-0.0625,-0.21875,0.0,0.0,0.0
1664371639740,-0.6279297,-0.4169922,0.64941406,0.21875,-0.34375,0.15625,0.0,0.0,0.0
1664371639801,-0.6279297,-0.41308594,0.6376953,0.0,-0.28125,0.15625,0.0,0.0,0.0
1664371639830,-0.625,-0.42089844,0.6503906,-0.125,-0.21875,0.09375,0.0,0.0,0.0
1664371639859,-0.6298828,-0.41308594,0.63964844,0.0,-0.0625,0.15625,0.0,0.0,0.0
1664371639920,-0.6347656,-0.40527344,0.63671875,-0.1875,-0.1875,0.28125,0.0,0.0,0.0
1664371639953,-0.6357422,-0.40625,0.6503906,-0.5,0.0625,-0.03125,0.0,0.0,0.0
1664371639980,-0.63378906,-0.42089844,0.62890625,-0.375,0.0,-0.09375,0.0,0.0,0.0
1664371640042,-0.6357422,-0.41503906,0.63378906,-0.375,-0.0625,-0.15625,0.0,0.0,0.0
1664371640070,-0.63183594,-0.41601562,0.6455078,0.0,-0.28125,-0.34375,-41.375,-4.75,-105.5
1664371640099,-0.6269531,-0.4189453,0.6435547,0.125,0.25,-0.21875,0.0,0.0,0.0
1664371640159,-0.6425781,-0.42578125,0.6435547,0.0625,-0.28125,-0.21875,0.0,0.0,0.0
1664371640190,-0.6357422,-0.4140625,0.6455078,0.1875,0.125,0.15625,0.0,0.0,0.0
1664371640219,-0.6279297,-0.40625,0.6669922,0.21875,-0.0625,-0.03125,0.0,0.0,0.0
1664371640282,-0.625,-0.41210938,0.6435547,0.0,-0.0625,-0.28125,0.0,0.0,0.0
1664371640310,-0.6269531,-0.4091797,0.6455078,-0.375,-0.125,-0.28125,0.0,0.0,0.0
1664371640340,-0.6279297,-0.41308594,0.6455078,0.125,-0.1875,0.15625,0.0,0.0,0.0
1664371640400,-0.6376953,-0.4140625,0.6542969,-0.125,0.0625,-0.03125,0.0,0.0,0.0
1664371640429,-0.6308594,-0.40722656,0.64453125,0.0625,0.0625,-0.03125,0.0,0.0,0.0
1664371640459,-0.62890625,-0.41503906,0.65625,0.0625,0.25,-0.03125,0.0,0.0,0.0
1664371640519,-0.6328125,-0.41796875,0.6347656,0.0,-0.1875,0.09375,0.0,0.0,0.0
1664371640550,-0.62890625,-0.4189453,0.64160156,0.0625,0.125,-0.09375,0.0,0.0,0.0
1664371640580,-0.63183594,-0.40820312,0.6347656,0.0,-0.125,0.21875,-40.9375,-4.75,-106.5625
1664371640640,-0.62890625,-0.41992188,0.63964844,0.0,-0.125,0.03125,0.0,0.0,0.0
1664371640671,-0.6298828,-0.40625,0.63671875,-0.125,-0.0625,-0.03125,0.0,0.0,0.0
1664371640699,-0.63671875,-0.41210938,0.63964844,0.0,0.125,-0.03125,0.0,0.0,0.0
1664371640759,-0.6357422,-0.4140625,0.64746094,-0.125,-0.28125,0.09375,0.0,0.0,0.0
1664371640790,-0.62890625,-0.421875,0.6425781,-0.1875,0.125,0.09375,0.0,0.0,0.0
1664371640820,-0.6376953,-0.4169922,0.6376953,0.0625,-0.21875,0.34375,0.0,0.0,0.0
1664371640879,-0.625,-0.41601562,0.6464844,-0.125,0.1875,-0.28125,0.0,0.0,0.0
1664371640912,-0.63183594,-0.42089844,0.6484375,0.0,-0.125,-0.15625,0.0,0.0,0.0
1664371640940,-0.6279297,-0.41015625,0.64746094,0.125,0.0625,-0.03125,0.0,0.0,0.0
1664371640999,-0.63183594,-0.4189453,0.6347656,0.0,-0.34375,0.03125,0.0,0.0,0.0
1664371641031,-0.6279297,-0.4111328,0.64453125,0.09375,0.21875,-0.03125,0.0,0.0,0.0
1664371641061,-0.6269531,-0.41601562,0.63964844,-0.03125,-0.1875,0.03125,-41.5625,-6.6875,-106.375
1664371641119,-0.6308594,-0.4111328,0.63964844,0.03125,0.03125,0.09375,0.0,0.0,0.0
1664371641149,-0.63671875,-0.4169922,0.6484375,-0.03125,-0.09375,-0.09375,0.0,0.0,0.0
1664371641241,-0.6376953,-0.4189453,0.6464844,-0.03125,-0.09375,0.03125,0.0,0.0,0.0
1664371641244,-0.6279297,-0.41503906,0.6455078,0.09375,-0.03125,-0.03125,0.0,0.0,0.0
1664371641269,-0.6386719,-0.41601562,0.640625,0.15625,0.15625,-0.15625,0.0,0.0,0.0
1664371641300,-0.6308594,-0.4111328,0.6513672,0.28125,-0.03125,-0.15625,0.0,0.0,0.0
1664371641359,-0.6230469,-0.41503906,0.6484375,0.15625,-0.09375,-0.03125,0.0,0.0,0.0
1664371641390,-0.63183594,-0.41796875,0.64160156,0.15625,0.03125,-0.09375,0.0,0.0,0.0
1664371641421,-0.6220703,-0.41796875,0.6435547,0.09375,0.03125,-0.15625,0.0,0.0,0.0
1664371641480,-0.63183594,-0.4140625,0.64453125,0.03125,-0.09375,0.34375,0.0,0.0,0.0
1664371641511,-0.62597656,-0.4169922,0.63183594,-0.21875,0.09375,-0.09375,0.0,0.0,0.0
1664371641539,-0.6376953,-0.40722656,0.63964844,-0.21875,-0.09375,-0.03125,0.0,0.0,0.0
1664371641599,-0.6269531,-0.41308594,0.6386719,-0.21875,-0.09375,0.09375,-39.625,-5.5,-106.125
1664371641630,-0.6171875,-0.41601562,0.6542969,-0.09375,-0.3125,0.34375,0.0,0.0,0.0
1664371641660,-0.6328125,-0.4111328,0.64746094,-0.09375,-0.03125,0.15625,0.0,0.0,0.0
1664371641719,-0.6357422,-0.41503906,0.6464844,0.15625,0.09375,0.34375,0.0,0.0,0.0
1664371641748,-0.62597656,-0.4140625,0.6357422,0.21875,0.21875,0.21875,0.0,0.0,0.0
1664371641780,-0.62402344,-0.40820312,0.6357422,0.03125,-0.1875,0.15625,0.0,0.0,0.0
1664371641839,-0.625,-0.4111328,0.6503906,-0.03125,-0.1875,0.40625,0.0,0.0,0.0
1664371641869,-0.6308594,-0.41308594,0.63183594,0.03125,-0.1875,0.34375,0.0,0.0,0.0
1664371641900,-0.625,-0.40820312,0.6533203,-0.03125,-0.09375,0.28125,0.0,0.0,0.0
1664371641958,-0.625,-0.40722656,0.6464844,-0.09375,-0.09375,0.09375,0.0,0.0,0.0
1664371641989,-0.6220703,-0.4111328,0.6357422,-0.03125,-0.03125,0.21875,0.0,0.0,0.0
1664371642019,-0.6201172,-0.41015625,0.65234375,0.03125,-0.03125,0.09375,0.0,0.0,0.0
1664371642081,-0.62597656,-0.41210938,0.6464844,0.15625,-0.15625,0.15625,-41.375,-5.5,-106.875
1664371642109,-0.6279297,-0.42089844,0.640625,0.15625,0.09375,0.21875,0.0,0.0,0.0
1664371642138,-0.6347656,-0.41015625,0.64746094,0.03125,-0.3125,0.34375,0.0,0.0,0.0
1664371642200,-0.6269531,-0.4189453,0.64160156,0.03125,0.03125,0.09375,0.0,0.0,0.0
1664371642230,-0.6347656,-0.4091797,0.64453125,-0.09375,-0.03125,0.09375,0.0,0.0,0.0
1664371642259,-0.6230469,-0.41601562,0.65234375,0.03125,-0.15625,0.21875,0.0,0.0,0.0
1664371642319,-0.63671875,-0.41015625,0.640625,-0.21875,-0.3125,-0.15625,0.0,0.0,0.0
1664371642350,-0.63378906,-0.41308594,0.63964844,0.15625,0.03125,-0.03125,0.0,0.0,0.0
1664371642379,-0.6279297,-0.41796875,0.63183594,0.15625,0.21875,-0.21875,0.0,0.0,0.0
1664371642410,-0.6298828,-0.40722656,0.6347656,0.15625,-0.1875,-0.09375,0.0,0.0,0.0
1664371642470,-0.6279297,-0.41601562,0.6386719,0.03125,-0.09375,-0.09375,0.0,0.0,0.0
1664371642497,-0.62890625,-0.40625,0.64160156,0.03125,-0.09375,0.09375,0.0,0.0,0.0
1664371642530,-0.6308594,-0.41601562,0.64746094,0.03125,-0.15625,-0.03125,0.0,0.0,0.0
1664371642589,-0.6328125,-0.41308594,0.6513672,0.09375,-0.09375,-0.15625,-40.0625,-3.875,-105.375
1664371642620,-0.62890625,-0.40820312,0.64453125,-0.03125,-0.03125,0.03125,0.0,0.0,0.0
1664371642649,-0.62402344,-0.41210938,0.64746094,0.03125,-0.1875,-0.09375,0.0,0.0,0.0
1664371642710,-0.6279297,-0.41015625,0.6298828,-0.21875,-0.09375,-0.09375,0.0,0.0,0.0
1664371642740,-0.63378906,-0.4140625,0.64941406,-0.09375,-0.1875,-0.21875,0.0,0.0,0.0
1664371642769,-0.62890625,-0.41992188,0.63964844,0.09375,0.15625,-0.03125,0.0,0.0,0.0
1664371642829,-0.62402344,-0.40429688,0.6328125,0.15625,-0.09375,-0.09375,0.0,0.0,0.0
1664371642859,-0.6269531,-0.40820312,0.64746094,0.15625,0.21875,-0.28125,0.0,0.0,0.0
1664371642888,-0.6328125,-0.41796875,0.6435547,0.03125,-0.15625,-0.40625,0.0,0.0,0.0
1664371642949,-0.6269531,-0.4091797,0.6357422,0.03125,-0.03125,0.03125,0.0,0.0,0.0
1664371642980,-0.6279297,-0.41210938,0.6503906,0.03125,-0.1875,-0.09375,0.0,0.0,0.0
1664371643008,-0.6230469,-0.41601562,0.63671875,0.03125,0.28125,0.03125,0.0,0.0,0.0
1664371643069,-0.6171875,-0.41308594,0.6347656,-0.09375,0.34375,0.03125,-40.9375,-5.5,-104.75
1664371643100,-0.6298828,-0.41503906,0.6347656,-0.03125,-0.09375,-0.09375,0.0,0.0,0.0
1664371643128,-0.62890625,-0.4091797,0.6455078,-0.03125,-0.03125,0.03125,0.0,0.0,0.0
1664371643190,-0.6279297,-0.41601562,0.63378906,-0.03125,-0.25,-0.03125,0.0,0.0,0.0
1664371643221,-0.6279297,-0.4169922,0.64941406,0.03125,0.03125,-0.09375,0.0,0.0,0.0
1664371643249,-0.62597656,-0.40625,0.64453125,0.03125,-0.09375,-0.21875,0.0,0.0,0.0
1664371643311,-0.62890625,-0.4189453,0.6386719,0.15625,0.09375,-0.09375,0.0,0.0,0.0
1664371643339,-0.6279297,-0.41796875,0.63378906,0.09375,-0.15625,-0.03125,0.0,0.0,0.0
1664371643370,-0.62402344,-0.41210938,0.6513672,0.15625,0.09375,-0.03125,0.0,0.0,0.0
1664371643430,-0.62890625,-0.41796875,0.6357422,0.03125,-0.09375,0.03125,0.0,0.0,0.0
1664371643490,-0.62597656,-0.41796875,0.64941406,-0.09375,-0.15625,-0.15625,0.0,0.0,0.0
1664371643493,-0.6308594,-0.41503906,0.63378906,0.03125,-0.03125,0.28125,0.0,0.0,0.0
1664371643551,-0.6152344,-0.41601562,0.6308594,-0.15625,0.03125,-0.40625,0.0,0.0,0.0
1664371643579,-0.62402344,-0.4169922,0.63964844,-0.03125,-0.15625,-0.28125,-40.9375,-5.8125,-106.5625
1664371643612,-0.6328125,-0.41308594,0.6435547,0.09375,0.03125,-0.15625,0.0,0.0,0.0
1664371643670,-0.6308594,-0.41503906,0.64941406,0.09375,0.09375,0.09375,0.0,0.0,0.0
1664371643700,-0.62890625,-0.4169922,0.64160156,0.09375,0.28125,-0.09375,0.0,0.0,0.0
1664371643729,-0.6328125,-0.41308594,0.65527344,0.09375,0.15625,-0.03125,0.0,0.0,0.0
1664371643791,-0.6308594,-0.41503906,0.6425781,0.09375,0.03125,-0.03125,0.0,0.0,0.0
1664371643819,-0.63378906,-0.4140625,0.6425781,0.03125,-0.09375,0.03125,0.0,0.0,0.0
1664371643850,-0.6308594,-0.42089844,0.6357422,0.03125,-0.15625,-0.09375,0.0,0.0,0.0
1664371643911,-0.63671875,-0.4189453,0.64453125,-0.09375,-0.15625,0.15625,0.0,0.0,0.0
1664371643940,-0.6328125,-0.41308594,0.63378906,0.15625,0.03125,0.15625,0.0,0.0,0.0
1664371643969,-0.62402344,-0.4169922,0.6357422,0.15625,0.15625,0.09375,0.0,0.0,0.0
1664371644030,-0.6230469,-0.4189453,0.6357422,0.03125,-0.03125,0.34375,0.0,0.0,0.0
1664371644061,-0.6298828,-0.4033203,0.64453125,-0.03125,-0.15625,0.40625,-40.8125,-4.625,-105.375
1664371644091,-0.6347656,-0.41015625,0.640625,-0.09375,-0.15625,0.28125,0.0,0.0,0.0
1664371644149,-0.6279297,-0.41015625,0.6582031,-0.21875,-0.3125,0.28125,0.0,0.0,0.0
1664371644180,-0.63964844,-0.41601562,0.6484375,-0.09375,0.09375,0.28125,0.0,0.0,0.0
1664371644210,-0.63378906,-0.4111328,0.6484375,0.09375,-0.375,0.625,0.0,0.0,0.0
1664371644270,-0.63183594,-0.41601562,0.6435547,-0.03125,-0.03125,0.15625,0.0,0.0,0.0
1664371644300,-0.62890625,-0.40625,0.62890625,-0.03125,-0.1875,0.03125,0.0,0.0,0.0
1664371644390,-0.6298828,-0.41308594,0.64746094,0.09375,-0.03125,0.40625,0.0,0.0,0.0
1664371644393,-0.62890625,-0.4091797,0.64941406,0.03125,-0.25,0.15625,0.0,0.0,0.0
1664371644420,-0.63378906,-0.40625,0.6484375,0.09375,0.28125,-0.34375,0.0,0.0,0.0
1664371644451,-0.6269531,-0.4140625,0.62890625,0.09375,0.34375,-0.09375,0.0,0.0,0.0
1664371644509,-0.61816406,-0.41015625,0.6533203,-0.21875,-0.03125,0.21875,0.0,0.0,0.0
1664371644539,-0.63183594,-0.4091797,0.6435547,-0.09375,-0.09375,0.15625,0.0,0.0,0.0
1664371644600,-0.625,-0.41210938,0.6435547,-0.21875,-0.1875,0.28125,-39.75,-4.625,-105.9375
1664371644630,-0.63671875,-0.4189453,0.6230469,0.03125,-0.09375,0.28125,0.0,0.0,0.0
1664371644663,-0.6357422,-0.41015625,0.6298828,0.03125,-0.03125,0.09375,0.0,0.0,0.0
1664371644690,-0.63183594,-0.41015625,0.6298828,0.03125,-0.1875,-0.09375,0.0,0.0,0.0
1664371644750,-0.62890625,-0.4169922,0.64160156,0.03125,-0.25,0.15625,0.0,0.0,0.0
1664371644779,-0.6279297,-0.41992188,0.640625,0.21875,-0.09375,0.03125,0.0,0.0,0.0
1664371644810,-0.62402344,-0.40429688,0.65527344,0.03125,-0.15625,-0.09375,0.0,0.0,0.0
1664371644871,-0.63964844,-0.41796875,0.6308594,-0.03125,-0.25,-0.15625,0.0,0.0,0.0
1664371644901,-0.6298828,-0.41210938,0.64160156,0.15625,0.21875,-0.03125,0.0,0.0,0.0
1664371644928,-0.6376953,-0.40429688,0.64746094,-0.15625,-0.03125,-0.09375,0.0,0.0,0.0
1664371644989,-0.62402344,-0.41992188,0.64941406,0.03125,0.15625,-0.21875,0.0,0.0,0.0
1664371645019,-0.6347656,-0.42089844,0.6376953,0.03125,-0.3125,-0.34375,0.0,0.0,0.0
1664371645081,-0.62597656,-0.41015625,0.6357422,0.09375,0.15625,-0.15625,-39.75,-5.6875,-104.3125
1664371645110,-0.62597656,-0.40722656,0.6386719,0.03125,-0.375,-0.03125,0.0,0.0,0.0
1664371645139,-0.62402344,-0.41503906,0.64941406,0.09375,0.21875,-0.28125,0.0,0.0,0.0
1664371645170,-0.625,-0.40722656,0.6484375,0.15625,-0.25,-0.03125,0.0,0.0,0.0
1664371645231,-0.6298828,-0.4091797,0.640625,0.03125,0.03125,0.03125,0.0,0.0,0.0
1664371645259,-0.6357422,-0.41210938,0.640625,-0.40625,0.03125,-0.03125,0.0,0.0,0.0
1664371645289,-0.6298828,-0.4140625,0.64453125,-0.65625,0.03125,-0.21875,0.0,0.0,0.0
1664371645350,-0.6308594,-0.421875,0.6425781,-0.59375,-0.03125,-0.03125,0.0,0.0,0.0
1664371645379,-0.6376953,-0.4189453,0.6376953,-0.03125,-0.375,0.03125,0.0,0.0,0.0
1664371645409,-0.62109375,-0.41308594,0.64160156,0.15625,0.09375,-0.09375,0.0,0.0,0.0
1664371645469,-0.63183594,-0.41796875,0.6435547,0.03125,-0.03125,-0.21875,0.0,0.0,0.0
1664371645499,-0.6201172,-0.421875,0.6425781,0.03125,-0.03125,-0.09375,0.0,0.0,0.0
1664371645530,-0.63671875,-0.40820312,0.6425781,0.21875,-0.03125,-0.15625,0.0,0.0,0.0
1664371645590,-0.6308594,-0.40722656,0.6328125,0.15625,0.09375,-0.09375,-41.5625,-5.1875,-105.375
1664371645620,-0.63671875,-0.41015625,0.63671875,-0.03125,-0.3125,-0.09375,0.0,0.0,0.0
1664371645680,-0.64941406,-0.41308594,0.6533203,-0.21875,-0.25,0.15625,0.0,0.0,0.0
1664371645710,-0.6298828,-0.41210938,0.6542969,-0.21875,-0.15625,-0.15625,0.0,0.0,0.0
1664371645770,-0.63378906,-0.4169922,0.6435547,-0.09375,0.03125,-0.15625,0.0,0.0,0.0
1664371645772,-0.6279297,-0.4169922,0.640625,-0.34375,-0.15625,-0.15625,0.0,0.0,0.0
1664371645831,-0.63183594,-0.4189453,0.6357422,0.09375,-0.25,0.03125,0.0,0.0,0.0
1664371645858,-0.61816406,-0.41601562,0.63671875,-0.09375,0.09375,-0.09375,0.0,0.0,0.0
1664371645889,-0.64160156,-0.41796875,0.6376953,0.15625,0.03125,-0.28125,0.0,0.0,0.0
1664371645951,-0.62890625,-0.41308594,0.63183594,0.09375,0.15625,-0.21875,0.0,0.0,0.0
1664371645981,-0.62597656,-0.41992188,0.6484375,0.09375,-0.15625,-0.21875,0.0,0.0,0.0
1664371646010,-0.63671875,-0.4189453,0.6484375,-0.03125,-0.03125,-0.09375,0.0,0.0,0.0
1664371646072,-0.62597656,-0.4189453,0.6376953,0.09375,-0.09375,0.09375,-41.375,-5.8125,-105.8125
1664371646101,-0.6279297,-0.41503906,0.6503906,0.03125,-0.03125,0.15625,0.0,0.0,0.0
1664371646130,-0.63671875,-0.421875,0.625,-0.03125,-0.03125,0.03125,0.0,0.0,0.0
1664371646191,-0.6220703,-0.41308594,0.6484375,0.03125,-0.09375,0.15625,0.0,0.0,0.0
1664371646220,-0.63378906,-0.41503906,0.63183594,0.03125,-0.03125,0.34375,0.0,0.0,0.0
1664371646250,-0.62890625,-0.4267578,0.63964844,0.03125,-0.03125,0.09375,0.0,0.0,0.0
1664371646311,-0.625,-0.42382812,0.6357422,0.03125,-0.03125,0.28125,0.0,0.0,0.0
1664371646342,-0.6298828,-0.4140625,0.6464844,0.09375,0.21875,0.15625,0.0,0.0,0.0
1664371646370,-0.6298828,-0.41308594,0.640625,0.03125,-0.1875,0.03125,0.0,0.0,0.0
1664371646435,-0.625,-0.41308594,0.6279297,0.28125,0.21875,0.53125,0.0,0.0,0.0
1664371646460,-0.62890625,-0.41210938,0.6513672,0.09375,-0.09375,0.15625,0.0,0.0,0.0
1664371646489,-0.6220703,-0.4111328,0.6425781,0.03125,-0.03125,-0.03125,0.0,0.0,0.0
1664371646548,-0.6220703,-0.41210938,0.6357422,-0.09375,-0.03125,-0.03125,0.0,0.0,0.0
1664371646579,-0.6298828,-0.4189453,0.6279297,0.15625,-0.25,0.53125,-41.875,-5.1875,-104.625
1664371646610,-0.6298828,-0.41601562,0.6455078,-0.21875,0.03125,0.21875,0.0,0.0,0.0
1664371646671,-0.6269531,-0.41015625,0.63671875,0.09375,0.21875,0.28125,0.0,0.0,0.0
1664371646699,-0.62890625,-0.41015625,0.64160156,0.03125,-0.09375,0.03125,0.0,0.0,0.0
1664371646730,-0.6308594,-0.4140625,0.6308594,0.03125,-0.03125,0.15625,0.0,0.0,0.0
1664371646789,-0.6298828,-0.4111328,0.6455078,0.03125,-0.25,-0.21875,0.0,0.0,0.0
1664371646820,-0.6308594,-0.41796875,0.63671875,0.09375,0.15625,0.03125,0.0,0.0,0.0
1664371646848,-0.63183594,-0.4033203,0.6376953,0.03125,-0.09375,-0.15625,0.0,0.0,0.0
1664371646911,-0.6347656,-0.4140625,0.6533203,0.15625,-0.09375,-0.15625,0.0,0.0,0.0
1664371646941,-0.62890625,-0.4033203,0.6503906,0.09375,0.21875,-0.15625,0.0,0.0,0.0
1664371646970,-0.625,-0.41503906,0.64746094,-0.03125,-0.09375,-0.09375,0.0,0.0,0.0
1664371647029,-0.62597656,-0.4111328,0.63183594,-0.09375,-0.03125,-0.09375,0.0,0.0,0.0
1664371647059,-0.6308594,-0.4169922,0.6503906,-0.03125,-0.1875,-0.03125,-40.0625,-5.9375,-104.875
1664371647089,-0.6386719,-0.40722656,0.6425781,-0.15625,-0.09375,-0.28125,0.0,0.0,0.0
1664371647149,-0.6279297,-0.4189453,0.63964844,-0.03125,0.34375,-0.53125,0.0,0.0,0.0
1664371647180,-0.63964844,-0.41796875,0.6435547,0.34375,-0.09375,-0.03125,0.0,0.0,0.0
1664371647210,-0.6269531,-0.41015625,0.6533203,0.09375,0.15625,-0.53125,0.0,0.0,0.0
1664371647268,-0.6357422,-0.4169922,0.6464844,0.21875,0.15625,-0.40625,0.0,0.0,0.0
1664371647301,-0.63183594,-0.40820312,0.63671875,0.03125,0.21875,-0.59375,0.0,0.0,0.0
1664371647329,-0.62402344,-0.40722656,0.6533203,0.15625,0.09375,-0.09375,0.0,0.0,0.0
1664371647390,-0.62402344,-0.41601562,0.6376953,-0.09375,0.09375,-0.53125,0.0,0.0,0.0
1664371647421,-0.6279297,-0.4140625,0.625,0.03125,0.21875,-0.28125,0.0,0.0,0.0
1664371647450,-0.6279297,-0.40722656,0.64453125,0.03125,0.21875,-0.15625,0.0,0.0,0.0
1664371647511,-0.63183594,-0.40625,0.6455078,0.09375,0.15625,-0.34375,0.0,0.0,0.0
1664371647539,-0.62890625,-0.41796875,0.6425781,0.09375,0.03125,-0.15625,0.0,0.0,0.0
1664371647570,-0.6347656,-0.40820312,0.64746094,0.40625,0.40625,-0.09375,-39.125,-6.5625,-106.5625
1664371647630,-0.62597656,-0.41601562,0.66015625,0.34375,0.53125,-0.21875,0.0,0.0,0.0
1664371647660,-0.625,-0.41210938,0.6464844,0.09375,0.21875,-0.15625,0.0,0.0,0.0
1664371647689,-0.6230469,-0.4111328,0.65527344,0.09375,0.09375,-0.34375,0.0,0.0,0.0
1664371647782,-0.63183594,-0.4169922,0.65234375,0.03125,-0.03125,-0.15625,0.0,0.0,0.0
1664371647784,-0.63671875,-0.4140625,0.6347656,-0.03125,-0.03125,-0.09375,0.0,0.0,0.0
1664371647809,-0.62402344,-0.40625,0.6347656,0.03125,-0.03125,0.03125,0.0,0.0,0.0
1664371647869,-0.63183594,-0.4140625,0.64160156,0.34375,0.53125,0.21875,0.0,0.0,0.0
1664371647899,-0.6201172,-0.41796875,0.6425781,0.28125,-0.5,-0.21875,0.0,0.0,0.0
1664371647929,-0.62890625,-0.41308594,0.6513672,0.34375,0.03125,0.28125,0.0,0.0,0.0
1664371647989,-0.6308594,-0.40625,0.64746094,0.09375,0.21875,-0.09375,0.0,0.0,0.0
1664371648051,-0.62597656,-0.41210938,0.63964844,-0.15625,-0.15625,-0.28125,0.0,0.0,0.0
1664371648079,-0.6269531,-0.41210938,0.6464844,-0.28125,-0.09375,-0.28125,-42.0,-5.0625,-104.4375
1664371648112,-0.62890625,-0.41992188,0.63183594,-0.03125,-0.03125,0.09375,0.0,0.0,0.0
1664371648140,-0.6269531,-0.41992188,0.6347656,-0.40625,-0.15625,-0.28125,0.0,0.0,0.0
1664371648171,-0.6328125,-0.4169922,0.6386719,0.09375,0.09375,-0.21875,0.0,0.0,0.0
1664371648232,-0.6298828,-0.41308594,0.64453125,0.21875,0.21875,-0.03125,0.0,0.0,0.0
1664371648259,-0.63378906,-0.41992188,0.6386719,0.21875,-0.25,0.03125,0.0,0.0,0.0
1664371648289,-0.6347656,-0.42578125,0.6455078,0.28125,-0.1875,-0.03125,0.0,0.0,0.0
1664371648350,-0.6230469,-0.40820312,0.6464844,0.40625,0.21875,0.21875,0.0,0.0,0.0
1664371648380,-0.6269531,-0.4091797,0.6455078,0.09375,0.21875,0.03125,0.0,0.0,0.0
1664371648410,-0.6279297,-0.4111328,0.6279297,0.09375,0.03125,-0.03125,0.0,0.0,0.0
1664371648499,-0.6347656,-0.4189453,0.6425781,0.03125,-0.03125,0.03125,0.0,0.0,0.0
1664371648502,-0.62402344,-0.4189453,0.6425781,0.09375,-0.09375,0.09375,0.0,0.0,0.0
1664371648529,-0.625,-0.4140625,0.64453125,0.09375,-0.03125,0.15625,0.0,0.0,0.0
1664371648589,-0.62402344,-0.4140625,0.64160156,0.28125,-0.1875,0.40625,-39.625,-5.8125,-106.125
1664371648620,-0.6279297,-0.41210938,0.6542969,0.09375,0.03125,0.28125,0.0,0.0,0.0
1664371648649,-0.62890625,-0.4140625,0.6455078,-0.03125,-0.09375,0.03125,0.0,0.0,0.0
1664371648710,-0.6308594,-0.41992188,0.64453125,0.15625,0.28125,0.46875,0.0,0.0,0.0
1664371648739,-0.6298828,-0.4091797,0.64160156,0.03125,-0.03125,0.28125,0.0,0.0,0.0
1664371648769,-0.6328125,-0.41308594,0.62890625,-0.09375,-0.125,0.125,0.0,0.0,0.0
1664371648831,-0.62890625,-0.4140625,0.6357422,-0.15625,0.03125,-0.1875,0.0,0.0,0.0
1664371648860,-0.6357422,-0.41308594,0.6328125,0.03125,-0.1875,0.4375,0.0,0.0,0.0
1664371648890,-0.6269531,-0.4140625,0.63671875,-0.09375,-0.3125,0.25,0.0,0.0,0.0
1664371648950,-0.6230469,-0.4111328,0.640625,-0.09375,0.0,0.3125,0.0,0.0,0.0
1664371648981,-0.6308594,-0.42089844,0.6464844,0.03125,0.0,0.375,0.0,0.0,0.0
1664371649009,-0.6279297,-0.41503906,0.6455078,-0.03125,0.0,0.1875,0.0,0.0,0.0
1664371649071,-0.6347656,-0.4169922,0.6220703,-0.15625,0.0,0.375,-39.75,-5.9375,-104.625
1664371649098,-0.6328125,-0.41210938,0.6455078,-0.21875,-0.1875,0.5,0.0,0.0,0.0
1664371649128,-0.6201172,-0.4111328,0.65527344,-0.09375,-0.1875,0.1875,0.0,0.0,0.0
1664371649191,-0.6279297,-0.40625,0.6533203,-0.03125,0.0,0.125,0.0,0.0,0.0
1664371649220,-0.6230469,-0.41503906,0.6513672,0.03125,-0.1875,0.125,0.0,0.0,0.0
1664371649251,-0.6269531,-0.40625,0.6308594,0.03125,-0.1875,0.1875,0.0,0.0,0.0
1664371649310,-0.63378906,-0.41308594,0.64160156,-0.09375,-0.125,-0.0625,0.0,0.0,0.0
1664371649341,-0.62890625,-0.40820312,0.6484375,0.09375,0.09375,-0.21875,0.0,0.0,0.0
1664371649370,-0.6464844,-0.41992188,0.6328125,-0.03125,-0.125,-0.1875,0.0,0.0,0.0
1664371649430,-0.62597656,-0.4189453,0.64160156,-0.03125,0.09375,-0.0625,0.0,0.0,0.0
1664371649460,-0.6357422,-0.40820312,0.6376953,0.03125,-0.1875,-0.125,0.0,0.0,0.0
1664371649488,-0.6269531,-0.41796875,0.6357422,-0.03125,0.0,-0.59375,0.0,0.0,0.0
1664371649550,-0.6298828,-0.42285156,0.6484375,-0.03125,-0.0625,-0.59375,0.0,0.0,0.0
1664371649581,-0.6201172,-0.4111328,0.64160156,-0.09375,0.09375,-0.46875,-40.625,-5.8125,-105.8125
1664371649610,-0.62890625,-0.41503906,0.65234375,-0.09375,-0.125,-0.28125,0.0,0.0,0.0
1664371649669,-0.6328125,-0.41015625,0.64453125,-0.09375,0.03125,-0.40625,0.0,0.0,0.0
1664371649699,-0.6269531,-0.41796875,0.6376953,0.03125,0.09375,-0.0625,0.0,0.0,0.0
1664371649728,-0.63378906,-0.41210938,0.65234375,0.03125,0.0,-0.21875,0.0,0.0,0.0
1664371649790,-0.6328125,-0.41210938,0.6386719,0.03125,0.03125,-0.21875,0.0,0.0,0.0
1664371649820,-0.6308594,-0.41210938,0.6328125,-0.03125,0.0,-0.21875,0.0,0.0,0.0
1664371649850,-0.62890625,-0.41015625,0.6357422,-0.03125,0.09375,-0.28125,0.0,0.0,0.0
1664371649908,-0.6308594,-0.4169922,0.63964844,-0.03125,0.09375,-0.40625,0.0,0.0,0.0
1664371649939,-0.6298828,-0.42578125,0.64746094,0.03125,0.09375,-0.40625,0.0,0.0,0.0
1664371649969,-0.6279297,-0.41210938,0.6328125,0.03125,0.15625,-0.40625,0.0,0.0,0.0
1664371650028,-0.625,-0.40820312,0.6386719,-0.15625,0.15625,-0.40625,0.0,0.0,0.0
1664371650061,-0.6308594,-0.4189453,0.6386719,-0.09375,0.0,-0.1875,-39.0,-4.9375,-106.6875
1664371650090,-0.6308594,-0.4140625,0.64160156,0.09375,0.28125,-0.1875,0.0,0.0,0.0
1664371650149,-0.6308594,-0.4140625,0.6376953,0.03125,-0.125,-0.1875,0.0,0.0,0.0
1664371650179,-0.6328125,-0.4140625,0.6376953,0.09375,0.03125,0.0,0.0,0.0,0.0
1664371650210,-0.62109375,-0.4111328,0.6464844,0.03125,0.09375,-0.40625,0.0,0.0,0.0
1664371650268,-0.62402344,-0.41210938,0.6435547,0.03125,-0.0625,-0.40625,0.0,0.0,0.0
1664371650329,-0.62890625,-0.4111328,0.63671875,0.03125,0.0,-0.21875,0.0,0.0,0.0
1664371650332,-0.6298828,-0.41992188,0.64941406,0.03125,-0.125,-0.0625,0.0,0.0,0.0
1664371650389,-0.6279297,-0.41015625,0.6542969,-0.09375,-0.0625,-0.21875,0.0,0.0,0.0
1664371650421,-0.62890625,-0.4111328,0.6357422,0.03125,0.28125,-0.28125,0.0,0.0,0.0
1664371650449,-0.6308594,-0.41796875,0.64160156,-0.03125,0.03125,-0.1875,0.0,0.0,0.0
1664371650510,-0.62890625,-0.4091797,0.6376953,-0.03125,0.03125,0.0,0.0,0.0,0.0
1664371650540,-0.62890625,-0.4140625,0.6230469,-0.09375,-0.125,-0.1875,0.0,0.0,0.0
1664371650571,-0.62402344,-0.41601562,0.6455078,-0.09375,0.09375,-0.0625,-40.5,-5.9375,-104.875
1664371650630,-0.6269531,-0.41210938,0.6376953,0.03125,0.0,-0.125,0.0,0.0,0.0
1664371650659,-0.6201172,-0.41992188,0.6513672,-0.03125,0.0,0.0,0.0,0.0,0.0
1664371650689,-0.6220703,-0.41992188,0.6357422,-0.03125,-0.0625,-0.21875,0.0,0.0,0.0
1664371650749,-0.62402344,-0.4140625,0.64160156,0.09375,0.15625,-0.21875,0.0,0.0,0.0
1664371650779,-0.62597656,-0.41015625,0.640625,0.03125,-0.125,-0.1875,0.0,0.0,0.0
1664371650810,-0.62597656,-0.4091797,0.6386719,-0.03125,0.03125,-0.1875,0.0,0.0,0.0
1664371650870,-0.6191406,-0.4140625,0.6425781,-0.09375,-0.1875,-0.1875,0.0,0.0,0.0
1664371650897,-0.6298828,-0.4296875,0.6347656,-0.03125,0.03125,0.0625,0.0,0.0,0.0
1664371650930,-0.6298828,-0.41210938,0.6376953,-0.09375,-0.375,-0.1875,0.0,0.0,0.0
1664371650990,-0.62109375,-0.41601562,0.640625,-0.21875,-0.0625,-0.28125,0.0,0.0,0.0
1664371651019,-0.62109375,-0.4140625,0.6425781,-0.34375,-0.0625,-0.1875,0.0,0.0,0.0
1664371651050,-0.625,-0.4111328,0.64941406,-0.09375,-0.4375,0.25,-40.625,-4.0,-105.8125
1664371651108,-0.62597656,-0.41796875,0.63964844,0.09375,-0.125,0.375,0.0,0.0,0.0
1664371651139,-0.625,-0.41601562,0.6386719,0.34375,0.03125,0.125,0.0,0.0,0.0
1664371651169,-0.6269531,-0.41503906,0.640625,0.40625,-0.1875,0.0,0.0,0.0,0.0
1664371651230,-0.6191406,-0.40429688,0.6484375,0.15625,0.0,-0.125,0.0,0.0,0.0
1664371651258,-0.625,-0.41503906,0.6542969,-0.15625,0.09375,0.0,0.0,0.0,0.0
1664371651290,-0.625,-0.4189453,0.6464844,-0.40625,0.09375,0.125,0.0,0.0,0.0
1664371651350,-0.63183594,-0.41503906,0.640625,-0.53125,0.0,0.125,0.0,0.0,0.0
1664371651379,-0.6376953,-0.41503906,0.6376953,-0.46875,-0.125,0.25,0.0,0.0,0.0
1664371651409,-0.63671875,-0.41308594,0.6455078,-0.40625,-0.3125,0.1875,0.0,0.0,0.0
1664371651471,-0.61816406,-0.4111328,0.640625,-0.46875,-0.0625,0.25,0.0,0.0,0.0
1664371651500,-0.61621094,-0.4169922,0.6347656,-0.09375,-0.125,0.4375,0.0,0.0,0.0
1664371651529,-0.63378906,-0.4169922,0.64453125,-0.03125,-0.1875,0.125,0.0,0.0,0.0
1664371651589,-0.6357422,-0.4111328,0.63378906,0.28125,0.15625,0.25,-40.1875,-4.75,-105.5
1664371651619,-0.6347656,-0.4189453,0.6542969,0.15625,-0.1875,0.125,0.0,0.0,0.0
1664371651648,-0.6308594,-0.4111328,0.6455078,0.15625,-0.0625,0.5625,0.0,0.0,0.0
1664371651711,-0.6220703,-0.40722656,0.6347656,-0.28125,-0.1875,0.1875,0.0,0.0,0.0
1664371651739,-0.63183594,-0.4189453,0.640625,-0.15625,-0.3125,0.375,0.0,0.0,0.0
1664371651769,-0.6220703,-0.41992188,0.6425781,-0.28125,-0.1875,0.375,0.0,0.0,0.0
1664371651830,-0.6191406,-0.40722656,0.64746094,-0.40625,-0.375,0.8125,0.0,0.0,0.0
1664371651860,-0.6298828,-0.41601562,0.63671875,-0.40625,-0.125,0.6875,0.0,0.0,0.0
1664371651890,-0.63671875,-0.41601562,0.6347656,-0.34375,-0.25,0.4375,0.0,0.0,0.0
1664371651950,-0.6298828,-0.41503906,0.6386719,0.09375,0.0,0.125,0.0,0.0,0.0
1664371651980,-0.6279297,-0.41601562,0.64941406,0.40625,0.46875,-0.34375,0.0,0.0,0.0
1664371652010,-0.63183594,-0.41308594,0.6425781,0.21875,-0.1875,-0.1875,0.0,0.0,0.0
1664371652070,-0.6298828,-0.41992188,0.64746094,0.21875,-0.25,-0.125,-41.375,-5.5,-105.0625
1664371652100,-0.6308594,-0.40429688,0.6308594,0.34375,-0.0625,-0.1875,0.0,0.0,0.0
1664371652129,-0.6298828,-0.41210938,0.64746094,0.21875,0.03125,-0.21875,0.0,0.0,0.0
1664371652191,-0.6191406,-0.41015625,0.6455078,-0.15625,-0.1875,-0.28125,0.0,0.0,0.0
1664371652221,-0.6230469,-0.41015625,0.6376953,-0.03125,0.15625,-0.28125,0.0,0.0,0.0
1664371652249,-0.6376953,-0.4189453,0.64160156,-0.03125,0.03125,-0.0625,0.0,0.0,0.0
1664371652311,-0.6201172,-0.41015625,0.64941406,-0.03125,-0.25,0.25,0.0,0.0,0.0
1664371652340,-0.62402344,-0.4189453,0.64160156,-0.21875,-0.1875,-0.28125,0.0,0.0,0.0
1664371652370,-0.6386719,-0.4091797,0.6611328,0.21875,0.0,0.0,0.0,0.0,0.0
1664371652431,-0.6279297,-0.41308594,0.63183594,-0.09375,-0.0625,-0.46875,0.0,0.0,0.0
1664371652460,-0.62597656,-0.41308594,0.62890625,0.21875,0.03125,-0.78125,0.0,0.0,0.0
1664371652489,-0.6298828,-0.41796875,0.64941406,-0.21875,-0.0625,-0.78125,0.0,0.0,0.0
1664371652550,-0.62890625,-0.40820312,0.6542969,0.09375,0.03125,-0.28125,0.0,0.0,0.0
1664371652611,-0.6269531,-0.41503906,0.63671875,-0.09375,0.34375,-0.40625,-40.625,-5.0625,-105.5
1664371652613,-0.6357422,-0.4169922,0.6455078,-0.03125,0.28125,-0.21875,0.0,0.0,0.0
1664371652670,-0.6308594,-0.41015625,0.65234375,-0.03125,0.09375,-0.28125,0.0,0.0,0.0
1664371652698,-0.62402344,-0.4091797,0.6425781,0.09375,0.0,-0.59375,0.0,0.0,0.0
1664371652730,-0.62109375,-0.41210938,0.6425781,0.15625,0.40625,-0.21875,0.0,0.0,0.0
1664371652790,-0.6357422,-0.4091797,0.63183594,0.03125,-0.1875,-0.125,0.0,0.0,0.0
1664371652822,-0.6298828,-0.4169922,0.6386719,-0.03125,0.03125,-0.34375,0.0,0.0,0.0
1664371652850,-0.6269531,-0.41308594,0.64453125,0.09375,0.0,0.0625,0.0,0.0,0.0
1664371652910,-0.62597656,-0.41210938,0.640625,-0.15625,0.03125,0.25,0.0,0.0,0.0
1664371652940,-0.6357422,-0.4140625,0.6435547,-0.15625,0.15625,0.4375,0.0,0.0,0.0
1664371652971,-0.6298828,-0.41308594,0.63671875,-0.40625,0.03125,0.125,0.0,0.0,0.0
1664371653030,-0.6347656,-0.41796875,0.6464844,-0.34375,0.28125,0.125,0.0,0.0,0.0
1664371653060,-0.6357422,-0.4140625,0.6503906,-0.15625,0.0,0.375,-41.5625,-5.9375,-105.625
1664371653091,-0.6298828,-0.41503906,0.6386719,-0.03125,0.09375,0.3125,0.0,0.0,0.0
1664371653150,-0.6376953,-0.4091797,0.6464844,0.09375,0.09375,0.625,0.0,0.0,0.0
1664371653182,-0.63671875,-0.40820312,0.63671875,-0.21875,-0.0625,0.375,0.0,0.0,0.0
1664371653210,-0.6269531,-0.41015625,0.63671875,-0.15625,-0.25,0.375,0.0,0.0,0.0
1664371653269,-0.62597656,-0.40820312,0.6464844,-0.34375,0.03125,0.375,0.0,0.0,0.0
1664371653301,-0.6279297,-0.41503906,0.6513672,-0.21875,-0.375,0.8125,0.0,0.0,0.0
1664371653329,-0.625,-0.4189453,0.6191406,-0.15625,0.03125,0.625,0.0,0.0,0.0
1664371653388,-0.63671875,-0.4111328,0.6425781,-0.03125,0.09375,0.6875,0.0,0.0,0.0
1664371653422,-0.6347656,-0.40722656,0.6376953,-0.09375,-0.0625,0.5,0.0,0.0,0.0
1664371653448,-0.6298828,-0.41015625,0.64941406,-0.03125,-0.1875,0.625,0.0,0.0,0.0
1664371653507,-0.62890625,-0.41210938,0.64453125,-0.09375,-0.0625,0.5625,0.0,0.0,0.0
1664371653537,-0.6308594,-0.40234375,0.63378906,0.03125,-0.25,0.125,0.0,0.0,0.0
1664371653568,-0.63378906,-0.40527344,0.64746094,0.15625,-0.25,0.0,-40.625,-6.875,-105.5
1664371653630,-0.62402344,-0.40722656,0.6357422,-0.03125,-0.125,-0.28125,0.0,0.0,0.0
1664371653661,-0.625,-0.40625,0.63671875,-0.09375,-0.125,-0.40625,0.0,0.0,0.0
1664371653690,-0.6308594,-0.4140625,0.63671875,-0.03125,-0.1875,-0.28125,0.0,0.0,0.0
1664371653750,-0.6347656,-0.41308594,0.6513672,-0.09375,-0.125,-0.34375,0.0,0.0,0.0
1664371653778,-0.6308594,-0.41503906,0.6455078,-0.03125,-0.3125,-0.28125,0.0,0.0,0.0
1664371653809,-0.62890625,-0.41601562,0.6582031,0.03125,0.0,-0.28125,0.0,0.0,0.0
1664371653871,-0.63671875,-0.40722656,0.640625,-0.03125,-0.4375,0.0,0.0,0.0,0.0
1664371653900,-0.62597656,-0.41601562,0.6357422,0.03125,0.03125,-0.59375,0.0,0.0,0.0
1664371653930,-0.63183594,-0.41015625,0.6425781,0.03125,-0.1875,-0.59375,0.0,0.0,0.0
1664371653989,-0.6308594,-0.40820312,0.6484375,-0.15625,-0.125,-0.46875,0.0,0.0,0.0
1664371654018,-0.63964844,-0.41015625,0.6386719,-0.03125,-0.0625,-0.40625,0.0,0.0,0.0
1664371654048,-0.63378906,-0.41015625,0.63964844,0.09375,0.03125,-0.46875,-40.625,-5.0625,-105.5
1664371654110,-0.6308594,-0.41601562,0.63378906,0.21875,0.03125,-0.40625,0.0,0.0,0.0
1664371654139,-0.6308594,-0.40820312,0.6425781,0.09375,0.03125,-0.59375,0.0,0.0,0.0
1664371654169,-0.6298828,-0.41015625,0.63378906,0.21875,0.03125,-0.46875,0.0,0.0,0.0
1664371654231,-0.62109375,-0.40722656,0.6621094,0.15625,0.0,-0.59375,0.0,0.0,0.0
1664371654260,-0.6220703,-0.40820312,0.6435547,-0.03125,0.0,-0.65625,0.0,0.0,0.0
1664371654291,-0.6269531,-0.41601562,0.6386719,0.15625,-0.25,-0.34375,0.0,0.0,0.0
1664371654351,-0.62402344,-0.40820312,0.6357422,0.03125,0.03125,-0.34375,0.0,0.0,0.0
1664371654380,-0.63378906,-0.40429688,0.65527344,0.21875,0.21875,-0.40625,0.0,0.0,0.0
1664371654408,-0.6328125,-0.41503906,0.64941406,0.03125,-0.0625,-0.59375,0.0,0.0,0.0
1664371654470,-0.6308594,-0.41210938,0.63964844,0.09375,0.0,-0.53125,0.0,0.0,0.0
1664371654500,-0.6279297,-0.4111328,0.6425781,0.03125,0.21875,-0.65625,0.0,0.0,0.0
1664371654530,-0.62890625,-0.4013672,0.64453125,0.03125,-0.1875,-0.84375,0.0,0.0,0.0
1664371654589,-0.62597656,-0.4189453,0.65625,-0.03125,0.15625,-0.78125,-40.8125,-5.6875,-106.6875
1664371654619,-0.62890625,-0.40820312,0.6484375,0.03125,-0.1875,-0.34375,0.0,0.0,0.0
1664371654650,-0.62597656,-0.40625,0.6435547,-0.03125,0.28125,-0.46875,0.0,0.0,0.0
1664371654711,-0.6308594,-0.40429688,0.64941406,0.03125,0.0,-0.65625,0.0,0.0,0.0
1664371654742,-0.6308594,-0.41503906,0.6484375,-0.15625,-0.1875,-0.40625,0.0,0.0,0.0
1664371654771,-0.63378906,-0.41503906,0.6386719,0.03125,0.03125,-0.0625,0.0,0.0,0.0
1664371654830,-0.62597656,-0.40527344,0.640625,0.03125,0.0,-0.28125,0.0,0.0,0.0
1664371654893,-0.6347656,-0.41308594,0.640625,0.03125,0.09375,-0.34375,0.0,0.0,0.0
1664371654896,-0.6308594,-0.421875,0.6357422,0.09375,0.0,-0.40625,0.0,0.0,0.0
1664371654951,-0.62597656,-0.40722656,0.6484375,-0.03125,-0.0625,-0.125,0.0,0.0,0.0
1664371654980,-0.62890625,-0.42089844,0.6455078,0.03125,-0.0625,-0.21875,0.0,0.0,0.0
1664371655008,-0.6269531,-0.4111328,0.640625,-0.03125,0.0,-0.21875,0.0,0.0,0.0
1664371655071,-0.62597656,-0.4189453,0.640625,-0.03125,-0.0625,-0.21875,-39.125,-6.5625,-106.125
1664371655100,-0.625,-0.4169922,0.6425781,-0.03125,-0.0625,-0.21875,0.0,0.0,0.0
1664371655131,-0.6308594,-0.4169922,0.64453125,-0.03125,0.0,-0.1875,0.0,0.0,0.0
1664371655188,-0.62890625,-0.41308594,0.64160156,-0.09375,-0.125,-0.28125,0.0,0.0,0.0
1664371655221,-0.63378906,-0.4140625,0.64941406,-0.09375,0.0,-0.34375,0.0,0.0,0.0
1664371655247,-0.62890625,-0.42285156,0.6425781,-0.03125,0.03125,-0.0625,0.0,0.0,0.0
1664371655308,-0.63183594,-0.41210938,0.65625,0.03125,0.0,-0.0625,0.0,0.0,0.0
1664371655340,-0.62890625,-0.4111328,0.63378906,-0.03125,0.0,0.0625,0.0,0.0,0.0
1664371655370,-0.6347656,-0.41210938,0.6455078,-0.09375,-0.25,0.3125,0.0,0.0,0.0
1664371655431,-0.6220703,-0.40625,0.64746094,-0.21875,-0.0625,0.0,0.0,0.0,0.0
1664371655460,-0.62597656,-0.4033203,0.6308594,-0.09375,0.0,-0.21875,0.0,0.0,0.0
1664371655489,-0.6279297,-0.41015625,0.6386719,-0.15625,-0.1875,0.0,0.0,0.0,0.0
1664371655548,-0.63378906,-0.41210938,0.6533203,-0.15625,0.03125,0.125,0.0,0.0,0.0
1664371655581,-0.6269531,-0.40625,0.6376953,-0.28125,0.09375,-0.1875,-40.5,-5.9375,-105.9375
1664371655610,-0.640625,-0.41015625,0.6425781,-0.03125,0.15625,0.0625,0.0,0.0,0.0
1664371655669,-0.63183594,-0.4189453,0.65625,-0.09375,-0.125,0.1875,0.0,0.0,0.0
1664371655701,-0.625,-0.41210938,0.6503906,-0.03125,-0.0625,0.25,0.0,0.0,0.0
1664371655731,-0.6298828,-0.40625,0.64941406,-0.03125,-0.125,0.1875,0.0,0.0,0.0
1664371655791,-0.62402344,-0.4189453,0.6386719,-0.09375,-0.25,0.3125,0.0,0.0,0.0
1664371655820,-0.63378906,-0.41308594,0.640625,-0.09375,-0.1875,0.125,0.0,0.0,0.0
1664371655850,-0.6357422,-0.41503906,0.6435547,-0.09375,-0.125,0.1875,0.0,0.0,0.0
1664371655910,-0.62890625,-0.4091797,0.6484375,-0.09375,-0.25,0.375,0.0,0.0,0.0
1664371655940,-0.63378906,-0.41210938,0.66503906,0.03125,-0.25,0.125,0.0,0.0,0.0
1664371655970,-0.62890625,-0.4140625,0.63183594,-0.09375,-0.0625,-0.0625,0.0,0.0,0.0
1664371656029,-0.6230469,-0.40625,0.6513672,-0.09375,-0.1875,-0.21875,0.0,0.0,0.0
1664371656061,-0.6230469,-0.40625,0.6435547,0.09375,0.15625,-0.28125,-40.8125,-5.9375,-106.375
1664371656090,-0.6308594,-0.4091797,0.63964844,0.03125,-0.25,-0.0625,0.0,0.0,0.0
1664371656152,-0.63183594,-0.41601562,0.6357422,-0.03125,-0.1875,-0.28125,0.0,0.0,0.0
1664371656181,-0.63671875,-0.4091797,0.64160156,-0.03125,-0.3125,-0.125,0.0,0.0,0.0
1664371656209,-0.63183594,-0.4140625,0.63671875,-0.09375,-0.125,-0.53125,0.0,0.0,0.0
1664371656268,-0.6347656,-0.41210938,0.640625,-0.09375,-0.25,-0.34375,0.0,0.0,0.0
1664371656299,-0.6269531,-0.4091797,0.63671875,0.09375,-0.25,-0.1875,0.0,0.0,0.0
1664371656329,-0.6279297,-0.4140625,0.6386719,-0.21875,-0.125,-0.34375,0.0,0.0,0.0
1664371656389,-0.62597656,-0.40820312,0.64160156,0.03125,0.0,-0.40625,0.0,0.0,0.0
1664371656421,-0.6376953,-0.4091797,0.6455078,0.15625,0.21875,-0.34375,0.0,0.0,0.0
1664371656451,-0.62597656,-0.4111328,0.6376953,-0.03125,0.0,-0.40625,0.0,0.0,0.0
1664371656510,-0.62597656,-0.4140625,0.64941406,-0.03125,0.0,-0.46875,0.0,0.0,0.0
1664371656539,-0.6347656,-0.41015625,0.6435547,-0.15625,-0.1875,-0.28125,0.0,0.0,0.0
1664371656570,-0.6357422,-0.4140625,0.64941406,-0.03125,0.03125,-0.53125,-39.3125,-6.4375,-105.625
1664371656629,-0.62402344,-0.40820312,0.63183594,0.09375,0.09375,-0.59375,0.0,0.0,0.0
1664371656661,-0.62890625,-0.4169922,0.6328125,0.15625,0.0,-0.40625,0.0,0.0,0.0
1664371656691,-0.6328125,-0.41308594,0.6308594,0.15625,0.0,-0.59375,0.0,0.0,0.0
1664371656750,-0.6269531,-0.41210938,0.6464844,-0.03125,0.03125,-0.53125,0.0,0.0,0.0
1664371656779,-0.6308594,-0.40625,0.6455078,0.03125,0.03125,-0.21875,0.0,0.0,0.0
1664371656810,-0.6220703,-0.4189453,0.6376953,0.03125,0.0,-0.34375,0.0,0.0,0.0
1664371656870,-0.62890625,-0.41503906,0.64453125,-0.03125,0.0,-0.53125,0.0,0.0,0.0
1664371656898,-0.6347656,-0.4169922,0.6503906,0.09375,0.28125,-0.34375,0.0,0.0,0.0
1664371656930,-0.63964844,-0.40722656,0.6513672,-0.03125,-0.125,-0.21875,0.0,0.0,0.0
1664371656991,-0.6298828,-0.4111328,0.6435547,0.09375,0.0,-0.59375,0.0,0.0,0.0
1664371657018,-0.6298828,-0.4189453,0.640625,-0.03125,0.15625,-0.71875,0.0,0.0,0.0
1664371657050,-0.6308594,-0.4091797,0.6464844,0.21875,0.0,-0.40625,-40.1875,-6.125,-107.625
1664371657111,-0.62402344,-0.41308594,0.64160156,-0.09375,-0.125,-0.21875,0.0,0.0,0.0
1664371657170,-0.6347656,-0.41210938,0.640625,-0.03125,0.0,-0.34375,0.0,0.0,0.0
1664371657173,-0.62402344,-0.41308594,0.6464844,-0.03125,0.09375,-0.28125,0.0,0.0,0.0
1664371657229,-0.6269531,-0.4169922,0.6533203,-0.09375,-0.0625,-0.0625,0.0,0.0,0.0
1664371657260,-0.6269531,-0.42089844,0.6386719,-0.09375,-0.1875,-0.28125,0.0,0.0,0.0
1664371657289,-0.62597656,-0.41308594,0.6464844,0.03125,-0.0625,-0.34375,0.0,0.0,0.0
1664371657351,-0.6308594,-0.41308594,0.640625,0.09375,0.0,-0.34375,0.0,0.0,0.0
1664371657380,-0.6298828,-0.40722656,0.6455078,-0.03125,0.03125,-0.21875,0.0,0.0,0.0
1664371657411,-0.63378906,-0.40820312,0.64160156,0.09375,0.03125,-0.46875,0.0,0.0,0.0
1664371657471,-0.6308594,-0.40820312,0.6464844,-0.09375,-0.125,-0.28125,0.0,0.0,0.0
1664371657500,-0.62890625,-0.41015625,0.64160156,-0.03125,0.03125,-0.21875,0.0,0.0,0.0
1664371657530,-0.61816406,-0.4111328,0.65722656,0.03125,0.03125,-0.21875,0.0,0.0,0.0
1664371657590,-0.6328125,-0.42089844,0.640625,-0.15625,-0.1875,-0.34375,-39.75,-5.1875,-105.375
1664371657620,-0.62597656,-0.41601562,0.64453125,-0.09375,-0.125,-0.21875,0.0,0.0,0.0
1664371657650,-0.6269531,-0.42089844,0.6513672,0.09375,0.0,0.0625,0.0,0.0,0.0
1664371657712,-0.61816406,-0.41601562,0.65722656,-0.15625,-0.125,-0.21875,0.0,0.0,0.0
1664371657740,-0.6298828,-0.41503906,0.6425781,-0.03125,-0.0625,-0.1875,0.0,0.0,0.0
1664371657770,-0.6230469,-0.4169922,0.6464844,-0.15625,-0.25,-0.21875,0.0,0.0,0.0
1664371657830,-0.6328125,-0.41503906,0.63964844,0.09375,0.03125,0.125,0.0,0.0,0.0
1664371657859,-0.625,-0.41601562,0.6464844,-0.15625,-0.1875,-0.125,0.0,0.0,0.0
1664371657889,-0.625,-0.40625,0.64941406,-0.03125,0.15625,0.0,0.0,0.0,0.0
1664371657949,-0.62890625,-0.4169922,0.6425781,-0.15625,-0.125,-0.0625,0.0,0.0,0.0
1664371657980,-0.6298828,-0.41308594,0.63183594,-0.15625,-0.125,-0.0625,0.0,0.0,0.0
1664371658010,-0.6269531,-0.4169922,0.6464844,-0.09375,-0.125,0.0,0.0,0.0,0.0
1664371658070,-0.63183594,-0.4111328,0.6425781,-0.09375,-0.0625,0.125,-40.9375,-6.875,-106.5625
1664371658099,-0.6308594,-0.41796875,0.6425781,-0.03125,-0.125,0.0625,0.0,0.0,0.0
1664371658130,-0.6328125,-0.41308594,0.6279297,0.03125,-0.125,0.25,0.0,0.0,0.0
1664371658191,-0.6357422,-0.41015625,0.6455078,-0.03125,0.0,-0.0625,0.0,0.0,0.0
1664371658223,-0.62109375,-0.41796875,0.6455078,-0.15625,-0.1875,0.0,0.0,0.0,0.0
1664371658251,-0.6201172,-0.41308594,0.640625,-0.03125,-0.0625,0.0625,0.0,0.0,0.0
1664371658312,-0.6298828,-0.41015625,0.64160156,-0.15625,-0.0625,0.0,0.0,0.0,0.0
1664371658340,-0.6171875,-0.41601562,0.64746094,-0.09375,-0.25,-0.125,0.0,0.0,0.0
1664371658370,-0.6279297,-0.4140625,0.6347656,-0.03125,0.03125,0.625,0.0,0.0,0.0
1664371658431,-0.6201172,-0.40429688,0.6455078,-0.09375,0.03125,0.375,0.0,0.0,0.0
1664371658459,-0.63183594,-0.40820312,0.6425781,-0.03125,-0.1875,-0.1875,0.0,0.0,0.0
1664371658490,-0.6279297,-0.41308594,0.6464844,-0.03125,-0.25,-0.1875,0.0,0.0,0.0
1664371658549,-0.63183594,-0.41503906,0.6435547,0.15625,-0.3125,0.25,0.0,0.0,0.0
1664371658580,-0.62597656,-0.41601562,0.63671875,-0.03125,-0.25,0.0625,-39.75,-4.625,-105.9375
1664371658610,-0.63378906,-0.41503906,0.64160156,0.03125,0.15625,0.25,0.0,0.0,0.0
1664371658669,-0.62890625,-0.40820312,0.62890625,-0.03125,0.0,0.0,0.0,0.0,0.0
1664371658700,-0.62597656,-0.4140625,0.6386719,-0.09375,-0.125,-0.0625,0.0,0.0,0.0
1664371658730,-0.6357422,-0.40820312,0.63671875,-0.15625,-0.125,-0.28125,0.0,0.0,0.0
1664371658791,-0.62402344,-0.40625,0.6464844,-0.09375,-0.1875,-0.21875,0.0,0.0,0.0
1664371658821,-0.6347656,-0.42089844,0.63671875,0.09375,0.0,-0.28125,0.0,0.0,0.0
1664371658851,-0.6308594,-0.41210938,0.6347656,-0.03125,-0.125,-0.40625,0.0,0.0,0.0
1664371658913,-0.6279297,-0.41015625,0.640625,-0.03125,-0.125,-0.21875,0.0,0.0,0.0
1664371658940,-0.6357422,-0.41015625,0.6435547,0.03125,0.03125,-0.1875,0.0,0.0,0.0
1664371658975,-0.6328125,-0.41308594,0.64941406,-0.03125,0.0,-0.40625,0.0,0.0,0.0
1664371659030,-0.62597656,-0.40625,0.64746094,-0.09375,-0.1875,-0.40625,0.0,0.0,0.0
1664371659062,-0.63671875,-0.41308594,0.65625,-0.03125,0.15625,-0.34375,-41.375,-5.0625,-106.125
1664371659091,-0.63671875,-0.41015625,0.640625,-0.09375,-0.25,-0.1875,0.0,0.0,0.0
1664371659149,-0.6279297,-0.4140625,0.6513672,0.03125,0.21875,-0.65625,0.0,0.0,0.0
1664371659180,-0.63378906,-0.40625,0.6455078,-0.09375,-0.0625,-0.71875,0.0,0.0,0.0
1664371659210,-0.6298828,-0.41308594,0.6455078,0.03125,0.0,-0.40625,0.0,0.0,0.0
1664371659270,-0.62402344,-0.40527344,0.63964844,-0.03125,-0.125,-0.28125,0.0,0.0,0.0
1664371659299,-0.6308594,-0.40722656,0.6425781,0.03125,0.09375,-0.40625,0.0,0.0,0.0
1664371659329,-0.6191406,-0.40722656,0.64746094,0.09375,0.0,-0.46875,0.0,0.0,0.0
1664371659387,-0.6230469,-0.41601562,0.65234375,0.03125,0.0,-0.59375,0.0,0.0,0.0
1664371659453,-0.625,-0.41210938,0.64453125,0.03125,0.09375,-0.46875,0.0,0.0,0.0
1664371659455,-0.6308594,-0.41503906,0.6464844,-0.03125,0.03125,-0.28125,0.0,0.0,0.0
1664371659511,-0.6347656,-0.41015625,0.63671875,-0.03125,0.0,-0.59375,0.0,0.0,0.0
1664371659539,-0.625,-0.41503906,0.64746094,-0.03125,0.09375,-0.53125,0.0,0.0,0.0
1664371659570,-0.6230469,-0.41308594,0.65234375,-0.09375,-0.0625,-0.40625,-42.0,-4.4375,-106.5625
1664371659630,-0.6308594,-0.42089844,0.6464844,0.03125,0.0,-0.53125,0.0,0.0,0.0
1664371659659,-0.6269531,-0.4091797,0.6435547,0.03125,0.15625,-0.40625,0.0,0.0,0.0
1664371659691,-0.6357422,-0.41503906,0.63183594,-0.03125,-0.125,-0.21875,0.0,0.0,0.0
1664371659750,-0.6347656,-0.41015625,0.640625,-0.03125,0.0,-0.59375,0.0,0.0,0.0
1664371659779,-0.63671875,-0.41992188,0.6464844,0.15625,0.0,-0.21875,0.0,0.0,0.0
1664371659810,-0.62402344,-0.4169922,0.640625,-0.03125,0.0,-0.78125,0.0,0.0,0.0
1664371659870,-0.6308594,-0.42089844,0.6455078,0.09375,0.09375,-0.65625,0.0,0.0,0.0
1664371659900,-0.6298828,-0.41503906,0.6308594,-0.21875,0.0,-0.65625,0.0,0.0,0.0
1664371659932,-0.625,-0.4140625,0.6386719,0.03125,-0.0625,0.0,0.0,0.0,0.0
1664371659991,-0.63671875,-0.40625,0.64746094,-0.09375,0.0,-0.40625,0.0,0.0,0.0
1664371660019,-0.6298828,-0.4091797,0.6503906,-0.03125,0.03125,-0.21875,0.0,0.0,0.0
1664371660049,-0.6279297,-0.41503906,0.65234375,-0.03125,0.15625,-0.1875,-41.5625,-6.4375,-105.625
1664371660109,-0.63183594,-0.41210938,0.64453125,-0.09375,0.0,-0.28125,0.0,0.0,0.0
1664371660140,-0.6308594,-0.4140625,0.6425781,0.03125,0.03125,-0.1875,0.0,0.0,0.0
1664371660168,-0.6230469,-0.4169922,0.64746094,0.09375,0.0,-0.21875,0.0,0.0,0.0
1664371660229,-0.625,-0.4140625,0.6308594,0.15625,-0.0625,-0.28125,0.0,0.0,0.0
1664371660261,-0.6220703,-0.41503906,0.6513672,-0.09375,-0.1875,-0.125,0.0,0.0,0.0
1664371660289,-0.62890625,-0.41601562,0.6376953,0.09375,0.03125,-0.0625,0.0,0.0,0.0
1664371660350,-0.62109375,-0.41992188,0.6464844,-0.03125,0.0,0.0,0.0,0.0,0.0
1664371660380,-0.63378906,-0.41503906,0.6435547,-0.09375,-0.1875,0.125,0.0,0.0,0.0
1664371660410,-0.61816406,-0.4169922,0.6503906,-0.21875,-0.0625,-0.34375,0.0,0.0,0.0
1664371660471,-0.640625,-0.41601562,0.6376953,0.03125,0.03125,0.1875,0.0,0.0,0.0
1664371660500,-0.6220703,-0.41601562,0.63671875,-0.15625,0.0,-0.1875,0.0,0.0,0.0
1664371660529,-0.6269531,-0.4169922,0.6435547,0.03125,0.03125,-0.21875,0.0,0.0,0.0
1664371660589,-0.6201172,-0.41503906,0.6464844,-0.15625,0.0,-0.1875,-41.125,-5.1875,-104.875
1664371660619,-0.63183594,-0.40527344,0.63964844,-0.03125,-0.0625,0.3125,0.0,0.0,0.0
1664371660651,-0.62890625,-0.41503906,0.63183594,-0.28125,-0.1875,-0.125,0.0,0.0,0.0
1664371660710,-0.6347656,-0.40722656,0.6533203,-0.15625,0.15625,-0.0625,0.0,0.0,0.0
1664371660740,-0.63183594,-0.4091797,0.63964844,-0.28125,-0.25,-0.0625,0.0,0.0,0.0
1664371660768,-0.6357422,-0.42089844,0.6386719,0.03125,0.0,0.0,0.0,0.0,0.0
1664371660831,-0.63671875,-0.41992188,0.64160156,-0.09375,-0.125,0.0,0.0,0.0,0.0
1664371660861,-0.6298828,-0.4169922,0.6376953,-0.03125,-0.1875,-0.0625,0.0,0.0,0.0
1664371660891,-0.6357422,-0.41503906,0.640625,-0.09375,-0.1875,0.0625,0.0,0.0,0.0
1664371660950,-0.62890625,-0.4033203,0.6376953,0.03125,-0.375,0.1875,0.0,0.0,0.0
1664371660981,-0.6220703,-0.41210938,0.6621094,-0.09375,-0.125,0.1875,0.0,0.0,0.0
1664371661010,-0.6220703,-0.41992188,0.6386719,-0.09375,-0.125,0.0,0.0,0.0,0.0
1664371661071,-0.63183594,-0.41308594,0.6425781,-0.09375,-0.3125,0.0625,-39.0,-5.6875,-105.375
1664371661100,-0.6269531,-0.4091797,0.64453125,-0.03125,0.03125,0.0625,0.0,0.0,0.0
1664371661129,-0.6230469,-0.4169922,0.6308594,-0.03125,-0.3125,0.3125,0.0,0.0,0.0
1664371661191,-0.625,-0.4140625,0.6464844,-0.15625,-0.125,-0.125,0.0,0.0,0.0
1664371661219,-0.6298828,-0.4169922,0.6347656,-0.09375,-0.125,-0.125,0.0,0.0,0.0
1664371661251,-0.63183594,-0.41601562,0.6484375,-0.09375,-0.25,0.3125,0.0,0.0,0.0
1664371661311,-0.63183594,-0.41210938,0.6435547,-0.09375,-0.25,0.0625,0.0,0.0,0.0
1664371661340,-0.62597656,-0.41503906,0.63671875,0.21875,0.0,-0.28125,0.0,0.0,0.0
1664371661370,-0.6386719,-0.40527344,0.6455078,0.09375,0.03125,-0.34375,0.0,0.0,0.0
1664371661429,-0.6201172,-0.4111328,0.65234375,0.03125,-0.125,-0.21875,0.0,0.0,0.0
1664371661461,-0.625,-0.41308594,0.6357422,0.09375,0.03125,-0.34375,0.0,0.0,0.0
1664371661490,-0.6279297,-0.40820312,0.6425781,0.03125,0.0,-0.34375,0.0,0.0,0.0
1664371661549,-0.6298828,-0.41015625,0.64160156,0.15625,0.09375,-0.40625,0.0,0.0,0.0
1664371661580,-0.62402344,-0.4169922,0.64160156,0.03125,0.0,-0.46875,-38.25,-4.625,-105.9375
1664371661610,-0.6328125,-0.4033203,0.63378906,0.09375,0.15625,-0.53125,0.0,0.0,0.0
1664371661670,-0.625,-0.41015625,0.6611328,-0.09375,-0.0625,-0.34375,0.0,0.0,0.0
1664371661730,-0.62597656,-0.40722656,0.6376953,-0.03125,0.0,-0.34375,0.0,0.0,0.0
1664371661734,-0.6347656,-0.41503906,0.6464844,0.03125,-0.125,-0.46875,0.0,0.0,0.0
1664371661790,-0.62890625,-0.4111328,0.64746094,0.09375,0.28125,-0.34375,0.0,0.0,0.0
1664371661820,-0.6386719,-0.40625,0.6376953,-0.03125,-0.125,-0.1875,0.0,0.0,0.0
1664371661853,-0.6269531,-0.40722656,0.65527344,0.09375,0.15625,-0.59375,0.0,0.0,0.0
1664371661909,-0.63378906,-0.41210938,0.6357422,-0.03125,0.09375,-0.65625,0.0,0.0,0.0
1664371661941,-0.6308594,-0.42089844,0.6386719,-0.09375,-0.1875,-0.21875,0.0,0.0,0.0
1664371661971,-0.625,-0.40820312,0.63964844,-0.03125,0.0,-0.21875,0.0,0.0,0.0
1664371662028,-0.62890625,-0.40429688,0.6298828,0.15625,0.21875,-0.21875,0.0,0.0,0.0
1664371662061,-0.6220703,-0.42382812,0.6464844,-0.09375,0.34375,-0.65625,-42.0,-5.8125,-106.125
1664371662090,-0.62597656,-0.42089844,0.6484375,0.03125,0.09375,-0.46875,0.0,0.0,0.0
1664371662148,-0.6230469,-0.4169922,0.6611328,-0.03125,0.21875,-0.34375,0.0,0.0,0.0
1664371662180,-0.62597656,-0.42089844,0.63964844,-0.15625,-0.1875,-0.125,0.0,0.0,0.0
1664371662210,-0.6328125,-0.41796875,0.6347656,-0.03125,0.09375,-0.40625,0.0,0.0,0.0
1664371662270,-0.6376953,-0.41796875,0.65527344,0.15625,0.15625,-0.34375,0.0,0.0,0.0
1664371662301,-0.6230469,-0.41503906,0.6386719,-0.09375,-0.0625,-0.21875,0.0,0.0,0.0
1664371662330,-0.6230469,-0.421875,0.6386719,0.03125,0.09375,-0.21875,0.0,0.0,0.0
1664371662389,-0.6269531,-0.4169922,0.640625,-0.03125,0.0,-0.34375,0.0,0.0,0.0
1664371662419,-0.62597656,-0.41503906,0.6464844,-0.03125,-0.125,-0.34375,0.0,0.0,0.0
1664371662452,-0.6298828,-0.41796875,0.6503906,-0.09375,0.03125,-0.28125,0.0,0.0,0.0
1664371662509,-0.6308594,-0.421875,0.6513672,-0.09375,-0.375,0.0625,0.0,0.0,0.0
1664371662539,-0.62597656,-0.41308594,0.63671875,-0.03125,0.09375,-0.28125,0.0,0.0,0.0
1664371662570,-0.62890625,-0.41796875,0.63964844,-0.21875,-0.1875,-0.28125,-41.375,-5.8125,-105.5
1664371662632,-0.6328125,-0.41210938,0.6484375,-0.03125,-0.0625,-0.0625,0.0,0.0,0.0
1664371662660,-0.6269531,-0.40820312,0.64160156,0.03125,-0.1875,0.0,0.0,0.0,0.0
1664371662690,-0.6308594,-0.4189453,0.640625,-0.09375,0.03125,-0.0625,0.0,0.0,0.0
1664371662749,-0.6308594,-0.41210938,0.6328125,0.03125,-0.0625,0.0,0.0,0.0,0.0
1664371662780,-0.63378906,-0.4140625,0.6386719,-0.03125,0.03125,0.1875,0.0,0.0,0.0
1664371662810,-0.63378906,-0.4248047,0.6386719,-0.03125,0.0,0.0,0.0,0.0,0.0
1664371662870,-0.625,-0.41308594,0.6484375,-0.09375,-0.1875,-0.125,0.0,0.0,0.0
1664371662899,-0.63183594,-0.41308594,0.6513672,-0.03125,0.0,0.125,0.0,0.0,0.0
1664371662930,-0.625,-0.41210938,0.63964844,-0.09375,-0.3125,0.0,0.0,0.0,0.0
1664371662991,-0.6269531,-0.4169922,0.6425781,-0.09375,-0.0625,0.0,0.0,0.0,0.0
1664371663020,-0.62890625,-0.4111328,0.6279297,-0.15625,-0.1875,0.0,0.0,0.0,0.0
1664371663051,-0.63183594,-0.41796875,0.64453125,-0.09375,-0.3125,0.0,-39.875,-6.5625,-107.125
1664371663110,-0.6347656,-0.40625,0.640625,-0.09375,-0.1875,0.0625,0.0,0.0,0.0
1664371663138,-0.6376953,-0.41992188,0.63183594,-0.15625,-0.0625,0.0625,0.0,0.0,0.0
1664371663169,-0.6328125,-0.4111328,0.6484375,-0.15625,-0.3125,0.0,0.0,0.0,0.0
1664371663230,-0.6308594,-0.41308594,0.6357422,-0.09375,-0.1875,0.5,0.0,0.0,0.0
1664371663260,-0.6279297,-0.42089844,0.6513672,-0.40625,-0.125,0.0,0.0,0.0,0.0
1664371663290,-0.62402344,-0.41796875,0.6298828,-0.09375,-0.3125,-0.21875,0.0,0.0,0.0
1664371663351,-0.61816406,-0.42285156,0.6376953,-0.03125,0.0,0.0625,0.0,0.0,0.0
1664371663380,-0.63671875,-0.4111328,0.64746094,-0.03125,-0.375,0.375,0.0,0.0,0.0
1664371663410,-0.6220703,-0.40722656,0.6591797,-0.09375,-0.125,-0.0625,0.0,0.0,0.0
1664371663470,-0.6279297,-0.41210938,0.6464844,0.09375,0.03125,0.1875,0.0,0.0,0.0
1664371663499,-0.625,-0.4091797,0.64746094,-0.09375,-0.125,0.0625,0.0,0.0,0.0
1664371663530,-0.6357422,-0.41503906,0.6484375,-0.09375,-0.125,0.1875,0.0,0.0,0.0
1664371663591,-0.6308594,-0.4091797,0.6621094,-0.09375,-0.25,0.125,-40.1875,-5.5,-105.8125
1664371663618,-0.63183594,-0.40722656,0.63964844,-0.09375,-0.25,0.0,0.0,0.0,0.0
1664371663649,-0.6279297,-0.4013672,0.65234375,0.03125,0.0,0.0,0.0,0.0,0.0
1664371663709,-0.6279297,-0.41601562,0.6464844,0.09375,-0.1875,-0.28125,0.0,0.0,0.0
1664371663742,-0.63183594,-0.40722656,0.6455078,0.15625,-0.1875,-0.34375,0.0,0.0,0.0
1664371663769,-0.63378906,-0.41210938,0.640625,0.15625,0.0,-0.21875,0.0,0.0,0.0
1664371663830,-0.62597656,-0.41210938,0.6357422,-0.09375,-0.0625,-0.34375,0.0,0.0,0.0
1664371663862,-0.6357422,-0.4140625,0.64453125,-0.03125,-0.125,-0.34375,0.0,0.0,0.0
1664371663888,-0.63183594,-0.42285156,0.6582031,-0.03125,0.21875,-0.28125,0.0,0.0,0.0
1664371663951,-0.64160156,-0.4111328,0.65527344,0.03125,-0.25,-0.1875,0.0,0.0,0.0
1664371664008,-0.62402344,-0.4033203,0.64453125,-0.03125,0.09375,-0.65625,0.0,0.0,0.0
1664371664010,-0.6269531,-0.41210938,0.6542969,-0.03125,0.0,-0.59375,0.0,0.0,0.0
1664371664070,-0.6347656,-0.4111328,0.65625,-0.03125,-0.0625,-0.34375,-40.8125,-5.9375,-107.3125
1664371664099,-0.6269531,-0.40625,0.6435547,-0.09375,-0.0625,-0.21875,0.0,0.0,0.0
1664371664129,-0.63183594,-0.40820312,0.6464844,0.03125,0.03125,-0.40625,0.0,0.0,0.0
1664371664190,-0.6269531,-0.41210938,0.64746094,0.03125,0.03125,-0.34375,0.0,0.0,0.0
1664371664220,-0.61816406,-0.42382812,0.63964844,0.09375,0.03125,-0.34375,0.0,0.0,0.0
1664371664250,-0.6298828,-0.41992188,0.6484375,-0.09375,-0.0625,-0.46875,0.0,0.0,0.0
1664371664310,-0.6220703,-0.41308594,0.6376953,-0.03125,0.0,-0.40625,0.0,0.0,0.0
1664371664339,-0.63964844,-0.41308594,0.6435547,-0.03125,0.09375,-0.46875,0.0,0.0,0.0
1664371664369,-0.625,-0.4189453,0.65625,0.15625,0.1875,-0.5,0.0,0.0,0.0
1664371664430,-0.63183594,-0.4189453,0.6357422,0.0,0.0,-0.3125,0.0,0.0,0.0
1664371664460,-0.6298828,-0.4140625,0.63964844,0.0,0.125,-0.0625,0.0,0.0,0.0
1664371664489,-0.6191406,-0.41796875,0.6435547,0.0,0.0625,-0.0625,0.0,0.0,0.0
1664371664549,-0.63671875,-0.41308594,0.63671875,0.0,0.125,-0.125,0.0,0.0,0.0
1664371664580,-0.62890625,-0.4169922,0.6455078,-0.0625,0.0,-0.0625,-40.5,-5.9375,-104.625
1664371664610,-0.6357422,-0.4140625,0.640625,0.0,0.125,-0.125,0.0,0.0,0.0
1664371664668,-0.63183594,-0.4140625,0.63378906,-0.0625,-0.0625,0.21875,0.0,0.0,0.0
1664371664702,-0.625,-0.4267578,0.6386719,-0.0625,0.0625,-0.0625,0.0,0.0,0.0
1664371664730,-0.6279297,-0.41992188,0.63671875,-0.0625,0.0,-0.25,0.0,0.0,0.0
1664371664788,-0.6220703,-0.4169922,0.6376953,0.0,0.0,-0.0625,0.0,0.0,0.0
1664371664820,-0.63183594,-0.41601562,0.63671875,0.0625,0.0,0.125,0.0,0.0,0.0
1664371664852,-0.6298828,-0.4111328,0.62890625,-0.0625,0.125,0.0,0.0,0.0,0.0
1664371664909,-0.62597656,-0.4111328,0.6425781,0.0,0.0625,-0.0625,0.0,0.0,0.0
1664371664941,-0.6142578,-0.41992188,0.625,-0.0625,0.0,0.125,0.0,0.0,0.0
1664371664970,-0.63183594,-0.41308594,0.65625,-0.0625,-0.1875,0.1875,0.0,0.0,0.0
1664371665028,-0.62402344,-0.4189453,0.640625,0.0,0.0625,0.28125,0.0,0.0,0.0
1664371665061,-0.62402344,-0.4189453,0.6425781,-0.125,-0.25,0.1875,-40.1875,-5.0625,-105.8125
1664371665089,-0.6357422,-0.41601562,0.6455078,0.09375,0.25,0.0,0.0,0.0,0.0
1664371665150,-0.6279297,-0.41992188,0.6435547,-0.125,-0.1875,0.125,0.0,0.0,0.0
1664371665179,-0.61621094,-0.41503906,0.64453125,-0.0625,-0.0625,0.1875,0.0,0.0,0.0
1664371665211,-0.6298828,-0.42578125,0.6484375,-0.125,0.1875,0.1875,0.0,0.0,0.0
1664371665268,-0.6308594,-0.4189453,0.6308594,-0.1875,-0.0625,0.21875,0.0,0.0,0.0
1664371665298,-0.625,-0.4091797,0.64746094,-0.0625,-0.125,0.34375,0.0,0.0,0.0
1664371665330,-0.6230469,-0.42285156,0.6425781,-0.1875,0.0,0.0,0.0,0.0,0.0
1664371665392,-0.6269531,-0.41308594,0.6591797,0.0625,-0.0625,0.65625,0.0,0.0,0.0
1664371665421,-0.6230469,-0.4140625,0.63671875,-0.1875,0.0,0.1875,0.0,0.0,0.0
1664371665450,-0.63183594,-0.4189453,0.65234375,0.0625,-0.25,0.0625,0.0,0.0,0.0
1664371665512,-0.6298828,-0.41308594,0.6464844,-0.125,0.0625,0.1875,0.0,0.0,0.0
1664371665539,-0.6279297,-0.4091797,0.6357422,-0.0625,0.0,0.34375,0.0,0.0,0.0
1664371665570,-0.6279297,-0.41308594,0.6347656,0.0,0.25,0.1875,-40.5,-4.9375,-105.625
1664371665634,-0.63183594,-0.41992188,0.64160156,0.0,0.25,0.46875,0.0,0.0,0.0
1664371665658,-0.63183594,-0.41601562,0.6357422,-0.0625,0.0,0.28125,0.0,0.0,0.0
1664371665690,-0.62890625,-0.41503906,0.6435547,0.09375,0.0625,0.40625,0.0,0.0,0.0
1664371665750,-0.63378906,-0.4169922,0.6386719,-0.125,-0.125,0.34375,0.0,0.0,0.0
1664371665780,-0.62402344,-0.41796875,0.63964844,0.0,-0.1875,0.46875,0.0,0.0,0.0
1664371665809,-0.63183594,-0.41015625,0.64941406,0.0625,0.125,0.40625,0.0,0.0,0.0
1664371665871,-0.625,-0.4091797,0.63964844,0.0,-0.25,0.28125,0.0,0.0,0.0
1664371665899,-0.62597656,-0.41015625,0.6455078,0.0,-0.125,0.34375,0.0,0.0,0.0
1664371665930,-0.63183594,-0.41015625,0.6435547,0.0,0.0,0.1875,0.0,0.0,0.0
1664371665991,-0.63378906,-0.41210938,0.6386719,0.09375,-0.0625,-0.0625,0.0,0.0,0.0
1664371666018,-0.62402344,-0.4111328,0.6533203,0.0,0.0,-0.0625,0.0,0.0,0.0
1664371666049,-0.6220703,-0.4189453,0.62890625,-0.0625,0.0,-0.125,-40.0625,-5.6875,-105.625
1664371666111,-0.6328125,-0.40527344,0.640625,0.0625,-0.375,0.28125,0.0,0.0,0.0
1664371666140,-0.6279297,-0.41796875,0.64453125,-0.0625,-0.125,-0.1875,0.0,0.0,0.0
1664371666170,-0.63964844,-0.41210938,0.64746094,0.15625,-0.0625,-0.375,0.0,0.0,0.0
1664371666229,-0.62890625,-0.41601562,0.6542969,-0.125,-0.125,-0.1875,0.0,0.0,0.0
1664371666289,-0.63183594,-0.41503906,0.6484375,0.0625,0.0,0.0625,0.0,0.0,0.0
1664371666292,-0.63183594,-0.4140625,0.6386719,0.0,0.125,-0.3125,0.0,0.0,0.0
1664371666350,-0.6230469,-0.4169922,0.6484375,0.09375,0.125,-0.0625,0.0,0.0,0.0
1664371666380,-0.6308594,-0.41503906,0.63378906,-0.0625,0.0,-0.1875,0.0,0.0,0.0
1664371666412,-0.6357422,-0.41992188,0.63964844,0.09375,0.125,-0.375,0.0,0.0,0.0
1664371666471,-0.63378906,-0.4140625,0.65527344,-0.0625,0.0625,-0.4375,0.0,0.0,0.0
1664371666501,-0.6279297,-0.41796875,0.640625,0.09375,0.0625,-0.1875,0.0,0.0,0.0
1664371666530,-0.63183594,-0.42285156,0.63378906,0.0625,0.0,-0.3125,0.0,0.0,0.0
1664371666590,-0.62597656,-0.40722656,0.6386719,0.09375,0.1875,-0.5,-41.125,-4.9375,-105.625
1664371666620,-0.62402344,-0.41992188,0.6464844,0.0625,-0.0625,-0.375,0.0,0.0,0.0
1664371666651,-0.6376953,-0.4169922,0.6484375,0.0,0.1875,-0.25,0.0,0.0,0.0
1664371666709,-0.62597656,-0.41601562,0.65527344,0.0,0.0625,-0.3125,0.0,0.0,0.0
1664371666738,-0.625,-0.41992188,0.6357422,0.0,-0.1875,-0.3125,0.0,0.0,0.0
1664371666768,-0.6230469,-0.41503906,0.64453125,0.09375,0.4375,-0.0625,0.0,0.0,0.0
1664371666831,-0.6425781,-0.41015625,0.640625,0.0,0.0,-0.125,0.0,0.0,0.0
1664371666862,-0.63183594,-0.4091797,0.6455078,0.0,0.3125,-0.375,0.0,0.0,0.0
1664371666890,-0.6220703,-0.42089844,0.6328125,0.0,-0.1875,-0.4375,0.0,0.0,0.0
1664371666950,-0.6298828,-0.41210938,0.64160156,-0.0625,0.0,-0.0625,0.0,0.0,0.0
1664371666980,-0.63378906,-0.40625,0.6464844,-0.0625,-0.0625,0.0,0.0,0.0,0.0
1664371667009,-0.6357422,-0.41308594,0.6464844,0.0,0.1875,-0.125,0.0,0.0,0.0
1664371667071,-0.6347656,-0.42089844,0.6279297,0.0,0.125,-0.125,-41.125,-4.9375,-106.375
1664371667099,-0.62890625,-0.41210938,0.64453125,0.0,0.1875,-0.1875,0.0,0.0,0.0
1664371667130,-0.6220703,-0.41210938,0.6357422,0.0625,0.0625,-0.0625,0.0,0.0,0.0
1664371667191,-0.63183594,-0.4140625,0.63671875,-0.0625,0.0,0.125,0.0,0.0,0.0
1664371667221,-0.6279297,-0.41796875,0.6435547,0.0625,-0.0625,0.0625,0.0,0.0,0.0
1664371667250,-0.63378906,-0.4111328,0.6279297,0.0625,0.0625,0.0,0.0,0.0,0.0
1664371667307,-0.62597656,-0.42285156,0.64746094,0.0,0.0625,-0.0625,0.0,0.0,0.0
1664371667340,-0.6269531,-0.40820312,0.6386719,-0.0625,-0.125,0.0,0.0,0.0,0.0
1664371667370,-0.6376953,-0.41210938,0.6455078,0.0,0.125,-0.1875,0.0,0.0,0.0
1664371667429,-0.6347656,-0.4111328,0.63671875,-0.0625,-0.125,-0.0625,0.0,0.0,0.0
1664371667461,-0.62402344,-0.42285156,0.65234375,-0.0625,-0.0625,0.0,0.0,0.0,0.0
1664371667489,-0.6230469,-0.4111328,0.64160156,0.0,-0.0625,0.34375,0.0,0.0,0.0
1664371667548,-0.63183594,-0.40625,0.6298828,-0.125,0.0,0.0625,0.0,0.0,0.0
1664371667580,-0.625,-0.40820312,0.6435547,-0.25,0.0,0.0625,-42.625,-6.6875,-106.375
1664371667609,-0.6298828,-0.41503906,0.63964844,-0.1875,-0.0625,0.21875,0.0,0.0,0.0
1664371667669,-0.6279297,-0.4111328,0.6347656,0.0,0.0,0.40625,0.0,0.0,0.0
1664371667701,-0.6269531,-0.41210938,0.6328125,0.0,0.0625,0.125,0.0,0.0,0.0
1664371667729,-0.62402344,-0.40625,0.65722656,0.09375,0.1875,0.125,0.0,0.0,0.0
1664371667789,-0.62597656,-0.40625,0.6464844,-0.0625,-0.125,0.40625,0.0,0.0,0.0
1664371667819,-0.6308594,-0.41992188,0.6435547,0.0,0.0625,0.125,0.0,0.0,0.0
1664371667850,-0.6279297,-0.4111328,0.63671875,-0.125,0.0,0.1875,0.0,0.0,0.0
1664371667909,-0.62890625,-0.4111328,0.6435547,-0.0625,-0.25,0.46875,0.0,0.0,0.0
1664371667940,-0.62890625,-0.41992188,0.64746094,-0.0625,-0.25,0.28125,0.0,0.0,0.0
1664371667970,-0.63183594,-0.41503906,0.6425781,0.0,0.125,0.1875,0.0,0.0,0.0
1664371668030,-0.63183594,-0.41308594,0.64746094,-0.0625,-0.0625,0.28125,0.0,0.0,0.0
1664371668058,-0.6308594,-0.41308594,0.6611328,0.0625,0.0,0.21875,-40.625,-5.5,-106.5625
1664371668090,-0.625,-0.4140625,0.6376953,-0.0625,0.0,0.21875,0.0,0.0,0.0
1664371668149,-0.62890625,-0.4189453,0.6386719,-0.0625,-0.3125,0.40625,0.0,0.0,0.0
1664371668180,-0.6328125,-0.421875,0.6611328,-0.0625,-0.0625,0.28125,0.0,0.0,0.0
1664371668212,-0.62597656,-0.40820312,0.64746094,-0.0625,-0.3125,0.65625,0.0,0.0,0.0
1664371668269,-0.62597656,-0.4140625,0.65527344,-0.1875,-0.0625,0.125,0.0,0.0,0.0
1664371668300,-0.62597656,-0.41308594,0.6386719,-0.09375,-0.21875,0.0,0.0,0.0,0.0
1664371668329,-0.625,-0.41796875,0.64453125,-0.03125,-0.03125,0.0625,0.0,0.0,0.0
1664371668389,-0.6269531,-0.41210938,0.6582031,-0.03125,-0.28125,0.4375,0.0,0.0,0.0
1664371668420,-0.62402344,-0.40625,0.6435547,0.03125,-0.03125,0.3125,0.0,0.0,0.0
1664371668451,-0.6298828,-0.41601562,0.6435547,0.21875,-0.03125,0.25,0.0,0.0,0.0
1664371668511,-0.62890625,-0.40722656,0.6386719,0.03125,-0.09375,0.375,0.0,0.0,0.0
1664371668572,-0.6308594,-0.41210938,0.65527344,-0.03125,-0.15625,0.375,0.0,0.0,0.0
1664371668574,-0.62597656,-0.4140625,0.65234375,-0.03125,-0.15625,0.0625,-41.375,-5.8125,-104.75
1664371668630,-0.6347656,-0.41308594,0.63671875,-0.03125,0.03125,0.125,0.0,0.0,0.0
1664371668659,-0.6201172,-0.40820312,0.640625,-0.03125,-0.09375,0.0625,0.0,0.0,0.0
1664371668689,-0.6328125,-0.4111328,0.6513672,-0.03125,0.03125,-0.125,0.0,0.0,0.0
1664371668751,-0.6386719,-0.40429688,0.6328125,-0.03125,0.03125,0.0625,0.0,0.0,0.0
1664371668780,-0.62597656,-0.41308594,0.65527344,0.09375,0.25,-0.1875,0.0,0.0,0.0
1664371668809,-0.63378906,-0.40722656,0.6464844,0.09375,-0.09375,-0.40625,0.0,0.0,0.0
1664371668870,-0.6298828,-0.41308594,0.6513672,0.03125,0.15625,-0.3125,0.0,0.0,0.0
1664371668898,-0.62597656,-0.41308594,0.6308594,0.03125,-0.03125,-0.125,0.0,0.0,0.0
1664371668928,-0.6201172,-0.4091797,0.64453125,-0.03125,0.15625,-0.59375,0.0,0.0,0.0
1664371668991,-0.6386719,-0.41601562,0.63964844,0.03125,-0.03125,-0.40625,0.0,0.0,0.0
1664371669020,-0.6308594,-0.40820312,0.6513672,0.09375,0.15625,-0.53125,0.0,0.0,0.0
1664371669050,-0.6279297,-0.41015625,0.63183594,0.15625,0.1875,-0.34375,-40.5,-5.1875,-105.9375
1664371669111,-0.62109375,-0.4169922,0.6328125,0.09375,0.3125,-0.59375,0.0,0.0,0.0
1664371669139,-0.6308594,-0.4140625,0.6386719,0.03125,0.25,-0.46875,0.0,0.0,0.0
1664371669169,-0.6279297,-0.41210938,0.64453125,0.03125,0.1875,-0.46875,0.0,0.0,0.0
1664371669230,-0.63183594,-0.4111328,0.6542969,0.03125,0.1875,-0.53125,0.0,0.0,0.0
1664371669260,-0.6298828,-0.4111328,0.65234375,0.09375,-0.03125,-0.3125,0.0,0.0,0.0
1664371669289,-0.6308594,-0.41503906,0.63671875,0.03125,0.15625,-0.125,0.0,0.0,0.0
1664371669349,-0.62890625,-0.4091797,0.64941406,-0.03125,-0.09375,-0.1875,0.0,0.0,0.0
1664371669380,-0.62402344,-0.40722656,0.64453125,0.09375,0.09375,-0.65625,0.0,0.0,0.0
1664371669408,-0.6220703,-0.40820312,0.6542969,0.03125,0.3125,-0.46875,0.0,0.0,0.0
1664371669472,-0.6191406,-0.40625,0.640625,-0.09375,0.25,-0.34375,0.0,0.0,0.0
1664371669500,-0.63183594,-0.4140625,0.6484375,0.03125,0.09375,-0.46875,0.0,0.0,0.0
1664371669529,-0.625,-0.4091797,0.640625,-0.09375,0.03125,-0.46875,0.0,0.0,0.0
1664371669590,-0.63183594,-0.41601562,0.65234375,0.03125,0.3125,-0.0625,-40.0625,-4.9375,-106.375
1664371669621,-0.6220703,-0.41601562,0.6455078,-0.03125,-0.09375,-0.0625,0.0,0.0,0.0
1664371669650,-0.62402344,-0.41503906,0.6328125,0.03125,0.3125,-0.53125,0.0,0.0,0.0
1664371669711,-0.63183594,-0.4189453,0.6376953,-0.21875,0.15625,-0.65625,0.0,0.0,0.0
1664371669742,-0.63671875,-0.41308594,0.63183594,0.03125,0.15625,0.0,0.0,0.0,0.0
1664371669770,-0.6376953,-0.39941406,0.6464844,-0.03125,-0.09375,-0.0625,0.0,0.0,0.0
1664371669831,-0.62597656,-0.421875,0.6455078,0.03125,0.09375,-0.25,0.0,0.0,0.0
1664371669861,-0.6269531,-0.4169922,0.6591797,0.03125,0.1875,-0.125,0.0,0.0,0.0
1664371669891,-0.6230469,-0.4140625,0.640625,0.03125,0.15625,-0.125,0.0,0.0,0.0
1664371669950,-0.63378906,-0.41015625,0.6435547,0.03125,0.1875,-0.3125,0.0,0.0,0.0
1664371669981,-0.625,-0.41210938,0.6425781,0.03125,0.15625,-0.125,0.0,0.0,0.0
1664371670010,-0.6308594,-0.4091797,0.6298828,0.09375,0.1875,-0.25,0.0,0.0,0.0
1664371670070,-0.6308594,-0.41308594,0.64746094,-0.03125,0.03125,-0.125,-40.625,-5.5,-104.4375
1664371670103,-0.6279297,-0.4111328,0.640625,-0.03125,-0.03125,-0.3125,0.0,0.0,0.0
1664371670129,-0.6298828,-0.41503906,0.6503906,0.03125,0.09375,-0.125,0.0,0.0,0.0
1664371670190,-0.62597656,-0.4111328,0.6513672,0.03125,0.3125,-0.25,0.0,0.0,0.0
1664371670222,-0.6347656,-0.4140625,0.63378906,-0.15625,0.1875,-0.1875,0.0,0.0,0.0
1664371670250,-0.6220703,-0.4111328,0.6435547,-0.03125,-0.03125,-0.1875,0.0,0.0,0.0
1664371670311,-0.6269531,-0.42382812,0.6464844,0.15625,0.1875,0.3125,0.0,0.0,0.0
1664371670341,-0.6376953,-0.4091797,0.640625,-0.21875,-0.09375,0.0,0.0,0.0,0.0
1664371670371,-0.62890625,-0.42089844,0.63671875,-0.03125,-0.03125,-0.0625,0.0,0.0,0.0
1664371670430,-0.6230469,-0.4169922,0.6386719,-0.21875,0.03125,0.0,0.0,0.0,0.0
1664371670460,-0.6220703,-0.421875,0.64453125,-0.09375,-0.21875,0.5,0.0,0.0,0.0
1664371670489,-0.63183594,-0.4140625,0.64746094,-0.21875,-0.03125,0.0625,0.0,0.0,0.0
1664371670549,-0.63671875,-0.4189453,0.63964844,-0.03125,0.15625,0.0,0.0,0.0,0.0
1664371670579,-0.6298828,-0.4091797,0.6328125,-0.03125,0.15625,0.0625,-39.75,-4.625,-107.0
1664371670610,-0.6279297,-0.41601562,0.6484375,-0.03125,-0.03125,0.25,0.0,0.0,0.0
1664371670668,-0.62890625,-0.4111328,0.6347656,-0.21875,-0.03125,0.0,0.0,0.0,0.0
1664371670701,-0.6269531,-0.4140625,0.6376953,-0.03125,-0.03125,0.1875,0.0,0.0,0.0
1664371670730,-0.625,-0.41308594,0.65234375,-0.09375,-0.09375,0.3125,0.0,0.0,0.0
1664371670791,-0.6269531,-0.41601562,0.6484375,0.03125,-0.03125,0.3125,0.0,0.0,0.0
1664371670851,-0.6386719,-0.4169922,0.6435547,-0.09375,-0.03125,0.125,0.0,0.0,0.0
1664371670855,-0.62890625,-0.4140625,0.6386719,-0.21875,-0.09375,0.375,0.0,0.0,0.0
1664371670911,-0.6347656,-0.41210938,0.6621094,-0.28125,-0.15625,0.125,0.0,0.0,0.0
1664371670940,-0.6347656,-0.41601562,0.6298828,-0.03125,0.09375,0.0,0.0,0.0,0.0
1664371670969,-0.625,-0.4169922,0.6533203,-0.03125,-0.15625,0.0625,0.0,0.0,0.0
1664371671029,-0.6347656,-0.41015625,0.6376953,0.15625,0.09375,0.4375,0.0,0.0,0.0
1664371671060,-0.62597656,-0.40820312,0.6376953,-0.03125,-0.21875,0.5,-40.8125,-5.9375,-104.875
1664371671092,-0.62597656,-0.4091797,0.6298828,-0.03125,-0.09375,0.25,0.0,0.0,0.0
1664371671148,-0.63378906,-0.3984375,0.6513672,-0.09375,-0.21875,-0.125,0.0,0.0,0.0
1664371671179,-0.63964844,-0.41015625,0.6435547,0.03125,-0.15625,0.5,0.0,0.0,0.0
1664371671211,-0.6308594,-0.4091797,0.6347656,-0.21875,-0.09375,0.0625,0.0,0.0,0.0
1664371671271,-0.62402344,-0.40527344,0.640625,0.03125,0.15625,-0.0625,0.0,0.0,0.0
1664371671300,-0.6347656,-0.40527344,0.63671875,0.03125,0.25,-0.1875,0.0,0.0,0.0
1664371671331,-0.6269531,-0.40625,0.6347656,0.03125,0.03125,-0.25,0.0,0.0,0.0
1664371671391,-0.63378906,-0.4140625,0.6484375,-0.03125,0.03125,-0.34375,0.0,0.0,0.0
1664371671422,-0.6201172,-0.41796875,0.6455078,0.21875,0.09375,-0.25,0.0,0.0,0.0
1664371671448,-0.6357422,-0.40820312,0.63964844,0.15625,0.15625,-0.40625,0.0,0.0,0.0
1664371671512,-0.6308594,-0.41015625,0.6376953,-0.03125,0.03125,-0.46875,0.0,0.0,0.0
1664371671540,-0.625,-0.4140625,0.6376953,0.15625,0.15625,-0.34375,0.0,0.0,0.0
1664371671569,-0.62402344,-0.41796875,0.64941406,-0.03125,-0.03125,-0.1875,-40.9375,-6.5625,-104.75
1664371671632,-0.6308594,-0.40429688,0.63671875,-0.09375,0.15625,-0.34375,0.0,0.0,0.0
1664371671659,-0.63183594,-0.4169922,0.6503906,-0.09375,-0.03125,-0.40625,0.0,0.0,0.0
1664371671688,-0.62597656,-0.4140625,0.63671875,0.03125,0.375,-0.53125,0.0,0.0,0.0
1664371671749,-0.6386719,-0.4169922,0.65722656,0.09375,-0.09375,-0.25,0.0,0.0,0.0
1664371671781,-0.625,-0.40625,0.6513672,0.03125,0.375,-0.90625,0.0,0.0,0.0
1664371671809,-0.62402344,-0.41210938,0.6357422,0.09375,0.09375,-0.71875,0.0,0.0,0.0
1664371671869,-0.63183594,-0.41601562,0.63964844,0.15625,0.1875,-0.40625,0.0,0.0,0.0
1664371671898,-0.6298828,-0.4140625,0.6464844,0.09375,0.1875,-0.3125,0.0,0.0,0.0
1664371671930,-0.6298828,-0.40625,0.65234375,0.03125,0.1875,-0.46875,0.0,0.0,0.0
1664371671988,-0.6328125,-0.4091797,0.6386719,0.28125,0.4375,-0.46875,0.0,0.0,0.0
1664371672019,-0.6298828,-0.4111328,0.66015625,0.03125,0.09375,-0.59375,0.0,0.0,0.0
1664371672049,-0.6279297,-0.4140625,0.6464844,0.03125,0.3125,-0.53125,-39.75,-6.6875,-106.6875
1664371672111,-0.62597656,-0.41308594,0.6435547,-0.03125,0.09375,-0.34375,0.0,0.0,0.0
1664371672139,-0.6230469,-0.41015625,0.64453125,-0.03125,0.5,-0.53125,0.0,0.0,0.0
1664371672170,-0.6357422,-0.4111328,0.640625,0.15625,0.03125,-0.1875,0.0,0.0,0.0
1664371672230,-0.61816406,-0.41015625,0.6386719,-0.21875,0.03125,-0.46875,0.0,0.0,0.0
1664371672260,-0.63183594,-0.42382812,0.6503906,0.03125,0.375,-0.46875,0.0,0.0,0.0
1664371672288,-0.6347656,-0.4111328,0.6435547,0.03125,0.3125,-0.34375,0.0,0.0,0.0
1664371672350,-0.625,-0.41015625,0.6386719,-0.09375,0.1875,-0.34375,0.0,0.0,0.0
1664371672381,-0.6347656,-0.41796875,0.63964844,-0.28125,-0.09375,-0.25,0.0,0.0,0.0
1664371672409,-0.62402344,-0.41992188,0.6425781,-0.09375,0.25,-0.3125,0.0,0.0,0.0
1664371672470,-0.6220703,-0.41308594,0.64941406,0.03125,0.09375,-0.0625,0.0,0.0,0.0
1664371672501,-0.62597656,-0.42382812,0.64160156,-0.03125,-0.03125,-0.3125,0.0,0.0,0.0
1664371672531,-0.6279297,-0.41308594,0.6503906,0.28125,0.15625,-0.3125,0.0,0.0,0.0
1664371672590,-0.6279297,-0.4091797,0.6425781,0.34375,0.625,-0.34375,-39.125,-5.5,-105.5
1664371672619,-0.6230469,-0.4189453,0.6484375,0.03125,0.25,-0.1875,0.0,0.0,0.0
1664371672650,-0.6269531,-0.40820312,0.6503906,-0.09375,-0.40625,-0.125,0.0,0.0,0.0
1664371672710,-0.6308594,-0.4189453,0.6425781,0.15625,0.09375,0.0625,0.0,0.0,0.0
1664371672741,-0.62402344,-0.421875,0.6298828,-0.09375,-0.21875,-0.0625,0.0,0.0,0.0
1664371672769,-0.62402344,-0.4091797,0.64453125,0.34375,0.15625,-0.125,0.0,0.0,0.0
1664371672830,-0.6201172,-0.4091797,0.6455078,0.09375,0.375,0.0625,0.0,0.0,0.0
1664371672859,-0.62890625,-0.40625,0.6484375,-0.15625,0.09375,0.25,0.0,0.0,0.0
1664371672890,-0.625,-0.40527344,0.64941406,-0.53125,0.09375,0.0625,0.0,0.0,0.0
1664371672951,-0.6298828,-0.41015625,0.65234375,-0.53125,0.03125,0.1875,0.0,0.0,0.0
1664371672980,-0.6279297,-0.41503906,0.64453125,-0.71875,-0.21875,-0.125,0.0,0.0,0.0
1664371673009,-0.6230469,-0.421875,0.63964844,-0.53125,0.375,-0.25,0.0,0.0,0.0
1664371673069,-0.6298828,-0.421875,0.6464844,-0.09375,0.375,-0.3125,-39.125,-5.0625,-106.875
1664371673130,-0.6269531,-0.421875,0.6386719,0.28125,-0.09375,-0.25,0.0,0.0,0.0
1664371673132,-0.62890625,-0.42871094,0.6455078,0.75,0.03125,0.3125,0.0,0.0,0.0
1664371673188,-0.6298828,-0.40234375,0.6503906,0.875,0.09375,0.4375,0.0,0.0,0.0
1664371673219,-0.6279297,-0.40234375,0.6386719,0.46875,0.25,-0.0625,0.0,0.0,0.0
1664371673251,-0.62402344,-0.40722656,0.6503906,-0.09375,-0.15625,-0.0625,0.0,0.0,0.0
1664371673340,-0.6279297,-0.41503906,0.640625,-0.34375,-0.28125,0.375,0.0,0.0,0.0
1664371673342,-0.6328125,-0.41503906,0.6484375,-0.40625,-0.03125,0.375,0.0,0.0,0.0
1664371673371,-0.6298828,-0.4140625,0.6425781,-0.59375,0.15625,-0.125,0.0,0.0,0.0
1664371673463,-0.6220703,-0.4169922,0.6464844,-0.21875,0.4375,0.0,0.0,0.0,0.0
1664371673465,-0.62597656,-0.4111328,0.6347656,0.03125,0.25,-0.0625,0.0,0.0,0.0
1664371673490,-0.6113281,-0.4111328,0.6308594,0.15625,0.25,0.0625,0.0,0.0,0.0
1664371673581,-0.6308594,-0.4140625,0.65234375,0.03125,-0.03125,0.125,-41.375,-5.5,-105.5
1664371673583,-0.6279297,-0.41210938,0.6464844,0.09375,0.09375,0.0,0.0,0.0,0.0
1664371673611,-0.6308594,-0.4111328,0.6542969,0.03125,0.15625,-0.125,0.0,0.0,0.0
1664371673668,-0.62597656,-0.4140625,0.63183594,-0.03125,0.15625,-0.1875,0.0,0.0,0.0
1664371673701,-0.6230469,-0.40527344,0.640625,-0.09375,-0.03125,-0.25,0.0,0.0,0.0
1664371673729,-0.6220703,-0.40625,0.64746094,-0.09375,0.09375,-0.3125,0.0,0.0,0.0
1664371673790,-0.6269531,-0.4169922,0.6513672,-0.09375,-0.15625,-0.25,0.0,0.0,0.0
1664371673820,-0.6220703,-0.41308594,0.6386719,0.03125,0.1875,-0.3125,0.0,0.0,0.0
1664371673850,-0.6308594,-0.4111328,0.65234375,0.15625,0.25,-0.125,0.0,0.0,0.0
1664371673939,-0.6230469,-0.40625,0.63964844,-0.03125,-0.09375,-0.65625,0.0,0.0,0.0
1664371673941,-0.62402344,-0.4189453,0.64160156,0.28125,0.03125,-0.46875,0.0,0.0,0.0
1664371673969,-0.63671875,-0.41601562,0.6386719,-0.09375,0.03125,-0.46875,0.0,0.0,0.0
1664371674028,-0.6328125,-0.4140625,0.64941406,0.09375,0.1875,-0.25,0.0,0.0,0.0
