# Sensor type: Respeck
# Activity type: Sitting
# Activity code: 0
# Subject id: s1800825
# Notes: 
timestamp,accel_x,accel_y,accel_z,gyro_x,gyro_y,gyro_z
1664377536432,0.033691406,-1.0015259,0.01751709,-0.9375,1.0,-0.25
1664377536477,0.034179688,-1.0117798,0.030944824,2.125,0.90625,0.328125
1664377536506,0.030029297,-0.9885864,0.02508545,-0.3125,0.96875,-0.109375
1664377536551,0.022460938,-1.0027466,0.012634277,0.140625,1.125,0.03125
1664377536599,0.03881836,-1.0020142,0.027770996,1.328125,0.390625,0.03125
1664377536626,0.020263672,-1.0120239,0.03363037,3.453125,1.65625,-0.015625
1664377536672,0.044433594,-0.99298096,0.010925293,1.6875,-0.40625,-0.171875
1664377536716,0.028808594,-0.9951782,0.030456543,0.234375,0.609375,-0.25
1664377536746,0.03491211,-1.0083618,0.016052246,0.28125,0.125,0.046875
1664377536791,0.04321289,-0.99005127,0.008483887,-0.59375,-0.890625,0.046875
1664377536836,0.032958984,-0.99591064,0.0211792,2.140625,0.640625,-0.375
1664377536866,0.024169922,-1.010315,0.015319824,0.46875,-0.328125,-0.015625
1664377536911,0.033203125,-0.9990845,0.0138549805,0.46875,0.15625,-0.140625
1664377536957,0.03100586,-0.99957275,0.015808105,0.609375,0.265625,-0.171875
1664377536986,0.03173828,-1.006897,0.011657715,0.515625,-0.203125,-0.125
1664377537032,0.040771484,-0.9898071,0.012878418,-0.734375,-0.3125,0.125
1664377537077,0.026123047,-1.0093384,0.014587402,0.484375,0.078125,0.046875
1664377537106,0.037841797,-1.010315,0.010681152,-1.90625,-0.953125,-0.5
1664377537136,0.040527344,-0.99957275,0.02557373,0.28125,-0.328125,-0.1875
1664377537196,0.033447266,-0.99664307,0.0119018555,-1.234375,0.078125,-0.0625
1664377537227,0.02734375,-1.0105591,0.018981934,0.1875,-0.15625,-0.375
1664377537257,0.03100586,-1.0012817,0.022644043,-1.046875,-0.59375,-0.109375
1664377537316,0.023925781,-1.0010376,0.0289917,1.09375,0.203125,-0.03125
1664377537347,0.038330078,-0.99713135,0.03289795,-0.125,-0.046875,-0.390625
1664377537375,0.024902344,-1.0081177,0.03314209,0.359375,0.03125,-0.5
1664377537436,0.037353516,-1.00177,0.027282715,-0.34375,-0.21875,-0.328125
1664377537467,0.029052734,-0.99224854,0.030212402,0.75,0.328125,-0.328125
1664377537496,0.024902344,-1.0071411,0.02508545,-0.09375,-0.1875,0.046875
1664377537556,0.024658203,-1.0044556,0.030456543,-0.015625,0.09375,0.015625
1664377537571,0.036376953,-1.0039673,0.022644043,-0.6875,-0.46875,0.015625
1664377537616,0.02319336,-0.9993286,0.034362793,-0.375,-0.140625,-0.078125
1664377537676,0.028564453,-1.0071411,0.03363037,-0.5625,0.671875,-0.03125
1664377537691,0.02734375,-1.000061,0.043151855,1.578125,0.96875,-0.234375
1664377537735,0.044677734,-0.99835205,0.032165527,-1.296875,0.03125,-0.078125
1664377537797,0.015136719,-1.0032349,0.043151855,0.4375,-0.125,-0.1875
1664377537811,0.044921875,-1.003479,0.039733887,2.265625,2.71875,0.25
1664377537857,0.019042969,-0.98272705,0.026794434,0.1875,1.6875,0.3125
1664377537887,0.033935547,-1.0095825,0.02947998,0.546875,0.8125,0.125
1664377537932,0.033691406,-1.0039673,0.028259277,-0.90625,0.359375,0.359375
1664377537976,0.037353516,-1.0005493,0.030212402,0.25,1.40625,0.28125
1664377538007,0.026123047,-1.0005493,0.032165527,-1.21875,-0.046875,-0.21875
1664377538051,0.03881836,-1.008606,0.043151855,0.1875,0.46875,-0.09375
1664377538096,0.041015625,-0.99786377,0.026062012,-1.09375,0.0,0.21875
1664377538127,0.032226562,-0.99298096,0.04046631,1.0625,0.9375,-0.078125
1664377538171,0.041259766,-1.0108032,0.032409668,0.453125,0.4375,0.515625
1664377538217,0.02368164,-0.9976196,0.035095215,-0.28125,0.234375,-0.21875
1664377538246,0.041259766,-1.013977,0.03314209,-0.25,0.5,0.125
1664377538292,0.021484375,-0.98687744,0.034851074,-0.640625,0.59375,-0.203125
1664377538338,0.032714844,-1.0012817,0.032409668,0.03125,0.53125,-0.234375
1664377538366,0.033203125,-0.99176025,0.05999756,1.078125,0.390625,-0.53125
1664377538411,0.037109375,-1.0020142,0.026062012,-1.59375,-1.234375,0.015625
1664377538456,0.039794922,-1.0071411,0.0446167,-0.625,-0.3125,-0.640625
1664377538489,0.040771484,-1.0037231,0.047546387,-0.546875,0.625,-0.171875
1664377538531,0.029052734,-0.9956665,0.046081543,-0.59375,1.09375,-0.46875
1664377538576,0.021728516,-1.0108032,0.04949951,-0.34375,-0.390625,-0.453125
1664377538607,0.037841797,-0.9956665,0.040222168,-1.140625,-0.1875,-0.4375
1664377538651,0.032470703,-1.003479,0.048034668,0.015625,0.921875,-0.1875
1664377538696,0.040039062,-0.98883057,0.04827881,-0.296875,-0.15625,-0.03125
1664377538726,0.020263672,-1.0054321,0.054138184,-0.25,0.125,-0.359375
1664377538758,0.02758789,-1.0010376,0.050476074,0.171875,0.125,0.078125
1664377538816,0.0390625,-0.99420166,0.046325684,0.46875,0.90625,-0.3125
1664377538846,0.022460938,-1.0032349,0.051940918,0.0,0.46875,-0.375
1664377538877,0.033203125,-1.0032349,0.04486084,-0.84375,-0.203125,0.125
1664377538937,0.036132812,-0.99176025,0.055847168,-0.4375,-0.265625,-0.4375
1664377538997,0.015380859,-1.0037231,0.054870605,-0.5625,0.09375,-0.140625
1664377539000,0.036132812,-1.0046997,0.04486084,-0.5,-0.484375,-0.21875
1664377539058,0.024658203,-1.0010376,0.05999756,-0.890625,-0.109375,-0.421875
1664377539072,0.024658203,-1.0142212,0.046325684,-0.703125,0.0625,-0.03125
1664377539116,0.023925781,-0.9956665,0.07733154,1.6875,0.90625,-0.390625
1664377539177,0.03540039,-1.005188,0.053894043,-1.921875,-0.453125,0.125
1664377539193,0.013427734,-1.0044556,0.06317139,-2.109375,-0.734375,-0.609375
1664377539238,0.037109375,-1.0049438,0.062927246,-0.890625,-0.34375,-0.046875
1664377539296,0.024658203,-0.9812622,0.06756592,-1.40625,0.09375,-0.421875
1664377539311,0.029296875,-1.0095825,0.06097412,-0.84375,-0.703125,-0.21875
1664377539358,0.0234375,-0.99591064,0.06707764,-0.796875,-0.84375,-0.171875
1664377539387,0.03491211,-0.99884033,0.061950684,0.109375,0.875,-0.015625
1664377539432,0.022949219,-1.0020142,0.07244873,-0.5625,-0.40625,-0.140625
1664377539477,0.018554688,-1.0046997,0.08270264,0.015625,0.3125,-0.1875
1664377539506,0.029785156,-1.0049438,0.07293701,0.171875,0.609375,0.203125
1664377539553,0.033935547,-0.9932251,0.07196045,-0.09375,1.15625,-0.078125
1664377539598,0.021484375,-1.0095825,0.07977295,1.046875,1.875,0.125
1664377539626,0.025634766,-1.0064087,0.07366943,-0.03125,1.75,0.6875
1664377539673,0.028320312,-0.99713135,0.077819824,-2.46875,1.296875,0.25
1664377539717,0.029296875,-1.0039673,0.089782715,-3.515625,-0.6875,0.140625
1664377539747,0.02758789,-1.0044556,0.08538818,-8.625,-3.6875,0.25
1664377539795,0.020751953,-0.9907837,0.097839355,-9.421875,-3.453125,-0.34375
1664377539837,0.036376953,-1.0056763,0.11834717,-6.265625,-1.890625,-0.0625
1664377539866,0.025146484,-0.99346924,0.12615967,-4.59375,-1.484375,-0.21875
1664377539913,0.020263672,-0.9920044,0.13470459,-2.6875,-0.359375,0.484375
1664377539958,0.033691406,-0.9793091,0.14447021,-3.65625,-1.34375,-0.046875
1664377539987,0.025634766,-0.9968872,0.116882324,-2.234375,-1.453125,0.65625
1664377540032,0.018310547,-1.0046997,0.1293335,-2.78125,-0.671875,-0.671875
1664377540080,0.034423828,-0.99957275,0.137146,1.46875,1.359375,0.578125
1664377540107,0.032958984,-0.97540283,0.13470459,-0.921875,0.515625,-0.234375
1664377540136,0.018310547,-1.0049438,0.1383667,-0.015625,0.453125,-0.140625
1664377540197,0.038085938,-0.99591064,0.14349365,-0.203125,0.40625,-0.015625
1664377540226,0.024658203,-1.0049438,0.15032959,1.328125,1.546875,0.328125
1664377540256,0.036865234,-0.9795532,0.14056396,-0.953125,-0.203125,0.484375
1664377540317,0.028076172,-0.9937134,0.14447021,-0.171875,0.671875,-0.28125
1664377540347,0.032714844,-1.0083618,0.14447021,1.640625,1.0,0.234375
1664377540376,0.030517578,-0.98101807,0.13616943,0.5625,0.3125,0.015625
1664377540436,0.02758789,-0.9927368,0.13543701,0.203125,0.78125,0.046875
1664377540497,0.03173828,-0.99102783,0.13446045,0.375,0.21875,0.125
1664377540500,0.02758789,-0.99468994,0.13641357,0.109375,0.640625,-0.234375
1664377540557,0.030273438,-0.9944458,0.14154053,0.765625,0.21875,0.03125
1664377540571,0.02709961,-0.987854,0.14886475,0.390625,0.03125,-0.015625
1664377540618,0.03100586,-0.9963989,0.13763428,0.40625,0.296875,0.109375
1664377540680,0.035888672,-0.9944458,0.13446045,0.015625,0.015625,-0.0625
1664377540691,0.030761719,-0.9932251,0.1461792,-0.0625,0.375,-0.0625
1664377540737,0.040527344,-0.9885864,0.13104248,-0.96875,0.484375,-0.09375
1664377540797,0.026123047,-0.9963989,0.15106201,2.515625,1.296875,-0.046875
1664377540811,0.03564453,-0.98760986,0.14178467,-1.71875,-0.203125,-0.265625
1664377540856,0.020751953,-1.0003052,0.15496826,1.734375,0.609375,0.078125
1664377540888,0.03930664,-0.98565674,0.14251709,-0.359375,0.0625,-0.203125
1664377540931,0.017333984,-0.99884033,0.1359253,0.171875,0.328125,-0.359375
1664377540977,0.033447266,-0.9963989,0.14471436,0.3125,0.171875,-0.125
1664377541006,0.018310547,-0.9834595,0.14593506,0.3125,0.484375,-0.234375
1664377541052,0.03540039,-0.9873657,0.14154053,0.15625,-0.109375,0.125
1664377541096,0.021240234,-0.9800415,0.14349365,-0.53125,0.3125,-0.125
1664377541126,0.025878906,-1.000061,0.14788818,0.40625,0.328125,0.125
1664377541172,0.033203125,-0.98760986,0.1449585,0.671875,0.25,-0.125
1664377541246,0.031982422,-0.9993286,0.13934326,-0.09375,0.40625,-0.03125
1664377541248,0.03149414,-0.98809814,0.14324951,0.109375,0.140625,-0.125
1664377541291,0.02368164,-0.9985962,0.1473999,0.046875,0.46875,0.09375
1664377541336,0.030273438,-0.9920044,0.14324951,0.125,0.265625,-0.09375
1664377541370,0.02758789,-0.98638916,0.1461792,0.609375,0.1875,-0.0625
1664377541412,0.024169922,-0.9976196,0.1449585,-0.0625,0.15625,-0.0625
1664377541457,0.037109375,-0.9927368,0.1395874,-0.265625,-0.015625,-0.15625
1664377541486,0.032226562,-0.9949341,0.14569092,0.046875,-0.03125,-0.078125
1664377541531,0.02734375,-0.9692993,0.1696167,0.890625,0.515625,-0.25
1664377541577,0.037353516,-1.0003052,0.12615967,-1.15625,-1.015625,0.078125
1664377541607,0.013916016,-0.99176025,0.15325928,-1.140625,-0.0625,-0.390625
1664377541637,0.036376953,-0.9915161,0.14471436,0.71875,-0.03125,-0.09375
1664377541697,0.034423828,-0.97979736,0.1449585,-0.515625,-0.046875,-0.4375
1664377541726,0.02368164,-1.0015259,0.14544678,0.078125,0.28125,-0.5625
1664377541757,0.026855469,-1.0056763,0.14959717,-0.125,0.359375,-0.234375
1664377541816,0.033203125,-0.99346924,0.15130615,1.6875,0.796875,-0.078125
1664377541847,0.02709961,-0.9885864,0.15179443,-0.078125,0.46875,-0.234375
1664377541877,0.01928711,-1.0010376,0.15570068,0.75,1.6875,-0.0625
1664377541937,0.025390625,-0.9976196,0.14520264,0.828125,0.609375,-0.1875
1664377541996,0.03125,-0.9873657,0.15911865,1.0625,1.03125,-0.03125
1664377541998,0.028564453,-0.9968872,0.14202881,0.390625,0.734375,-0.109375
1664377542056,0.028320312,-0.9849243,0.14935303,-0.046875,0.203125,0.03125
1664377542071,0.026855469,-0.9961548,0.15447998,0.234375,0.515625,-0.109375
1664377542119,0.025146484,-0.99542236,0.14886475,-0.109375,-0.265625,-0.078125
1664377542176,0.02319336,-0.98883057,0.15985107,0.640625,0.21875,-0.140625
1664377542192,0.025634766,-0.9915161,0.14422607,0.296875,0.1875,-0.078125
1664377542241,0.02734375,-0.99005127,0.15423584,0.375,0.234375,-0.28125
1664377542297,0.026123047,-1.0012817,0.14447021,0.8125,0.3125,0.0625
1664377542313,0.022949219,-0.9859009,0.1696167,2.046875,0.6875,-0.453125
1664377542358,0.030273438,-0.9956665,0.13421631,-1.984375,-0.703125,-0.03125
1664377542386,0.014160156,-0.99102783,0.1515503,-1.171875,-0.296875,-0.765625
1664377542432,0.028320312,-0.9968872,0.15203857,1.171875,0.125,-0.046875
1664377542478,0.022460938,-0.9837036,0.15106201,0.03125,0.125,-0.375
1664377542507,0.025146484,-1.0025024,0.15740967,0.078125,-0.015625,-0.359375
1664377542552,0.02758789,-0.9951782,0.14886475,-0.296875,-0.46875,-0.15625
1664377542598,0.025146484,-0.9915161,0.15057373,0.953125,0.578125,0.09375
1664377542626,0.026367188,-0.9846802,0.1539917,-0.421875,-0.046875,-0.109375
1664377542673,0.018310547,-0.9949341,0.15594482,-0.09375,0.546875,-0.09375
1664377542717,0.022705078,-0.989563,0.15838623,0.34375,0.234375,-0.03125
1664377542748,0.028564453,-0.9927368,0.15594482,0.265625,0.140625,-0.28125
1664377542792,0.022216797,-0.9927368,0.1564331,0.453125,0.296875,-0.046875
1664377542839,0.01928711,-0.99664307,0.1593628,0.453125,0.5625,-0.203125
1664377542867,0.022705078,-0.99176025,0.14886475,0.078125,0.015625,0.0625
1664377542912,0.021972656,-0.99005127,0.1564331,0.703125,0.3125,-0.171875
1664377542958,0.017578125,-0.99176025,0.15106201,0.59375,0.109375,0.109375
1664377542987,0.020507812,-0.989563,0.15838623,0.5625,0.46875,-0.109375
1664377543032,0.028076172,-0.9963989,0.15032959,0.546875,0.765625,-0.0625
1664377543080,0.020507812,-0.9890747,0.15228271,0.59375,0.234375,-0.140625
1664377543106,0.029785156,-0.99884033,0.14251709,-0.21875,0.265625,-0.03125
1664377543137,0.015380859,-0.98321533,0.17303467,2.640625,0.953125,0.03125
1664377543197,0.029785156,-0.986145,0.15032959,-1.703125,-0.296875,-0.3125
1664377543243,0.0107421875,-0.99298096,0.16131592,-0.65625,-0.875,-0.34375
1664377543257,0.028564453,-0.9890747,0.15618896,0.015625,-0.25,-0.09375
1664377543318,0.019042969,-0.97979736,0.15838623,-0.296875,0.328125,-0.40625
1664377543347,0.020996094,-1.0037231,0.15863037,0.0625,0.328125,-0.03125
1664377543377,0.022216797,-0.9829712,0.15740967,-0.0625,0.09375,-0.140625
1664377543438,0.019042969,-1.0005493,0.14715576,1.03125,0.5625,0.078125
1664377543466,0.024902344,-0.9841919,0.15692139,-0.171875,0.296875,-0.046875
1664377543498,0.026123047,-1.000061,0.1618042,0.703125,0.6875,0.015625
1664377543556,0.028564453,-0.9920044,0.15740967,0.8125,0.515625,0.109375
1664377543572,0.020996094,-0.9907837,0.16107178,0.171875,0.640625,0.046875
1664377543618,0.024658203,-0.99298096,0.16107178,0.703125,0.609375,0.109375
1664377543678,0.023925781,-0.986145,0.15960693,0.234375,1.25,0.21875
1664377543692,0.02758789,-0.9915161,0.15594482,0.34375,1.09375,0.296875
1664377543738,0.028076172,-0.9859009,0.16107178,0.25,0.78125,0.09375
1664377543796,0.021728516,-0.9932251,0.15765381,0.84375,1.46875,0.0625
1664377543812,0.026123047,-0.9939575,0.1564331,0.71875,1.390625,0.328125
1664377543860,0.020751953,-0.98516846,0.152771,0.171875,0.765625,0.03125
1664377543886,0.026611328,-0.9924927,0.14691162,0.453125,0.96875,0.234375
1664377543933,0.021484375,-0.973938,0.17523193,1.515625,1.484375,0.0625
1664377543977,0.030029297,-1.000061,0.14105225,-1.75,-0.03125,0.4375
1664377544006,0.018310547,-0.98809814,0.15960693,-0.375,0.453125,-0.46875
1664377544052,0.03857422,-1.000061,0.15374756,1.21875,0.875,0.203125
1664377544098,0.035888672,-0.9714966,0.15350342,-0.390625,0.46875,-0.046875
1664377544127,0.02758789,-0.9939575,0.15570068,0.390625,0.953125,0.015625
1664377544171,0.0390625,-1.0010376,0.15057373,0.125,-0.25,0.078125
1664377544220,0.022705078,-0.99591064,0.15594482,1.203125,0.671875,0.140625
1664377544246,0.032470703,-0.97784424,0.1552124,0.015625,0.125,-0.0625
1664377544294,0.03173828,-1.0012817,0.15911865,0.921875,0.703125,0.0625
1664377544338,0.029785156,-0.99420166,0.15447998,0.8125,0.6875,0.25
1664377544367,0.03149414,-0.9824829,0.15374756,0.765625,0.28125,0.078125
1664377544412,0.029052734,-0.99786377,0.15985107,0.375,0.375,0.078125
1664377544460,0.034179688,-0.9819946,0.15496826,-0.03125,0.015625,0.296875
1664377544486,0.029785156,-0.99176025,0.1552124,0.46875,0.21875,-0.0625
1664377544532,0.028564453,-0.99298096,0.15618896,0.625,0.390625,-0.0625
1664377544577,0.03125,-0.99005127,0.15570068,0.8125,0.34375,-0.078125
1664377544607,0.026367188,-0.9985962,0.15203857,0.1875,0.078125,-0.234375
1664377544637,0.03491211,-0.9841919,0.15228271,0.71875,0.921875,0.1875
1664377544697,0.038330078,-0.9998169,0.14593506,-0.375,0.421875,0.0
1664377544728,0.032714844,-0.9956665,0.15325928,2.046875,0.921875,0.15625
1664377544756,0.031982422,-0.9927368,0.15545654,-1.15625,0.15625,-0.4375
1664377544817,0.02734375,-0.9981079,0.16033936,1.96875,0.390625,0.375
1664377544847,0.0390625,-0.97784424,0.15228271,-0.578125,0.28125,-0.046875
1664377544876,0.025878906,-0.9927368,0.15618896,0.234375,0.546875,-0.484375
1664377544936,0.0234375,-0.99884033,0.14569092,-0.3125,-0.484375,0.078125
1664377544967,0.032714844,-0.98638916,0.16766357,1.796875,0.65625,0.28125
1664377544996,0.02368164,-0.98638916,0.16009521,0.265625,0.109375,-0.140625
1664377545056,0.033447266,-0.9824829,0.16619873,0.03125,0.359375,-0.015625
1664377545117,0.028564453,-0.99468994,0.15447998,0.4375,0.203125,-0.09375
1664377545120,0.037841797,-0.991272,0.1552124,0.359375,0.015625,-0.15625
1664377545179,0.027832031,-0.9920044,0.15447998,0.046875,0.28125,-0.109375
1664377545191,0.03955078,-0.98516846,0.15106201,0.09375,0.046875,0.078125
1664377545237,0.026611328,-0.99005127,0.16253662,0.703125,0.40625,0.015625
1664377545298,0.038330078,-0.9898071,0.14935303,-0.3125,0.09375,0.015625
1664377545312,0.023925781,-1.0007935,0.16082764,0.3125,0.40625,-0.34375
1664377545358,0.03173828,-0.9920044,0.15252686,0.046875,0.015625,0.0
1664377545387,0.034179688,-0.96466064,0.1671753,0.390625,0.15625,-0.375
1664377545432,0.032958984,-1.0098267,0.13690186,-1.265625,-0.296875,-0.09375
1664377545478,0.029296875,-0.991272,0.16400146,-0.640625,0.5625,-0.75
1664377545506,0.037597656,-0.99786377,0.16033936,1.09375,0.28125,0.09375
1664377545552,0.03125,-0.96832275,0.1593628,-0.90625,0.125,-0.34375
1664377545597,0.030273438,-0.99420166,0.16375732,-0.125,0.15625,-0.265625
1664377545626,0.03564453,-0.9927368,0.15814209,-0.390625,-0.359375,-0.46875
1664377545672,0.022216797,-0.9963989,0.15838623,0.359375,-0.5625,0.234375
1664377545717,0.030273438,-0.986145,0.16986084,-0.015625,-0.234375,-0.390625
1664377545747,0.020751953,-1.0010376,0.16107178,0.03125,0.125,0.0
1664377545792,0.029785156,-0.989563,0.15960693,0.46875,0.15625,0.125
1664377545836,0.029296875,-0.9841919,0.1630249,0.984375,0.9375,-0.15625
1664377545882,0.028564453,-0.9981079,0.16156006,0.9375,0.515625,0.046875
1664377545912,0.02709961,-0.99053955,0.15863037,0.140625,0.015625,-0.015625
1664377545957,0.029296875,-0.99005127,0.16790771,0.28125,0.546875,-0.09375
1664377545986,0.03149414,-0.99005127,0.15692139,-0.25,-0.03125,-0.109375
1664377546032,0.024169922,-0.99957275,0.16522217,0.125,0.09375,-0.046875
1664377546077,0.03149414,-0.99420166,0.15374756,-1.3125,0.125,-0.09375
1664377546109,0.016113281,-0.98687744,0.18255615,2.96875,1.421875,0.25
1664377546137,0.043701172,-0.9939575,0.16156006,-2.1875,-0.984375,-0.625
1664377546196,0.016601562,-0.99176025,0.17767334,0.65625,0.375,-0.140625
1664377546227,0.039794922,-0.98272705,0.16619873,0.0,0.328125,-0.109375
1664377546257,0.0234375,-0.98565674,0.16693115,-0.125,0.1875,-0.53125
1664377546317,0.024658203,-0.99176025,0.16888428,-0.28125,-0.21875,-0.125
1664377546348,0.024902344,-0.986145,0.18011475,0.90625,0.359375,-0.40625
1664377546377,0.022460938,-0.9956665,0.16619873,0.53125,0.328125,0.15625
1664377546437,0.022460938,-0.9817505,0.17010498,-0.5,0.25,-0.234375
1664377546452,0.030517578,-0.9990845,0.16888428,0.75,-0.015625,-0.171875
1664377546498,0.029052734,-0.9846802,0.16912842,1.15625,0.734375,0.0625
1664377546556,0.024658203,-0.9927368,0.16522217,1.203125,0.4375,-0.28125
1664377546571,0.022460938,-0.98931885,0.16912842,0.796875,0.5625,-0.046875
1664377546618,0.030517578,-0.98883057,0.16986084,0.59375,0.5625,-0.15625
1664377546677,0.02368164,-0.991272,0.15423584,0.671875,0.265625,-0.34375
1664377546692,0.02368164,-0.9817505,0.17034912,0.421875,0.21875,-0.25
1664377546738,0.026123047,-1.0039673,0.16497803,1.03125,0.359375,-0.140625
1664377546797,0.032958984,-0.97979736,0.17010498,-0.90625,-0.015625,-0.296875
1664377546811,0.016357422,-0.9961548,0.15325928,0.71875,0.078125,0.328125
1664377546858,0.037841797,-0.9885864,0.15667725,-1.3125,-0.109375,-0.859375
1664377546887,0.029296875,-0.99835205,0.17425537,3.15625,1.484375,0.265625
1664377546931,0.03466797,-0.9824829,0.16204834,-0.25,0.078125,-0.28125
1664377546978,0.017822266,-0.9939575,0.16937256,0.578125,0.796875,-0.28125
1664377547007,0.025634766,-0.9944458,0.15570068,-0.0625,0.0625,0.015625
1664377547052,0.01977539,-0.9973755,0.16790771,1.296875,1.03125,-0.046875
1664377547100,0.033691406,-0.9807739,0.17279053,-0.453125,0.65625,0.0625
1664377547126,0.024414062,-0.9976196,0.16351318,0.28125,1.09375,-0.0625
1664377547172,0.024902344,-0.99053955,0.16668701,0.65625,0.515625,0.265625
1664377547217,0.03173828,-0.9854126,0.15960693,0.6875,0.46875,-0.125
1664377547247,0.022216797,-0.9963989,0.1720581,0.140625,0.359375,-0.0625
1664377547292,0.025634766,-0.98809814,0.1642456,-0.125,0.28125,-0.015625
1664377547339,0.028320312,-0.9829712,0.16375732,0.09375,0.234375,0.0
1664377547367,0.021728516,-0.9963989,0.16497803,0.53125,0.703125,0.0625
1664377547415,0.024658203,-0.9956665,0.16448975,-0.1875,0.78125,-0.015625
1664377547457,0.025146484,-0.99713135,0.16888428,0.5625,0.6875,0.03125
1664377547486,0.018554688,-0.98638916,0.19012451,0.109375,1.203125,-0.015625
1664377547532,0.033447266,-1.0015259,0.14935303,-2.171875,0.09375,0.609375
1664377547578,0.029296875,-0.9907837,0.16400146,-2.390625,-0.625,-0.578125
1664377547609,0.02734375,-0.9956665,0.17572021,1.53125,0.734375,0.453125
1664377547637,0.028564453,-0.9768677,0.17059326,-0.859375,0.078125,0.09375
1664377547696,0.020263672,-0.9915161,0.16448975,-0.609375,0.71875,-0.03125
1664377547727,0.030761719,-0.991272,0.17254639,-0.328125,0.15625,0.15625
1664377547758,0.032958984,-0.99176025,0.15960693,0.265625,-0.484375,0.375
1664377547817,0.037841797,-0.98272705,0.17572021,-0.265625,-0.40625,0.0
1664377547848,0.02758789,-0.99664307,0.17401123,0.484375,0.328125,0.078125
1664377547876,0.035888672,-0.98760986,0.17449951,1.265625,0.328125,0.265625
1664377547940,0.038330078,-0.98101807,0.17376709,0.921875,0.625,-0.03125
1664377547951,0.029296875,-0.9883423,0.1774292,0.859375,1.21875,0.140625
1664377547997,0.03466797,-0.9924927,0.17034912,0.859375,1.671875,0.3125
1664377548057,0.038085938,-0.9817505,0.17034912,1.15625,1.546875,0.546875
1664377548072,0.03466797,-0.99102783,0.16693115,1.40625,1.1875,0.28125
1664377548117,0.025878906,-0.9937134,0.16766357,0.828125,1.0625,0.21875
1664377548176,0.03149414,-0.9841919,0.17230225,1.8125,1.390625,0.140625
1664377548191,0.0390625,-0.9763794,0.16082764,-0.296875,0.546875,0.03125
1664377548237,0.033447266,-0.9973755,0.152771,1.90625,1.09375,0.578125
1664377548297,0.0390625,-0.9898071,0.16131592,-0.609375,0.6875,-0.625
1664377548311,0.0390625,-0.99224854,0.16693115,2.296875,1.0625,0.390625
1664377548357,0.041992188,-0.9834595,0.16156006,-0.4375,0.484375,-0.0625
1664377548386,0.032470703,-0.99468994,0.16351318,0.328125,0.640625,0.015625
1664377548432,0.040771484,-0.9920044,0.16571045,0.09375,-0.046875,-0.140625
1664377548477,0.030761719,-0.9907837,0.168396,1.90625,0.796875,0.4375
1664377548506,0.03466797,-0.98760986,0.16131592,0.703125,0.390625,-0.328125
1664377548552,0.03540039,-0.98443604,0.17010498,0.890625,0.96875,-0.078125
1664377548596,0.045166016,-0.9924927,0.16766357,1.125,0.828125,-0.078125
1664377548627,0.038085938,-0.98272705,0.15814209,0.703125,0.390625,0.109375
1664377548672,0.03881836,-0.9944458,0.16766357,0.5625,0.671875,0.0625
1664377548717,0.037109375,-0.9915161,0.16522217,0.6875,0.453125,-0.078125
1664377548746,0.033935547,-0.9883423,0.15594482,0.4375,0.15625,0.03125
1664377548792,0.041503906,-0.99005127,0.1605835,0.484375,0.203125,0.078125
1664377548837,0.032470703,-0.9849243,0.15667725,0.484375,0.15625,-0.09375
1664377548866,0.039794922,-0.9963989,0.16156006,0.015625,0.140625,-0.078125
1664377548911,0.043945312,-0.98101807,0.16864014,-0.625,0.078125,-0.078125
1664377548958,0.036376953,-1.0032349,0.15179443,0.1875,0.15625,0.234375
1664377548986,0.031982422,-0.9819946,0.16351318,-1.125,-0.109375,-0.390625
1664377549077,0.03515625,-0.9968872,0.15863037,1.3125,0.15625,0.0
1664377549078,0.036865234,-0.98150635,0.1630249,-1.078125,-0.125,-0.109375
1664377549107,0.030029297,-0.99224854,0.16571045,0.328125,0.03125,-0.3125
1664377549138,0.041015625,-0.98931885,0.16375732,-0.21875,0.0,-0.1875
1664377549197,0.039794922,-0.9944458,0.17425537,1.140625,0.515625,0.140625
1664377549227,0.034423828,-0.9873657,0.17669678,0.359375,0.375,-0.328125
1664377549257,0.031982422,-0.9949341,0.17303467,0.625,0.40625,-0.078125
1664377549316,0.04321289,-0.98394775,0.16253662,0.5625,-0.203125,0.109375
1664377549347,0.030517578,-0.9841919,0.16473389,0.265625,0.28125,-0.390625
1664377549377,0.041503906,-0.989563,0.1618042,-0.375,-0.625,-0.296875
1664377549436,0.03491211,-0.987854,0.16790771,-0.0625,0.09375,-0.28125
1664377549451,0.02319336,-0.99224854,0.16619873,0.078125,0.21875,-0.21875
1664377549498,0.03466797,-0.99298096,0.16766357,0.21875,-0.28125,-0.15625
1664377549557,0.03149414,-0.986145,0.17547607,-0.109375,0.140625,-0.390625
1664377549572,0.026855469,-0.98565674,0.17596436,0.40625,0.5,-0.203125
1664377549618,0.040527344,-0.986145,0.16766357,-1.4375,-0.484375,-0.21875
1664377549676,0.03466797,-0.9949341,0.16522217,0.28125,0.015625,-0.0625
1664377549692,0.03930664,-0.99053955,0.17108154,-2.140625,-0.28125,-0.984375
1664377549737,0.03540039,-0.9990845,0.18353271,1.71875,0.328125,0.09375
1664377549798,0.032226562,-0.98223877,0.17718506,-1.03125,-0.265625,-0.34375
1664377549811,0.028808594,-0.9902954,0.17327881,-0.609375,0.515625,-0.296875
1664377549861,0.031982422,-0.99224854,0.17913818,-0.234375,-0.53125,-0.0625
1664377549887,0.033203125,-0.9805298,0.1876831,1.421875,0.53125,-0.171875
1664377549935,0.032958984,-0.9873657,0.18133545,-0.421875,0.171875,-0.015625
1664377549977,0.022705078,-0.9807739,0.18572998,-0.765625,-0.03125,-0.46875
1664377550009,0.034423828,-1.0049438,0.18426514,-0.09375,0.109375,-0.1875
1664377550052,0.032714844,-0.9795532,0.17694092,0.453125,0.078125,-0.09375
1664377550098,0.027832031,-0.9920044,0.18157959,-0.171875,-0.171875,-0.203125
1664377550127,0.02758789,-0.9837036,0.18597412,1.078125,0.09375,-0.09375
1664377550172,0.03100586,-0.9883423,0.17889404,0.46875,0.15625,-0.125
1664377550217,0.033935547,-0.9829712,0.18060303,0.3125,0.21875,-0.234375
1664377550246,0.026855469,-0.9849243,0.18450928,-0.0625,-0.125,-0.0625
1664377550292,0.036865234,-0.9915161,0.18231201,0.265625,-0.09375,-0.140625
1664377550338,0.03100586,-0.9932251,0.18060303,0.125,0.171875,-0.328125
1664377550366,0.026123047,-0.9981079,0.18304443,0.234375,-0.1875,0.015625
1664377550412,0.032714844,-0.97247314,0.20037842,0.15625,-0.296875,-0.484375
1664377550456,0.033203125,-0.99176025,0.17230225,-1.53125,-1.140625,0.03125
1664377550487,0.01928711,-0.99224854,0.18084717,-1.8125,-0.96875,-0.71875
1664377550578,0.037841797,-0.9949341,0.17913818,1.171875,0.0625,0.03125
1664377550585,0.029541016,-0.9697876,0.19622803,-0.734375,-0.328125,-0.640625
1664377550607,0.01953125,-0.9939575,0.17718506,0.453125,-0.40625,-0.15625
1664377550636,0.030273438,-0.9841919,0.19281006,-0.375,-0.703125,-0.234375
1664377550697,0.027832031,-0.98687744,0.20233154,1.921875,0.328125,-0.015625
1664377550727,0.036621094,-0.9771118,0.1876831,-0.15625,-0.5,-0.109375
1664377550757,0.02758789,-0.98223877,0.19378662,-0.21875,0.046875,-0.1875
1664377550817,0.022949219,-0.9883423,0.19500732,0.625,0.390625,0.015625
1664377550847,0.036132812,-0.98101807,0.18914795,0.5625,0.078125,-0.078125
1664377550879,0.02734375,-0.9927368,0.18426514,0.390625,-0.28125,-0.125
1664377550937,0.020507812,-0.9841919,0.1942749,-0.171875,0.203125,-0.015625
1664377550952,0.02734375,-0.98321533,0.19403076,0.078125,0.359375,-0.140625
1664377550997,0.024658203,-0.9837036,0.18475342,-0.171875,-0.015625,-0.046875
1664377551057,0.026367188,-0.99176025,0.19378662,0.109375,0.1875,-0.09375
1664377551071,0.029785156,-0.9937134,0.1954956,0.21875,0.671875,-0.1875
1664377551117,0.020263672,-0.9805298,0.20062256,-0.171875,0.046875,-0.234375
1664377551177,0.025390625,-0.9883423,0.1954956,0.109375,0.359375,-0.03125
1664377551192,0.028320312,-0.9741821,0.19793701,-0.640625,0.171875,-0.078125
1664377551237,0.024169922,-0.99176025,0.1798706,0.03125,0.15625,0.375
1664377551298,0.026367188,-0.9924927,0.18841553,-1.65625,-0.390625,-0.59375
1664377551311,0.021240234,-0.9907837,0.19891357,1.859375,0.75,0.140625
1664377551357,0.030761719,-0.9834595,0.18182373,-0.703125,0.5625,-0.25
1664377551389,0.020996094,-0.98565674,0.19671631,1.109375,1.3125,0.0625
1664377551432,0.023925781,-0.98931885,0.19378662,0.15625,0.5625,0.203125
1664377551476,0.028320312,-0.97979736,0.20452881,1.71875,1.453125,0.171875
1664377551507,0.028320312,-0.9829712,0.20501709,-0.40625,0.65625,0.484375
1664377551552,0.028320312,-0.9805298,0.19451904,-0.203125,1.28125,0.046875
1664377551596,0.021240234,-0.9866333,0.199646,1.296875,1.0625,0.484375
1664377551627,0.037841797,-0.9805298,0.19354248,1.171875,0.90625,0.328125
1664377551671,0.021972656,-0.9873657,0.18939209,0.15625,0.71875,-0.03125
1664377551717,0.0234375,-0.9871216,0.18597412,1.125,1.03125,0.0
1664377551748,0.032714844,-0.98809814,0.17889404,0.71875,0.59375,0.046875
1664377551792,0.03491211,-0.9849243,0.19525146,1.296875,1.453125,-0.078125
1664377551837,0.031982422,-0.99542236,0.18109131,1.71875,1.546875,0.09375
1664377551867,0.037353516,-0.9780884,0.18377686,1.53125,1.09375,0.3125
1664377551912,0.030029297,-0.98443604,0.18450928,1.140625,1.3125,-0.125
1664377551957,0.033203125,-0.98687744,0.18109131,0.640625,0.78125,0.21875
1664377551987,0.032226562,-0.9963989,0.17547607,0.625,1.140625,-0.15625
1664377552077,0.029052734,-0.98101807,0.20184326,3.375,2.4375,0.03125
1664377552079,0.03564453,-0.98101807,0.17327881,-1.140625,0.078125,-0.234375
1664377552106,0.025634766,-0.9961548,0.19500732,1.828125,1.3125,0.0
1664377552137,0.040527344,-0.9817505,0.1708374,1.015625,1.078125,0.0
1664377552196,0.03125,-0.9807739,0.17279053,0.640625,1.34375,-0.265625
1664377552226,0.025878906,-0.9973755,0.16986084,1.015625,0.53125,0.125
1664377552260,0.034423828,-0.98516846,0.17962646,0.671875,0.6875,0.015625
1664377552317,0.031982422,-0.98760986,0.17352295,1.03125,0.5625,0.296875
1664377552348,0.029541016,-0.9898071,0.17108154,0.328125,0.546875,-0.234375
1664377552377,0.030517578,-0.9871216,0.17523193,0.875,1.3125,0.203125
1664377552437,0.04248047,-0.9849243,0.16766357,1.40625,0.78125,0.09375
1664377552452,0.035888672,-0.98321533,0.16986084,1.078125,1.125,-0.046875
1664377552498,0.036132812,-0.9902954,0.16986084,0.625,0.671875,-0.078125
1664377552557,0.03125,-0.9849243,0.16766357,0.734375,0.875,0.109375
1664377552571,0.03466797,-0.9873657,0.1708374,1.109375,0.890625,0.078125
1664377552617,0.041015625,-0.99102783,0.16790771,0.5,0.375,-0.03125
1664377552677,0.027832031,-0.9920044,0.16668701,0.609375,0.453125,-0.015625
1664377552692,0.036376953,-0.987854,0.16766357,1.015625,0.296875,0.046875
1664377552738,0.037597656,-0.97491455,0.1708374,-0.375,-0.125,-0.0625
1664377552797,0.041015625,-0.99176025,0.152771,0.078125,0.0,-0.078125
1664377552811,0.033447266,-1.0039673,0.17254639,-0.859375,-0.125,-0.515625
1664377552858,0.040527344,-0.99005127,0.17645264,1.484375,0.03125,0.40625
1664377552887,0.030029297,-0.98223877,0.16131592,-0.796875,0.09375,-0.171875
1664377552933,0.033203125,-0.98516846,0.16571045,0.21875,-0.171875,-0.09375
1664377552977,0.041259766,-0.9834595,0.16644287,-0.109375,-0.34375,-0.15625
1664377553007,0.034179688,-0.9956665,0.168396,1.5625,0.65625,0.21875
1664377553053,0.036376953,-0.9898071,0.17010498,0.53125,0.1875,-0.234375
1664377553097,0.038085938,-0.99005127,0.17132568,0.390625,0.59375,0.015625
1664377553127,0.035888672,-0.99468994,0.17303467,0.515625,0.21875,-0.109375
1664377553173,0.030761719,-0.9885864,0.16571045,0.53125,0.15625,-0.140625
1664377553218,0.037597656,-0.9932251,0.17474365,0.140625,0.234375,-0.296875
1664377553247,0.03930664,-0.98272705,0.17010498,0.015625,0.21875,-0.375
1664377553293,0.040527344,-0.99176025,0.17034912,0.265625,0.109375,-0.125
1664377553338,0.037841797,-0.9885864,0.17156982,-0.390625,0.046875,-0.1875
1664377553367,0.028564453,-0.99102783,0.17596436,-0.40625,-0.15625,-0.15625
1664377553412,0.045654297,-0.9924927,0.1720581,-1.40625,-0.28125,-0.40625
1664377553458,0.021484375,-0.9924927,0.17254639,1.4375,0.65625,-0.078125
1664377553486,0.047607422,-0.9854126,0.17034912,-1.796875,-0.734375,-0.59375
1664377553532,0.020263672,-0.99420166,0.19134521,0.765625,-0.390625,0.046875
1664377553578,0.0390625,-0.9824829,0.17010498,-0.859375,-0.40625,-0.21875
1664377553608,0.033447266,-0.9829712,0.18206787,-0.859375,-0.515625,-0.328125
1664377553638,0.033691406,-0.9849243,0.17767334,-0.703125,-0.734375,-0.203125
1664377553697,0.027832031,-0.98272705,0.19329834,-0.03125,0.234375,-0.140625
1664377553727,0.03564453,-0.9807739,0.1864624,-0.78125,-0.484375,0.21875
1664377553756,0.02368164,-0.98272705,0.18695068,-0.984375,-0.03125,-0.203125
1664377553819,0.033691406,-0.98321533,0.1942749,0.1875,0.421875,0.046875
1664377553847,0.036621094,-0.9817505,0.1828003,0.171875,-0.21875,-0.125
1664377553877,0.037841797,-0.9883423,0.18670654,-0.34375,0.0625,-0.234375
1664377553937,0.036376953,-0.98809814,0.18475342,0.03125,-0.109375,-0.078125
1664377553952,0.030517578,-0.9834595,0.18963623,0.015625,-0.078125,-0.046875
1664377553997,0.031982422,-0.9866333,0.18695068,-0.53125,0.140625,-0.09375
1664377554057,0.029541016,-0.989563,0.19134521,-0.09375,-0.046875,-0.265625
1664377554071,0.03857422,-0.99005127,0.18035889,-0.78125,-0.15625,-0.484375
1664377554117,0.020019531,-0.9885864,0.20574951,2.890625,1.34375,-0.09375
1664377554178,0.042236328,-0.9834595,0.18597412,-2.140625,-0.65625,-0.34375
1664377554191,0.020507812,-0.98516846,0.20062256,0.3125,0.03125,-0.21875
1664377554237,0.036132812,-0.9873657,0.19989014,0.0,-0.25,-0.234375
1664377554297,0.026367188,-0.9837036,0.19158936,-0.5,0.15625,-0.421875
1664377554312,0.025146484,-0.9915161,0.19036865,-0.796875,-0.40625,-0.21875
1664377554356,0.0234375,-0.9800415,0.19354248,0.140625,0.046875,-0.375
1664377554387,0.026855469,-0.99176025,0.18914795,0.4375,0.53125,0.15625
1664377554431,0.022949219,-0.9829712,0.1930542,-0.625,-0.078125,-0.484375
1664377554477,0.023925781,-0.99102783,0.2008667,0.359375,0.421875,-0.203125
1664377554507,0.030273438,-0.9829712,0.19036865,0.578125,0.125,0.03125
1664377554552,0.027832031,-0.98028564,0.19744873,0.78125,0.578125,-0.34375
1664377554597,0.024169922,-0.98516846,0.20233154,0.625,0.46875,-0.140625
1664377554626,0.028320312,-0.98883057,0.19403076,0.265625,0.28125,0.09375
1664377554672,0.029296875,-0.98272705,0.19378662,0.90625,0.515625,-0.109375
1664377554717,0.020507812,-0.9883423,0.19403076,1.09375,0.375,-0.1875
1664377554747,0.026123047,-0.989563,0.19085693,0.78125,0.078125,0.0625
1664377554791,0.033203125,-0.9692993,0.20941162,0.609375,0.46875,-0.265625
1664377554838,0.020019531,-0.98883057,0.18109131,-0.828125,-0.453125,0.171875
1664377554866,0.028076172,-0.9924927,0.19232178,-1.8125,-0.890625,-0.375
1664377554912,0.032958984,-0.9866333,0.20306396,1.609375,0.765625,-0.0625
1664377554957,0.022705078,-0.9805298,0.19598389,-0.53125,0.140625,-0.546875
1664377554987,0.028320312,-0.9859009,0.19500732,-0.34375,0.0,-0.046875
1664377555032,0.022460938,-0.98443604,0.19793701,0.484375,0.0,-0.234375
1664377555077,0.027832031,-0.98931885,0.199646,1.875,0.90625,0.0625
1664377555107,0.026855469,-0.9678345,0.19769287,0.015625,0.03125,-0.09375
1664377555198,0.02319336,-0.99176025,0.199646,0.046875,0.03125,-0.171875
1664377555200,0.028564453,-0.98516846,0.20257568,0.828125,0.40625,0.109375
1664377555226,0.022949219,-0.98101807,0.19647217,0.015625,0.3125,-0.125
1664377555258,0.028564453,-0.986145,0.19378662,0.21875,0.046875,-0.21875
1664377555317,0.026611328,-0.9924927,0.19769287,0.515625,0.390625,-0.03125
1664377555347,0.02734375,-0.9807739,0.19915771,1.03125,0.53125,0.046875
1664377555377,0.03125,-0.9885864,0.1864624,0.296875,0.3125,0.109375
1664377555437,0.020507812,-0.9824829,0.20111084,0.21875,0.640625,-0.109375
1664377555453,0.03100586,-0.98883057,0.18328857,-0.21875,0.515625,-0.015625
1664377555498,0.0146484375,-0.9883423,0.21990967,3.453125,1.515625,0.234375
1664377555558,0.038085938,-0.9885864,0.1954956,-1.75,0.234375,-0.328125
1664377555571,0.018066406,-0.9883423,0.21014404,0.609375,0.515625,-0.078125
1664377555618,0.033447266,-0.9859009,0.18988037,0.359375,-0.09375,0.0
1664377555677,0.029052734,-0.97247314,0.20452881,0.1875,0.828125,0.09375
1664377555692,0.021728516,-0.9902954,0.19378662,-0.03125,0.578125,0.03125
1664377555740,0.029785156,-0.98223877,0.20281982,0.515625,0.515625,0.15625
1664377555797,0.028808594,-0.9915161,0.18670654,0.71875,0.578125,0.375
1664377555814,0.02319336,-0.98516846,0.19818115,0.203125,0.59375,-0.21875
1664377555858,0.030761719,-0.99102783,0.19354248,0.875,0.625,0.359375
1664377555887,0.04296875,-0.9841919,0.19598389,1.234375,0.703125,0.4375
1664377555932,0.030029297,-0.9824829,0.19085693,0.734375,1.078125,0.0625
1664377555978,0.02319336,-0.9805298,0.19647217,0.875,1.03125,0.203125
1664377556007,0.03515625,-0.9854126,0.19598389,1.578125,1.0,0.0625
1664377556052,0.032226562,-0.9805298,0.19500732,1.3125,1.484375,0.3125
1664377556097,0.032958984,-0.9898071,0.19036865,0.90625,1.0,0.03125
1664377556126,0.030273438,-0.98809814,0.19647217,1.734375,1.296875,0.15625
1664377556173,0.034179688,-0.96710205,0.19232178,0.5625,0.578125,0.078125
1664377556217,0.034423828,-0.9939575,0.16912842,0.484375,0.375,0.0
1664377556249,0.026367188,-0.9776001,0.1918335,-0.1875,0.5625,-0.640625
1664377556292,0.040527344,-0.99224854,0.18670654,2.375,1.046875,0.25
1664377556338,0.037597656,-0.9788208,0.18377686,-0.375,0.53125,-0.21875
1664377556367,0.0234375,-0.9915161,0.18426514,0.515625,0.828125,-0.125
1664377556413,0.041015625,-0.9885864,0.17645264,0.46875,0.140625,-0.15625
1664377556472,0.032470703,-0.9949341,0.1762085,1.796875,0.71875,0.46875
1664377556487,0.030273438,-0.9812622,0.1786499,0.25,0.40625,-0.1875
1664377556533,0.037109375,-0.98931885,0.17840576,0.640625,0.359375,0.25
1664377556578,0.03955078,-0.98394775,0.17938232,1.203125,0.234375,0.0625
1664377556607,0.03564453,-0.9837036,0.17645264,0.8125,0.765625,-0.078125
1664377556637,0.033691406,-0.9902954,0.18695068,0.484375,0.046875,0.046875
1664377556698,0.032714844,-0.98687744,0.17596436,0.84375,0.3125,0.125
1664377556727,0.036132812,-0.98809814,0.17840576,0.34375,0.609375,-0.015625
1664377556757,0.036132812,-0.9949341,0.17889404,1.015625,0.328125,-0.234375
1664377556818,0.040283203,-0.9885864,0.17181396,0.609375,0.140625,0.15625
1664377556847,0.033447266,-0.9685669,0.1918335,0.859375,0.5,-0.125
1664377556877,0.04345703,-0.99664307,0.15838623,-0.46875,0.109375,0.125
1664377556940,0.022216797,-0.989563,0.18450928,-0.21875,-0.265625,-0.3125
1664377556952,0.042236328,-0.98931885,0.1828003,1.140625,0.40625,0.015625
1664377556997,0.03125,-0.97613525,0.17449951,-0.59375,-0.0625,-0.140625
1664377557057,0.037597656,-0.9927368,0.17938232,0.4375,0.125,-0.078125
1664377557072,0.035888672,-0.98931885,0.1798706,0.078125,0.671875,-0.359375
1664377557117,0.028320312,-0.99224854,0.16937256,0.375,-0.078125,0.453125
1664377557179,0.035888672,-0.9927368,0.17694092,-0.203125,-0.078125,-0.4375
1664377557192,0.033935547,-0.99420166,0.17596436,0.546875,0.328125,-0.015625
1664377557237,0.038330078,-0.9871216,0.18157959,0.546875,-0.0625,0.109375
1664377557266,0.03564453,-0.987854,0.17791748,0.3125,0.328125,-0.140625
1664377557312,0.029785156,-0.98883057,0.17376709,-0.109375,0.171875,-0.078125
1664377557357,0.034179688,-0.98931885,0.18353271,0.578125,0.21875,0.03125
1664377557387,0.032714844,-0.9890747,0.17767334,-0.109375,0.046875,0.0
1664377557432,0.026855469,-0.986145,0.18353271,0.140625,0.046875,0.03125
1664377557477,0.033203125,-0.99053955,0.17230225,0.265625,-0.109375,0.109375
1664377557507,0.034423828,-0.9619751,0.20428467,0.609375,0.375,-0.15625
1664377557552,0.04272461,-0.9927368,0.15887451,-1.3125,-0.09375,-0.21875
1664377557597,0.02734375,-0.99005127,0.18597412,-0.65625,-0.140625,-0.5
1664377557629,0.045898438,-0.9780884,0.18988037,0.59375,0.015625,0.0
1664377557672,0.03149414,-0.9824829,0.17694092,-1.25,-0.140625,-0.515625
1664377557717,0.029785156,-0.9907837,0.18743896,-0.125,-0.15625,-0.1875
1664377557747,0.030517578,-0.9824829,0.18035889,-0.234375,-0.078125,-0.25
1664377557792,0.031982422,-0.99005127,0.18792725,1.1875,0.453125,0.21875
1664377557837,0.02758789,-0.9783325,0.18597412,-0.484375,-0.140625,-0.265625
1664377557866,0.028564453,-0.98760986,0.18670654,0.078125,0.546875,-0.3125
1664377557911,0.035888672,-0.9890747,0.19085693,0.53125,-0.015625,-0.046875
1664377557957,0.03564453,-0.99102783,0.18426514,0.0625,0.5625,-0.09375
1664377557989,0.030273438,-0.9837036,0.19378662,0.078125,0.640625,0.03125
1664377558018,0.037841797,-0.98883057,0.1864624,0.140625,0.09375,-0.28125
1664377558077,0.037353516,-0.9805298,0.1918335,0.1875,0.109375,-0.171875
1664377558106,0.029296875,-0.9859009,0.18841553,-0.375,0.28125,-0.1875
1664377558140,0.024169922,-0.9859009,0.19476318,0.0625,0.015625,-0.25
1664377558197,0.030029297,-0.987854,0.17816162,-0.9375,0.21875,-0.234375
1664377558227,0.026367188,-0.9788208,0.21136475,2.75,1.25,0.109375
1664377558258,0.040039062,-0.98687744,0.19012451,-2.03125,-0.953125,-0.421875
1664377558318,0.01928711,-0.9805298,0.20477295,0.046875,0.328125,-0.25
1664377558348,0.037109375,-0.9829712,0.18988037,0.3125,0.078125,-0.03125
1664377558377,0.024902344,-0.97906494,0.1954956,-0.484375,0.484375,-0.609375
1664377558437,0.025878906,-0.9883423,0.19915771,-0.265625,0.015625,-0.046875
1664377558452,0.027832031,-0.98272705,0.20159912,0.140625,0.0625,-0.234375
1664377558499,0.032226562,-0.9915161,0.19500732,0.453125,0.53125,0.203125
1664377558558,0.032958984,-0.97735596,0.19451904,-0.390625,-0.0625,-0.5
1664377558572,0.027832031,-0.9883423,0.2020874,0.515625,0.609375,-0.125
1664377558618,0.033447266,-0.9837036,0.19891357,0.59375,0.296875,0.046875
1664377558677,0.028320312,-0.9841919,0.19647217,-0.0625,0.1875,-0.21875
1664377558691,0.03491211,-0.9866333,0.199646,0.421875,0.484375,-0.03125
1664377558738,0.030029297,-0.9841919,0.19720459,0.046875,-0.046875,-0.234375
1664377558766,0.028320312,-0.98394775,0.20062256,-0.140625,-0.03125,-0.09375
1664377558813,0.030273438,-0.9768677,0.19989014,0.4375,0.265625,-0.078125
1664377558859,0.02319336,-0.98638916,0.20159912,0.421875,0.296875,-0.078125
1664377558887,0.028076172,-0.9788208,0.1984253,-0.140625,-0.46875,-0.109375
1664377558932,0.030761719,-0.9854126,0.20184326,0.390625,0.203125,-0.109375
1664377558978,0.037597656,-0.9783325,0.20379639,-1.015625,-0.21875,-0.234375
1664377559010,0.026367188,-0.9871216,0.18572998,0.328125,-0.46875,0.375
1664377559052,0.031982422,-0.98321533,0.20013428,-1.546875,-0.734375,-0.84375
1664377559100,0.032226562,-0.98760986,0.20892334,1.921875,0.96875,0.078125
1664377559127,0.037597656,-0.97857666,0.1954956,-1.015625,-0.265625,-0.34375
1664377559173,0.024902344,-0.9846802,0.20550537,0.203125,0.484375,-0.15625
1664377559217,0.024902344,-0.9859009,0.19671631,-0.109375,-0.25,-0.140625
1664377559246,0.026855469,-0.97857666,0.2164917,1.140625,0.578125,0.03125
1664377559293,0.021240234,-0.9783325,0.20526123,-0.234375,0.3125,0.234375
1664377559338,0.024169922,-0.9793091,0.20306396,-0.34375,-0.03125,-0.203125
1664377559370,0.029541016,-0.99224854,0.2111206,0.84375,0.25,0.1875
1664377559413,0.028320312,-0.9788208,0.19891357,1.046875,0.625,-0.125
1664377559458,0.031982422,-0.98760986,0.20233154,0.375,0.359375,-0.015625
1664377559488,0.02709961,-0.98443604,0.20550537,0.65625,0.40625,-0.078125
1664377559517,0.02368164,-0.97906494,0.20404053,0.25,0.5,-0.25
1664377559578,0.021240234,-0.9859009,0.19940186,0.234375,0.203125,0.0
1664377559607,0.025634766,-0.9768677,0.20501709,0.4375,0.453125,0.0625
1664377559636,0.03100586,-0.9902954,0.20892334,0.46875,0.453125,-0.03125
1664377559698,0.02368164,-0.9866333,0.20428467,0.890625,0.515625,-0.03125
1664377559728,0.025146484,-0.987854,0.20526123,0.234375,0.484375,-0.25
1664377559757,0.02734375,-0.989563,0.20379639,0.78125,0.8125,0.078125
1664377559817,0.030517578,-0.96539307,0.22039795,0.703125,0.984375,-0.375
1664377559877,0.022705078,-0.99298096,0.1930542,-0.296875,0.078125,0.359375
1664377559879,0.026611328,-0.98687744,0.19451904,-1.0,0.0625,-0.578125
1664377559937,0.030029297,-0.9834595,0.20306396,1.875,0.875,0.046875
1664377559953,0.030273438,-0.9771118,0.19915771,0.015625,0.796875,-0.28125
1664377559998,0.026855469,-0.99298096,0.19989014,0.484375,0.953125,0.046875
1664377560059,0.032226562,-0.98443604,0.19720459,0.515625,0.34375,0.015625
1664377560072,0.029052734,-0.9956665,0.20794678,2.015625,1.328125,0.265625
1664377560118,0.03149414,-0.9727173,0.20452881,-0.234375,0.390625,0.140625
1664377560177,0.029052734,-0.98931885,0.19940186,0.5625,0.9375,0.0
1664377560192,0.032470703,-0.9927368,0.20281982,1.40625,0.9375,0.375
1664377560237,0.030761719,-0.972229,0.1918335,0.46875,0.90625,0.296875
1664377560267,0.029785156,-0.9961548,0.19940186,0.609375,0.84375,0.03125
1664377560312,0.029785156,-0.989563,0.20184326,0.875,1.0625,0.078125
1664377560358,0.03149414,-0.9819946,0.18719482,0.484375,0.734375,0.078125
1664377560388,0.03515625,-0.99298096,0.19476318,0.796875,0.5,0.203125
1664377560432,0.032470703,-0.9817505,0.20062256,0.859375,1.0625,0.125
1664377560477,0.032470703,-0.98760986,0.19134521,0.828125,0.46875,0.328125
1664377560507,0.029052734,-0.9795532,0.19354248,0.78125,0.53125,-0.03125
1664377560552,0.03857422,-0.98760986,0.19012451,0.109375,0.359375,0.0625
1664377560597,0.034423828,-0.9873657,0.19158936,0.84375,0.453125,0.0
1664377560627,0.026855469,-0.9668579,0.21282959,1.328125,0.953125,-0.140625
1664377560672,0.04321289,-0.9866333,0.16986084,-1.5625,-0.71875,0.234375
1664377560718,0.021728516,-0.98687744,0.19940186,-0.171875,0.53125,-0.34375
1664377560746,0.04711914,-0.98760986,0.18426514,1.140625,0.59375,0.34375
1664377560792,0.03881836,-0.97369385,0.19525146,-0.40625,0.40625,-0.3125
1664377560838,0.030517578,-0.99176025,0.19232178,0.140625,0.625,0.15625
1664377560866,0.040039062,-0.9890747,0.19110107,0.46875,-0.078125,-0.046875
1664377560911,0.027832031,-0.9961548,0.18865967,1.0625,0.359375,0.4375
1664377560958,0.040039062,-0.98443604,0.19158936,-0.234375,0.015625,-0.171875
1664377560987,0.027832031,-0.99053955,0.19525146,1.140625,0.78125,-0.046875
1664377561018,0.03930664,-0.9824829,0.18988037,0.890625,0.3125,0.28125
1664377561077,0.03466797,-0.97857666,0.19671631,0.5625,0.65625,0.03125
1664377561108,0.03466797,-0.9854126,0.18817139,0.5625,0.203125,0.0
1664377561137,0.04248047,-0.98809814,0.19085693,0.25,0.453125,-0.078125
1664377561197,0.03564453,-0.9837036,0.19207764,0.34375,0.5625,0.0
1664377561227,0.041015625,-0.98638916,0.19403076,0.65625,-0.09375,0.0
1664377561257,0.03100586,-0.99005127,0.19207764,0.25,0.40625,0.171875
1664377561318,0.03491211,-0.98272705,0.18597412,0.28125,0.140625,-0.015625
1664377561377,0.033935547,-0.9841919,0.18939209,0.03125,0.265625,-0.046875
1664377561379,0.042236328,-0.9927368,0.18572998,-0.6875,0.359375,0.15625
1664377561423,0.036376953,-0.9746704,0.2098999,2.015625,0.921875,0.0
1664377561452,0.040283203,-0.98223877,0.18743896,-1.359375,-0.40625,-0.265625
1664377561500,0.028320312,-0.9898071,0.20452881,1.21875,-0.03125,-0.171875
1664377561557,0.039794922,-0.9807739,0.1942749,-0.421875,0.1875,-0.03125
1664377561572,0.03466797,-0.98101807,0.1942749,-0.078125,0.609375,-0.109375
1664377561621,0.0390625,-0.99346924,0.18817139,0.140625,0.015625,-0.0625
1664377561676,0.03173828,-0.97662354,0.20574951,0.203125,0.578125,-0.125
1664377561692,0.041748047,-0.97662354,0.18817139,-0.453125,0.078125,-0.046875
1664377561738,0.029541016,-0.98101807,0.1942749,-0.375,0.390625,0.046875
1664377561767,0.036376953,-0.987854,0.19573975,0.078125,0.203125,0.03125
1664377561812,0.04321289,-0.9729614,0.19720459,0.1875,0.15625,-0.0625
1664377561860,0.03491211,-0.9871216,0.19696045,-0.046875,0.3125,-0.203125
1664377561887,0.03955078,-0.98272705,0.19622803,-0.234375,-0.203125,-0.140625
1664377561933,0.035888672,-0.9837036,0.19818115,0.125,0.65625,-0.171875
1664377561992,0.033203125,-0.99053955,0.20574951,0.09375,0.265625,0.09375
1664377562007,0.038085938,-0.97979736,0.19891357,0.0,0.171875,-0.15625
1664377562052,0.028564453,-0.9871216,0.20501709,0.109375,0.453125,-0.09375
1664377562127,0.040039062,-0.98394775,0.19476318,0.265625,0.03125,-0.09375
1664377562129,0.034179688,-0.9690552,0.21820068,-0.078125,0.265625,-0.140625
1664377562173,0.03491211,-0.9949341,0.184021,-0.59375,0.234375,0.21875
1664377562218,0.032958984,-0.9902954,0.19329834,-1.171875,-0.46875,-0.734375
1664377562247,0.040527344,-0.9805298,0.20721436,1.15625,0.34375,-0.046875
1664377562293,0.03930664,-0.97735596,0.19989014,-0.8125,0.234375,-0.546875
1664377562338,0.020751953,-0.991272,0.20159912,-0.140625,0.390625,-0.296875
1664377562367,0.036132812,-0.98223877,0.20599365,-0.453125,-0.578125,0.015625
1664377562412,0.03149414,-0.9771118,0.21038818,1.609375,0.765625,-0.03125
1664377562458,0.036132812,-0.9793091,0.20599365,0.125,0.203125,-0.078125
1664377562487,0.032226562,-0.9846802,0.20648193,-0.140625,0.25,-0.15625
1664377562518,0.037841797,-0.9883423,0.20159912,0.203125,0.328125,-0.09375
1664377562577,0.033203125,-0.97442627,0.19891357,0.5625,0.515625,-0.28125
1664377562608,0.028076172,-0.98516846,0.20599365,-0.28125,-0.015625,-0.15625
1664377562637,0.033935547,-0.97857666,0.21380615,0.078125,0.421875,-0.40625
1664377562697,0.04272461,-0.986145,0.20013428,0.296875,0.375,-0.140625
1664377562730,0.02758789,-0.986145,0.21014404,0.671875,0.625,-0.171875
1664377562757,0.032714844,-0.9829712,0.20379639,0.65625,0.375,-0.046875
1664377562817,0.025878906,-0.9866333,0.20941162,0.078125,-0.0625,-0.28125
1664377562877,0.045410156,-0.9898071,0.20184326,-0.078125,0.59375,-0.109375
1664377562879,0.024169922,-0.97247314,0.22528076,2.1875,1.3125,-0.25
1664377562937,0.041992188,-0.98028564,0.20233154,-1.59375,-0.375,-0.3125
1664377562952,0.025390625,-0.99053955,0.20819092,-0.78125,-0.34375,-0.5625
1664377562997,0.033447266,-0.986145,0.20599365,1.25,0.5625,-0.046875
1664377563058,0.028564453,-0.97247314,0.20819092,-0.125,0.515625,-0.609375
1664377563072,0.03173828,-0.9871216,0.20477295,0.078125,0.0,-0.15625
1664377563117,0.035888672,-0.9771118,0.21478271,-0.109375,-0.078125,-0.34375
1664377563177,0.03149414,-0.9873657,0.2086792,1.109375,0.46875,0.125
1664377563192,0.031982422,-0.96954346,0.215271,0.34375,-0.34375,-0.1875
1664377563237,0.026123047,-0.99053955,0.2098999,0.484375,0.53125,-0.1875
1664377563267,0.028564453,-0.9824829,0.20941162,0.75,0.359375,0.109375
1664377563312,0.03125,-0.9819946,0.20941162,0.15625,0.0625,-0.265625
1664377563358,0.033447266,-0.98565674,0.21307373,0.53125,0.203125,-0.171875
1664377563386,0.029052734,-0.9837036,0.20477295,0.203125,0.3125,-0.0625
1664377563432,0.030273438,-0.97906494,0.21014404,0.15625,-0.15625,-0.125
1664377563477,0.033691406,-0.986145,0.20599365,0.484375,-0.109375,-0.03125
1664377563506,0.034179688,-0.98565674,0.21063232,0.640625,0.15625,0.125
1664377563552,0.026367188,-0.9807739,0.21795654,0.40625,0.1875,-0.171875
1664377563597,0.036865234,-0.9837036,0.1954956,-0.59375,0.109375,0.046875
1664377563627,0.024414062,-0.9819946,0.22747803,3.328125,1.34375,0.3125
1664377563672,0.037353516,-0.9846802,0.20599365,-1.65625,-0.390625,-0.359375
1664377563717,0.016845703,-0.9783325,0.21307373,0.828125,-0.3125,0.125
1664377563747,0.036376953,-0.98760986,0.20306396,0.421875,-0.28125,-0.296875
1664377563792,0.032714844,-0.973938,0.20721436,0.515625,0.390625,-0.203125
1664377563836,0.025878906,-0.986145,0.20452881,0.375,0.03125,-0.09375
1664377563867,0.027832031,-0.97906494,0.21282959,0.53125,0.265625,-0.125
1664377563913,0.030029297,-0.9866333,0.19769287,0.25,0.421875,0.234375
1664377563956,0.029541016,-0.9841919,0.20501709,0.171875,0.578125,-0.171875
1664377563988,0.030761719,-0.9819946,0.20721436,1.171875,0.453125,0.140625
1664377564018,0.035888672,-0.9834595,0.19940186,0.34375,0.234375,0.015625
1664377564077,0.025390625,-0.9795532,0.21429443,0.71875,0.796875,0.03125
1664377564107,0.030761719,-0.9883423,0.20697021,0.578125,0.375,0.046875
1664377564137,0.034179688,-0.9741821,0.2098999,0.015625,0.203125,-0.03125
1664377564197,0.027832031,-0.9807739,0.20843506,0.265625,0.328125,-0.03125
1664377564227,0.03125,-0.9849243,0.20794678,0.546875,0.5,0.3125
1664377564258,0.025878906,-0.9793091,0.20941162,0.375,0.5625,-0.078125
1664377564317,0.030517578,-0.9854126,0.21160889,0.921875,0.703125,0.0625
1664377564347,0.048583984,-0.9714966,0.19915771,-0.921875,0.046875,-0.109375
1664377564377,0.03173828,-0.99102783,0.20037842,1.734375,0.984375,0.734375
1664377564438,0.04663086,-0.9768677,0.20843506,-1.46875,-0.140625,-0.453125
1664377564454,0.028076172,-0.9866333,0.21380615,1.9375,0.625,0.25
1664377564498,0.03955078,-0.98223877,0.20184326,-0.234375,0.140625,0.125
1664377564557,0.022705078,-0.9846802,0.20843506,0.4375,0.734375,-0.09375
1664377564572,0.024169922,-0.99468994,0.20281982,-0.078125,-0.375,0.140625
1664377564618,0.029296875,-0.9824829,0.22161865,1.78125,0.9375,0.203125
1664377564677,0.034423828,-0.97784424,0.21136475,-0.515625,0.125,0.265625
1664377564691,0.026367188,-0.9788208,0.21185303,-0.03125,0.53125,0.0
1664377564738,0.03857422,-0.98760986,0.22064209,1.0,0.8125,0.21875
1664377564797,0.032470703,-0.9795532,0.1984253,0.296875,0.4375,0.40625
1664377564812,0.033691406,-0.975647,0.20477295,0.3125,0.578125,0.015625
1664377564857,0.033935547,-0.9873657,0.20941162,0.703125,0.65625,0.1875
1664377564887,0.03564453,-0.9829712,0.20306396,0.453125,0.515625,0.15625
1664377564933,0.033691406,-0.97906494,0.20770264,0.859375,0.703125,0.1875
1664377564978,0.038330078,-0.98028564,0.20428467,0.3125,0.453125,0.109375
1664377565008,0.038085938,-0.9871216,0.2008667,0.671875,0.1875,0.0
1664377565053,0.03540039,-0.99176025,0.199646,0.640625,0.84375,0.09375
1664377565098,0.030517578,-0.97052,0.22088623,2.34375,1.125,0.078125
1664377565127,0.040527344,-0.9898071,0.18475342,-1.75,-0.28125,-0.078125
1664377565172,0.022949219,-0.9944458,0.21697998,0.734375,0.59375,-0.1875
1664377565218,0.04638672,-0.97784424,0.20477295,1.015625,0.46875,0.28125
1664377565248,0.028564453,-0.9690552,0.20306396,-0.453125,0.515625,-0.4375
1664377565309,0.040283203,-0.9883423,0.19818115,0.21875,-0.109375,0.203125
1664377565337,0.038085938,-0.9768677,0.21160889,0.53125,0.625,-0.078125
1664377565367,0.03491211,-0.9854126,0.19256592,0.359375,0.234375,0.265625
1664377565412,0.031982422,-0.9805298,0.20306396,-0.328125,0.140625,-0.03125
1664377565458,0.040527344,-0.9837036,0.20648193,1.0,1.078125,-0.03125
1664377565487,0.034423828,-0.9780884,0.1984253,1.03125,0.40625,-0.03125
1664377565517,0.037597656,-0.9829712,0.1954956,0.859375,0.734375,-0.1875
1664377565578,0.036376953,-0.9795532,0.20184326,0.515625,0.625,-0.0625
1664377565607,0.03515625,-0.9834595,0.19891357,0.65625,0.390625,-0.015625
1664377565637,0.040527344,-0.9834595,0.199646,0.625,0.390625,-0.078125
1664377565698,0.03173828,-0.9846802,0.20379639,0.484375,0.625,-0.15625
1664377565727,0.038330078,-0.9783325,0.20526123,0.375,0.234375,-0.234375
1664377565756,0.040771484,-0.9866333,0.19500732,-0.296875,0.40625,-0.203125
1664377565818,0.030273438,-0.98638916,0.20770264,2.265625,1.375,-0.09375
1664377565848,0.04711914,-0.98028564,0.19793701,-1.328125,-0.296875,-0.546875
1664377565877,0.03173828,-0.9883423,0.20843506,1.421875,0.0625,0.0
1664377565938,0.042236328,-0.97247314,0.19940186,-0.546875,0.109375,-0.171875
1664377565997,0.032714844,-0.9829712,0.1918335,0.0625,0.4375,-0.359375
1664377566000,0.037841797,-0.9883423,0.19647217,0.078125,-0.234375,0.015625
1664377566057,0.03466797,-0.97320557,0.21478271,0.765625,0.671875,-0.234375
1664377566089,0.04272461,-0.97735596,0.20062256,-0.484375,-0.03125,-0.046875
1664377566117,0.028808594,-0.98028564,0.19989014,-0.34375,0.171875,-0.234375
1664377566179,0.036621094,-0.9837036,0.19940186,0.15625,0.28125,-0.09375
1664377566192,0.036376953,-0.9783325,0.20501709,0.5,0.34375,-0.1875
1664377566238,0.038330078,-0.9837036,0.2033081,-0.03125,0.234375,-0.25
1664377566270,0.037841797,-0.9883423,0.20233154,0.078125,0.25,-0.328125
1664377566312,0.034179688,-0.9841919,0.20501709,0.4375,0.46875,0.015625
1664377566357,0.03857422,-0.9783325,0.20477295,0.375,0.484375,-0.109375
1664377566387,0.030517578,-0.9819946,0.20941162,0.21875,0.25,-0.234375
1664377566432,0.03540039,-0.98272705,0.19793701,0.265625,0.390625,0.03125
1664377566477,0.044189453,-0.973938,0.20794678,-0.796875,-0.046875,-0.375
1664377566509,0.03564453,-0.9924927,0.18890381,0.625,0.4375,0.203125
1664377566552,0.041259766,-0.9805298,0.20306396,-1.671875,-0.265625,-0.78125
1664377566597,0.036376953,-0.98638916,0.2140503,2.0,0.359375,0.03125
1664377566627,0.033935547,-0.9763794,0.20550537,-1.09375,0.0625,-0.328125
1664377566672,0.030273438,-0.98321533,0.20770264,-0.1875,0.3125,-0.453125
1664377566717,0.033447266,-0.9788208,0.21014404,0.03125,0.125,-0.25
1664377566747,0.03125,-0.9751587,0.21942139,1.609375,1.203125,0.0
1664377566792,0.033935547,-0.9795532,0.21551514,-0.109375,0.28125,0.015625
1664377566837,0.029296875,-0.9812622,0.21014404,-0.34375,0.6875,-0.25
1664377566870,0.036621094,-0.98638916,0.2086792,0.71875,0.484375,-0.078125
1664377566912,0.037353516,-0.9837036,0.20697021,0.625,0.40625,0.03125
1664377566957,0.03540039,-0.9837036,0.20648193,0.09375,0.34375,-0.296875
1664377566987,0.033935547,-0.98272705,0.20794678,0.40625,0.21875,-0.046875
1664377567018,0.032958984,-0.9795532,0.20794678,0.21875,0.375,-0.0625
1664377567077,0.03491211,-0.98883057,0.20819092,0.3125,0.640625,-0.1875
1664377567107,0.029785156,-0.97735596,0.20721436,0.109375,0.265625,-0.15625
1664377567137,0.028076172,-0.9793091,0.20941162,0.421875,0.21875,-0.25
1664377567197,0.040039062,-0.9692993,0.1954956,-1.0625,-0.1875,-0.28125
1664377567228,0.029296875,-0.9937134,0.2033081,1.65625,0.59375,0.3125
1664377567257,0.042236328,-0.9763794,0.20892334,-1.296875,-0.28125,-0.5625
1664377567317,0.030029297,-0.987854,0.21868896,1.734375,0.609375,0.1875
1664377567348,0.031982422,-0.9800415,0.21063232,-0.390625,0.34375,-0.171875
1664377567380,0.025878906,-0.9846802,0.20672607,0.078125,0.65625,-0.421875
1664377567437,0.033691406,-0.98565674,0.20770264,-0.078125,-0.1875,-0.109375
1664377567452,0.033935547,-0.9746704,0.2255249,1.3125,0.75,-0.25
1664377567498,0.036376953,-0.9817505,0.20550537,-0.3125,0.296875,0.25
1664377567557,0.026855469,-0.98101807,0.20721436,-0.09375,0.15625,-0.265625
1664377567572,0.033691406,-0.98516846,0.21624756,0.875,0.40625,-0.046875
1664377567618,0.034179688,-0.9768677,0.20281982,0.328125,0.328125,0.046875
1664377567676,0.036132812,-0.9776001,0.20574951,0.484375,0.375,-0.234375
1664377567692,0.0234375,-0.989563,0.22039795,0.265625,0.46875,-0.078125
1664377567738,0.03515625,-0.98516846,0.2062378,0.03125,0.265625,-0.03125
1664377567767,0.032714844,-0.98321533,0.21258545,0.375,0.296875,-0.25
1664377567813,0.03515625,-0.98687744,0.21673584,0.46875,0.421875,-0.171875
1664377567858,0.031982422,-0.97784424,0.20941162,0.921875,0.59375,-0.0625
1664377567887,0.032226562,-0.9866333,0.21380615,0.046875,0.125,-0.0625
1664377567932,0.040039062,-0.97784424,0.21331787,0.828125,0.359375,0.0625
1664377567978,0.036865234,-0.96832275,0.21820068,-0.828125,0.203125,-0.5625
1664377568007,0.03173828,-0.99420166,0.19378662,0.5,-0.015625,0.59375
1664377568053,0.032470703,-0.9854126,0.20355225,-1.734375,-0.640625,-0.84375
1664377568098,0.030517578,-0.97784424,0.22479248,2.125,1.265625,-0.078125
1664377568128,0.040527344,-0.9783325,0.20599365,-0.4375,-0.28125,-0.25
1664377568175,0.024902344,-0.9883423,0.21185303,0.25,0.28125,-0.171875
1664377568218,0.030517578,-0.9846802,0.21087646,0.0625,0.171875,-0.0625
1664377568247,0.030517578,-0.98028564,0.22650146,1.25,0.671875,-0.078125
1664377568292,0.030517578,-0.975647,0.21673584,-0.296875,0.25,0.0
1664377568341,0.028808594,-0.97857666,0.21014404,-0.234375,0.5,-0.125
1664377568367,0.030029297,-0.98321533,0.21551514,0.875,0.296875,0.15625
1664377568413,0.03540039,-0.97735596,0.19989014,0.15625,0.328125,0.109375
1664377568458,0.029541016,-0.98150635,0.21209717,0.15625,0.328125,-0.421875
1664377568487,0.028320312,-0.98516846,0.21502686,0.421875,0.53125,0.0
1664377568517,0.03564453,-0.97979736,0.20916748,-0.046875,0.296875,-0.046875
1664377568578,0.029785156,-0.9859009,0.21502686,0.703125,0.609375,-0.0625
1664377568607,0.03100586,-0.9866333,0.21307373,0.234375,0.5625,0.171875
1664377568638,0.035888672,-0.9849243,0.21185303,0.5625,0.421875,0.0
1664377568699,0.033447266,-0.9788208,0.20916748,0.53125,0.359375,-0.109375
1664377568728,0.036376953,-0.9824829,0.21722412,0.828125,0.859375,0.0625
1664377568757,0.022460938,-0.9824829,0.21282959,0.546875,0.453125,-0.234375
1664377568817,0.03564453,-0.98883057,0.20843506,0.53125,0.5625,0.15625
1664377568832,0.024658203,-0.9644165,0.24066162,1.875,1.40625,-0.171875
1664377568877,0.033203125,-0.9890747,0.19866943,-1.28125,0.203125,0.28125
1664377568939,0.016845703,-0.9780884,0.21600342,-0.390625,-0.4375,-0.328125
1664377568952,0.03930664,-0.98809814,0.20843506,1.875,0.984375,0.15625
1664377568998,0.026855469,-0.97491455,0.21014404,-0.234375,0.828125,-0.125
1664377569058,0.029785156,-0.9883423,0.20941162,0.28125,0.578125,0.109375
1664377569072,0.040527344,-0.9783325,0.20965576,0.421875,0.390625,0.03125
