# Sensor type: Respeck
# Activity type: Climbing stairs
# Activity code: 12
# Subject id: s1912558
# Notes: 
timestamp,accel_x,accel_y,accel_z,gyro_x,gyro_y,gyro_z
1664563103645,-0.005859375,-0.9614868,0.3078003,0.71875,4.75,0.453125
1664563103705,-0.0017089844,-0.94659424,0.33465576,2.6875,3.328125,0.046875
1664563103734,-0.0073242188,-0.93756104,0.33294678,1.78125,3.234375,0.703125
1664563103764,-0.0026855469,-0.9517212,0.32611084,0.859375,2.234375,1.203125
1664563103824,-0.010498047,-0.95318604,0.31732178,1.0,2.5625,0.15625
1664563103854,-0.010498047,-0.9741821,0.33221436,-0.984375,2.40625,0.734375
1664563103884,0.021240234,-0.9595337,0.32000732,1.65625,0.078125,1.421875
1664563103944,0.021240234,-0.93585205,0.29901123,-0.09375,-0.15625,1.28125
1664563103959,-0.005126953,-0.9595337,0.32000732,-1.28125,-2.78125,1.734375
1664563104004,-0.0029296875,-0.9475708,0.33026123,0.234375,-3.78125,2.03125
1664563104064,-0.013671875,-0.9451294,0.32489014,1.34375,-2.140625,0.6875
1664563104080,-0.05419922,-0.975647,0.29534912,-1.34375,-0.421875,-0.25
1664563104124,-0.08569336,-0.9783325,0.2987671,2.125,3.28125,1.59375
1664563104184,-0.09057617,-0.9348755,0.23431396,10.40625,10.1875,3.5
1664563104199,-0.036865234,-1.0151978,0.27337646,3.5,9.921875,0.28125
1664563104246,0.11035156,-0.99664307,0.39642334,12.078125,7.40625,4.5625
1664563104304,-0.052490234,-0.9326782,0.36053467,5.15625,5.90625,-0.28125
1664563104320,0.020751953,-0.93878174,0.24700928,9.671875,-2.90625,3.71875
1664563104364,0.055419922,-0.94317627,0.23284912,1.875,-4.03125,1.84375
1664563104439,-0.0029296875,-0.9512329,0.29803467,3.78125,-5.9375,3.234375
1664563104440,-0.068115234,-1.0020142,0.324646,0.21875,-6.796875,1.359375
1664563104484,-0.037597656,-0.99224854,0.32000732,3.125,-5.40625,0.25
1664563104516,-0.060058594,-0.9885864,0.32855225,3.203125,-2.609375,-2.140625
1664563104560,-0.13134766,-0.99468994,0.31170654,5.46875,-1.25,-2.640625
1664563104603,-0.11669922,-0.9717407,0.34197998,5.84375,2.796875,-3.96875
1664563104634,-0.111816406,-0.9468384,0.30633545,6.640625,6.1875,-2.5
1664563104680,-0.01586914,-1.0237427,0.33831787,2.0,0.609375,-1.125
1664563104725,0.032714844,-1.0462036,0.21795654,3.8125,2.75,-0.546875
1664563104757,-0.23706055,-1.2007446,0.12298584,-1.765625,9.203125,-1.59375
1664563104799,0.18945312,-1.2317505,0.31219482,2.53125,-5.171875,-1.171875
1664563104845,0.2446289,-1.1333618,0.21356201,-2.234375,5.421875,-0.59375
1664563104874,0.016601562,-0.8621216,0.09051514,-20.875,-3.1875,2.171875
1664563104919,0.22558594,-0.7476196,0.1305542,14.09375,-14.625,7.046875
1664563104964,0.27124023,-0.95977783,0.14813232,-0.109375,-12.75,0.203125
1664563104995,0.1496582,-0.8428345,0.16986084,10.875,-15.765625,12.1875
1664563105039,-0.030517578,-0.9883423,0.21966553,5.015625,-21.671875,4.65625
1664563105085,-0.1328125,-1.0464478,0.28851318,6.734375,-1.796875,0.453125
1664563105114,0.041992188,-0.93218994,0.22845459,8.5,0.65625,3.484375
1664563105144,0.043701172,-0.94854736,0.2633667,7.65625,2.234375,0.078125
1664563105204,0.009033203,-0.94000244,0.20452881,10.046875,1.46875,1.421875
1664563105234,0.024902344,-0.94244385,0.23846436,6.21875,2.0625,1.90625
1664563105267,-4.8828125E-4,-0.86065674,0.23065186,8.0625,3.71875,2.65625
1664563105339,-0.021972656,-0.7998657,0.18133545,5.734375,7.34375,4.453125
1664563105400,0.02368164,-0.8616333,0.20648193,-1.84375,5.890625,3.59375
1664563105402,-0.015625,-0.94537354,0.26434326,0.03125,12.734375,-0.453125
1664563105445,-0.020751953,-0.97320557,0.2970581,-3.4375,12.6875,-2.21875
1664563105461,-0.015625,-1.0151978,0.3151245,0.921875,12.671875,-2.921875
1664563105505,0.027832031,-1.0979614,0.29119873,-10.703125,5.765625,-3.0625
1664563105564,0.09057617,-1.281311,0.3085327,-10.703125,6.359375,-0.46875
1664563105579,0.03515625,-1.388977,0.32928467,2.140625,13.9375,-4.390625
1664563105625,0.033691406,-1.4216919,0.25579834,-13.671875,6.609375,-4.6875
1664563105684,0.17993164,-1.1126099,0.2074585,-0.046875,8.765625,-1.484375
1664563105699,0.123291016,-0.85650635,-0.022033691,-1.21875,16.125,-6.328125
1664563105744,0.06518555,-0.798645,-0.0012817383,-18.125,10.703125,-3.953125
1664563105774,0.20019531,-0.8999634,0.05609131,-4.375,11.5625,3.5
1664563105819,0.076171875,-0.9651489,0.18939209,15.578125,2.515625,-5.671875
1664563105864,0.0061035156,-0.9397583,0.18939209,9.625,-1.5,-2.1875
1664563105894,-0.029296875,-0.9192505,0.16204834,6.28125,-8.671875,-1.171875
1664563105939,0.022216797,-0.8467407,0.1251831,13.3125,-6.46875,1.1875
1664563105984,-0.012451172,-0.83721924,0.18572998,4.75,-6.34375,-0.75
1664563106014,-0.055908203,-0.84039307,0.2020874,4.109375,-6.328125,-0.703125
1664563106060,-0.026123047,-0.802063,0.16033936,13.09375,-8.8125,0.171875
1664563106105,-0.01977539,-0.8670044,0.117370605,5.65625,-8.4375,-2.296875
1664563106134,-0.04638672,-1.0039673,0.21746826,2.3125,-6.515625,-2.125
1664563106180,-0.13305664,-1.0176392,0.2411499,-2.0625,-1.96875,-5.75
1664563106224,-0.20336914,-1.0110474,0.23480225,4.546875,5.390625,-5.703125
1664563106255,-0.16503906,-1.102356,0.28411865,-2.765625,4.625,-2.125
1664563106300,-0.044189453,-1.3526001,0.2789917,-10.953125,4.390625,-1.421875
1664563106345,0.04248047,-1.4624634,0.1708374,-17.203125,13.765625,-4.234375
1664563106374,0.13769531,-1.25177,4.272461E-4,-12.1875,6.703125,-0.859375
1664563106419,0.2644043,-0.95269775,0.043640137,-15.609375,-1.984375,1.078125
1664563106465,0.19018555,-0.8694458,0.11053467,-4.3125,-2.890625,3.625
1664563106495,0.13574219,-0.9290161,0.12738037,-10.59375,-16.984375,6.234375
1664563106525,0.060302734,-0.9175415,0.19451904,2.203125,-7.5625,0.0625
1664563106584,-0.026611328,-0.92144775,0.24945068,-3.875,-5.296875,2.015625
1664563106614,0.04272461,-0.8491821,0.2592163,-2.84375,-7.75,5.90625
1664563106644,-0.0075683594,-0.79522705,0.24334717,0.34375,-6.796875,2.4375
1664563106704,-0.0546875,-0.82476807,0.24066162,-5.90625,-3.046875,3.515625
1664563106735,-0.01953125,-0.8596802,0.27850342,-7.859375,3.015625,6.140625
1664563106765,0.009277344,-0.8423462,0.30682373,-2.796875,0.828125,5.625
1664563106825,0.030517578,-0.82598877,0.33050537,-2.671875,7.75,6.03125
1664563106855,-0.0026855469,-0.9002075,0.3361206,5.8125,6.125,4.53125
1664563106884,0.010009766,-0.9434204,0.416687,6.0,4.625,2.953125
1664563106944,0.03173828,-1.0183716,0.4616089,7.390625,9.25,-2.03125
1664563106959,-0.04663086,-1.1880493,0.41912842,6.078125,11.203125,-5.96875
1664563107005,0.07080078,-1.4414673,0.29119873,-3.859375,0.0,1.234375
1664563107065,0.24951172,-1.3225708,0.3390503,-9.296875,-1.328125,2.40625
1664563107079,0.053955078,-1.050354,0.13983154,4.65625,7.28125,-4.28125
1664563107124,-0.0703125,-0.8699341,-0.0012817383,7.578125,11.15625,-4.046875
1664563107184,0.21069336,-0.8460083,-0.004211426,8.078125,17.640625,-5.296875
1664563107198,0.22851562,-0.9390259,0.124694824,18.78125,7.5,-6.28125
1664563107245,0.08105469,-0.97052,0.12200928,20.171875,-0.28125,-4.46875
1664563107274,-0.0048828125,-0.88482666,0.17547607,16.015625,-6.234375,-5.609375
1664563107319,-0.055419922,-0.84576416,0.10614014,11.453125,-2.203125,-4.609375
1664563107364,-0.044189453,-0.82647705,0.10467529,11.578125,-1.0,-3.875
1664563107394,0.01586914,-0.8255005,0.13275146,8.125,-2.375,-2.140625
1664563107439,-0.053466797,-0.82598877,0.14984131,7.953125,-0.984375,-2.984375
1664563107484,-0.053222656,-0.8452759,0.10760498,8.8125,-4.84375,-3.046875
1664563107515,-0.028320312,-0.9397583,0.10418701,8.453125,-3.828125,-2.46875
1664563107559,-0.064941406,-0.9859009,0.18084717,7.453125,-4.84375,-2.8125
1664563107634,-0.1652832,-1.0613403,0.2074585,-2.921875,-0.859375,-4.78125
1664563107637,-0.20678711,-1.1355591,0.1762085,-4.40625,0.203125,-1.53125
1664563107680,-0.1352539,-1.2893677,0.2243042,-10.03125,2.453125,-1.09375
1664563107724,-0.07470703,-1.3308716,0.13031006,-13.109375,8.515625,-1.59375
1664563107754,0.043701172,-1.319397,0.11907959,-11.09375,5.234375,-3.1875
1664563107799,0.30908203,-1.0300903,-0.09527588,-10.78125,-7.421875,2.328125
1664563107844,0.37817383,-0.90289307,0.020446777,-19.71875,-11.71875,1.671875
1664563107873,0.06518555,-0.9985962,0.101745605,-2.265625,-17.078125,4.5
1664563107919,0.041015625,-0.9985962,0.16351318,5.296875,-17.265625,2.671875
1664563107965,-0.071777344,-0.9963989,0.1906128,0.71875,-0.09375,1.375
1664563107994,-0.06982422,-0.8623657,0.20550537,1.78125,-1.3125,4.59375
1664563108026,0.026123047,-0.76446533,0.18841553,-4.59375,-4.328125,7.8125
1664563108085,-0.0056152344,-0.71417236,0.17449951,-0.265625,1.40625,8.0
1664563108114,-0.049560547,-0.77301025,0.19989014,-5.15625,-1.421875,7.75
1664563108144,-7.324219E-4,-0.8369751,0.26190186,-12.421875,-4.265625,9.796875
1664563108219,0.040771484,-0.9229126,0.2694702,-7.9375,2.40625,6.046875
1664563108265,0.025634766,-0.9468384,0.36102295,4.953125,12.59375,5.078125
1664563108267,0.03881836,-1.0628052,0.38397217,-0.625,8.0,3.625
1664563108325,-0.010986328,-1.0339966,0.4352417,-1.21875,13.703125,-0.625
1664563108354,-0.026855469,-1.3257446,0.3534546,-14.9375,3.265625,-4.796875
1664563108388,0.2241211,-1.4546509,0.27703857,-2.21875,-8.390625,5.953125
1664563108445,0.17333984,-1.1577759,0.25042725,-4.890625,7.5625,-5.90625
1664563108459,-0.03857422,-0.95758057,0.06463623,-8.84375,11.0,-9.03125
1664563108505,0.038330078,-0.8711548,0.01361084,-5.546875,19.125,-4.21875
1664563108565,0.17871094,-0.91485596,0.090026855,-0.578125,12.328125,-8.1875
1664563108579,0.18017578,-1.0171509,0.26287842,9.40625,7.296875,-5.890625
1664563108625,0.08666992,-0.85528564,0.19500732,8.890625,-0.234375,-6.1875
1664563108684,-0.075927734,-0.78985596,0.16253662,0.875,-2.421875,-7.734375
1664563108699,-0.06298828,-0.7859497,0.1564331,10.234375,-5.546875,-2.5625
1664563108747,0.045654297,-0.75787354,0.20892334,10.109375,-3.78125,-0.03125
1664563108774,-0.025634766,-0.79815674,0.18084717,15.84375,-2.65625,-2.03125
1664563108822,-0.08544922,-0.8753052,0.2074585,10.171875,-7.828125,-0.21875
1664563108865,-0.084472656,-1.0061646,0.21697998,7.359375,-5.890625,1.078125
1664563108895,-0.15771484,-1.0462036,0.27166748,7.109375,-0.046875,-0.59375
1664563108939,-0.1875,-1.0535278,0.29144287,-2.5625,7.0,-2.1875
1664563108985,-0.0793457,-1.131897,0.31243896,-0.1875,10.453125,-1.03125
1664563109014,-0.035888672,-1.237854,0.32806396,-6.671875,11.296875,-2.359375
1664563109060,0.040283203,-1.3960571,0.22113037,-16.09375,8.28125,-4.71875
1664563109105,0.21557617,-1.2415161,0.11199951,-10.484375,2.8125,-2.34375
1664563109134,0.27392578,-0.8833618,0.020935059,-11.03125,-8.171875,-0.625
1664563109179,0.20141602,-0.82598877,0.036315918,-1.796875,-15.046875,9.875
1664563109255,0.17553711,-0.9170532,0.22357178,-4.359375,-24.203125,11.15625
1664563109256,-0.041503906,-1.0750122,0.24798584,6.234375,-6.46875,0.046875
1664563109300,-0.0871582,-0.94488525,0.27752686,2.4375,-4.15625,7.484375
1664563109345,0.053222656,-0.81427,0.24749756,9.1875,-3.25,7.53125
1664563109374,0.078125,-0.7966919,0.20965576,-5.625,-3.578125,6.546875
1664563109420,-0.0068359375,-0.7996216,0.21136475,-3.203125,0.203125,5.078125
1664563109465,-0.049316406,-0.85162354,0.26531982,-1.625,8.09375,4.78125
1664563109495,-0.027832031,-0.8726196,0.32269287,-4.609375,12.265625,6.640625
1664563109524,0.063964844,-0.91412354,0.3012085,-5.640625,16.125,7.625
1664563109585,0.12768555,-0.9138794,0.40008545,0.65625,26.734375,1.421875
1664563109645,-0.04663086,-1.0662231,0.41082764,-2.8125,19.578125,-1.9375
1664563109648,0.051757812,-1.173645,0.3414917,1.3125,14.046875,-7.34375
1664563109704,0.23144531,-1.4517212,0.37176514,-20.046875,-3.703125,-3.28125
1664563109736,0.33666992,-1.2376099,0.29315186,4.5625,-7.828125,-0.5
1664563109765,0.08886719,-0.98687744,0.08148193,-6.40625,-5.546875,-11.46875
1664563109825,-0.028076172,-0.90826416,0.038024902,-16.109375,4.234375,-5.609375
1664563109855,0.19091797,-0.96588135,0.1293335,7.21875,2.1875,0.765625
1664563109884,0.15991211,-0.97613525,0.23260498,24.828125,-10.984375,-6.34375
1664563109946,-0.015380859,-0.91290283,0.20184326,18.703125,-10.296875,-1.78125
1664563109974,0.026123047,-0.8699341,0.18084717,10.765625,-0.640625,-2.0625
1664563110005,-0.030761719,-0.802063,0.09710693,12.203125,-2.84375,-3.09375
1664563110064,0.02368164,-0.7583618,0.13763428,7.140625,-9.59375,-3.296875
1664563110079,0.0034179688,-0.80841064,0.16131592,3.46875,-6.84375,-4.578125
1664563110125,-0.00390625,-0.8447876,0.19573975,10.28125,-3.65625,-2.109375
1664563110184,-0.036865234,-0.93927,0.21942139,4.25,-8.171875,-1.078125
1664563110202,-0.15405273,-1.0584106,0.2975464,-1.9375,-2.078125,-4.546875
1664563110245,-0.20043945,-1.1194458,0.28289795,-3.53125,4.0,-4.9375
1664563110274,-0.09741211,-1.1074829,0.35247803,-0.59375,8.609375,-3.640625
1664563110319,-0.15014648,-1.1995239,0.27264404,-1.140625,8.703125,-2.421875
1664563110365,0.030761719,-1.3630981,0.20159912,-30.9375,0.890625,-5.859375
1664563110394,0.25073242,-1.2017212,0.0848999,-5.96875,4.0625,-5.15625
1664563110440,0.28295898,-0.9158325,0.06829834,-8.0,-1.984375,-3.84375
1664563110483,0.2121582,-0.7996216,0.14398193,5.0625,-10.4375,9.0625
1664563110513,0.14624023,-0.8765259,0.2140503,4.890625,-21.484375,6.578125
1664563110559,-0.06616211,-1.0007935,0.20306396,7.359375,-9.234375,4.375
1664563110604,-0.1081543,-0.96539307,0.23406982,12.265625,-2.046875,2.609375
1664563110634,0.025390625,-0.8308716,0.22039795,11.984375,-2.53125,5.34375
1664563110679,0.09643555,-0.78009033,0.1671753,2.546875,-0.515625,7.6875
1664563110725,-0.025634766,-0.81744385,0.14276123,2.46875,-0.65625,7.5
1664563110754,0.023925781,-0.8423462,0.19085693,-0.625,-0.875,8.25
1664563110800,0.043701172,-0.9019165,0.246521,10.203125,5.25,7.484375
1664563110845,0.071777344,-1.0049438,0.20672607,8.46875,0.203125,7.046875
1664563110874,0.020507812,-1.0628052,0.27947998,4.890625,1.3125,5.65625
1664563110920,0.052978516,-1.1453247,0.3053589,-0.859375,2.453125,-0.703125
1664563110964,-0.0061035156,-1.2402954,0.24505615,-2.828125,-3.140625,-5.5
1664563110995,0.104003906,-1.482727,0.12615967,-13.375,-11.9375,0.21875
1664563111024,0.25219727,-1.0650024,0.051452637,-18.34375,3.171875,-0.296875
1664563111085,-0.030273438,-0.88775635,-0.0064086914,-11.75,20.359375,-12.171875
1664563111115,0.041503906,-0.89508057,0.046813965,5.4375,7.09375,-1.15625
1664563111144,0.22241211,-0.958313,0.14837646,6.625,5.78125,-2.25
1664563111205,0.0126953125,-0.954895,0.18670654,6.28125,5.609375,-5.078125
1664563111233,-0.072021484,-0.8694458,0.12713623,4.296875,3.609375,-3.03125
1664563111264,0.0078125,-0.78302,0.1005249,-1.609375,-2.4375,-4.921875
1664563111324,0.02709961,-0.7346802,0.19134521,5.125,2.890625,-3.609375
1664563111340,-0.009765625,-0.8101196,0.17840576,3.34375,-0.28125,-2.46875
1664563111399,0.07519531,-0.8623657,0.19915771,12.265625,-11.21875,-2.703125
1664563111445,0.072265625,-0.94537354,0.20648193,4.59375,-22.078125,-5.875
1664563111459,-0.23339844,-1.0615845,0.2658081,5.390625,-7.328125,-5.03125
1664563111508,-0.32617188,-1.111145,0.18817139,12.75,-8.015625,0.0625
1664563111564,-0.25439453,-1.1741333,0.26849365,-5.765625,10.671875,-6.5625
1664563111579,-0.17163086,-1.2207642,0.24505615,-12.03125,15.515625,-4.96875
1664563111625,0.09448242,-1.381897,0.074157715,-13.359375,8.421875,-0.03125
1664563111685,0.27661133,-1.0967407,-0.023254395,-21.640625,5.640625,-0.984375
1664563111699,0.38671875,-0.8743286,0.062438965,-5.0,3.015625,-0.546875
1664563111745,0.16992188,-0.85601807,0.08660889,-3.09375,-7.046875,4.109375
1664563111866,0.052978516,-0.9673462,0.22576904,4.625,-18.875,4.875
1664563111868,-0.08569336,-1.0010376,0.22454834,5.859375,-4.359375,2.5625
1664563111879,-0.14526367,-0.87701416,0.30218506,6.671875,0.78125,2.9375
1664563111894,0.071777344,-0.7695923,0.18182373,-3.9375,-7.0625,9.09375
1664563111939,0.13378906,-0.6699829,0.17181396,-5.28125,0.90625,6.625
1664563111985,-0.10571289,-0.7449341,0.24798584,-2.8125,0.140625,3.6875
1664563112015,-0.110839844,-0.8948364,0.27508545,-9.375,8.796875,8.96875
1664563112065,0.013427734,-0.9939575,0.35321045,-6.25,20.328125,6.90625
1664563112106,0.06689453,-1.1152954,0.4022827,5.796875,16.453125,2.828125
1664563112135,0.13134766,-1.229065,0.49188232,2.1875,0.828125,-1.515625
1664563112195,0.080078125,-1.1738892,0.40789795,0.609375,0.96875,-8.34375
1664563112224,0.016845703,-1.4121704,0.24969482,-10.296875,-2.046875,-7.859375
1664563112254,0.15942383,-1.1670532,0.12762451,-17.03125,-3.078125,5.140625
1664563112299,0.05859375,-0.8284302,0.026550293,5.203125,16.0,-11.484375
1664563112345,-0.0107421875,-0.81134033,0.043151855,11.375,10.4375,-6.21875
1664563112377,0.12890625,-1.0291138,0.2074585,12.671875,3.09375,-3.625
1664563112466,0.15478516,-0.9949341,0.21502686,27.296875,2.546875,-6.390625
1664563112468,-0.021728516,-0.8496704,0.11151123,6.109375,4.0625,-4.015625
1664563112494,-0.048583984,-0.83428955,0.085876465,9.03125,-5.65625,-2.859375
1664563112525,0.0075683594,-0.722229,0.10662842,11.359375,-2.453125,-3.609375
1664563112584,-0.014160156,-0.77056885,0.13568115,4.71875,-5.859375,-1.890625
1664563112614,-0.048583984,-0.83306885,0.14544678,12.796875,-4.703125,1.328125
1664563112644,-0.05883789,-0.942688,0.16107178,11.15625,-6.328125,-0.03125
1664563112705,-0.07885742,-1.055481,0.18499756,7.15625,-7.09375,-0.40625
1664563112734,-0.18945312,-1.1575317,0.24334717,-1.328125,-3.75,-2.0
1664563112764,-0.2290039,-1.2498169,0.2868042,-2.390625,2.421875,-3.265625
1664563112824,-0.19995117,-1.2959595,0.29193115,-3.03125,3.421875,-5.0625
1664563112839,0.09741211,-1.5291138,0.09881592,-25.40625,-4.875,-4.375
1664563112885,0.24194336,-1.0891724,0.022888184,-12.453125,0.671875,-0.25
1664563112945,0.25683594,-0.7632446,-0.015197754,-7.875,-3.453125,-1.5
1664563112960,0.15063477,-0.77008057,0.097595215,-2.109375,-13.6875,3.484375
1664563113004,-0.011230469,-0.972229,0.19769287,9.0,-14.203125,0.078125
1664563113067,-0.079589844,-0.9783325,0.23382568,3.75,-3.953125,3.171875
1664563113079,-0.03881836,-0.83966064,0.23602295,-2.03125,-1.390625,4.15625
1664563113125,0.0068359375,-0.7776489,0.16278076,-2.484375,-5.046875,5.234375
1664563113184,-0.045898438,-0.755188,0.18792725,0.125,0.71875,5.796875
1664563113199,-0.05810547,-0.8171997,0.19378662,-9.546875,-4.046875,8.671875
1664563113245,0.011962891,-0.8855591,0.2819214,-0.734375,7.5625,9.5
1664563113275,-0.014892578,-0.98883057,0.3366089,-1.875,4.765625,6.9375
1664563113319,0.12597656,-1.053772,0.2970581,10.5625,-2.859375,7.234375
1664563113365,-0.008300781,-1.1226196,0.48944092,2.078125,9.015625,-4.15625
1664563113394,-0.08081055,-1.2827759,0.39764404,-5.53125,1.15625,-6.359375
1664563113455,-0.07446289,-1.5349731,0.29266357,-17.078125,0.78125,-7.03125
1664563113485,0.3166504,-1.2415161,0.11175537,-26.453125,-3.65625,13.75
1664563113515,0.11010742,-0.8687134,-0.018615723,0.25,12.40625,-8.015625
1664563113560,-0.03491211,-0.7642212,0.014831543,0.265625,7.71875,-10.4375
1664563113604,0.0012207031,-0.9480591,0.13739014,6.09375,8.65625,-4.078125
1664563113634,0.032226562,-1.0181274,0.24749756,11.359375,4.90625,-3.1875
1664563113679,0.026611328,-0.92510986,0.16619873,-2.375,6.046875,-5.171875
1664563113726,-0.048583984,-0.83795166,0.1720581,6.546875,-0.328125,-4.234375
1664563113755,-0.041503906,-0.7271118,0.14935303,6.71875,0.984375,-3.25
1664563113800,-0.024169922,-0.7029419,0.1605835,7.421875,-1.828125,-2.09375
1664563113845,-0.036865234,-0.7774048,0.17523193,4.21875,-4.71875,-1.015625
1664563113875,-0.022705078,-0.87945557,0.19378662,8.109375,-7.515625,1.6875
1664563113921,-0.09741211,-1.0247192,0.30047607,7.84375,-5.984375,-1.75
1664563113965,-0.17773438,-1.1431274,0.3727417,9.765625,1.15625,-3.265625
1664563113994,-0.3232422,-1.2156372,0.30413818,-7.125,9.203125,-6.296875
1664563114085,-0.28588867,-1.2337036,0.3678589,-9.265625,17.59375,-9.859375
1664563114086,-0.06347656,-1.4094849,0.14031982,-14.75,22.140625,-6.515625
1664563114115,0.41845703,-1.1973267,0.019958496,-18.984375,8.53125,-3.15625
1664563114144,0.41259766,-0.96539307,0.1149292,-22.671875,-3.59375,-4.40625
1664563114204,0.1394043,-0.83062744,0.13446045,7.40625,-10.625,3.828125
1664563114234,0.036865234,-0.98565674,0.18353271,6.59375,-18.84375,4.59375
1664563114265,-0.029296875,-1.0427856,0.28948975,6.4375,-12.53125,3.28125
1664563114324,-0.028808594,-0.8682251,0.28411865,11.21875,-14.03125,7.671875
1664563114339,-0.03125,-0.76812744,0.21258545,9.625,-12.609375,7.625
1664563114385,-0.046142578,-0.7017212,0.1918335,12.65625,-8.765625,10.15625
1664563114445,-0.1262207,-0.7149048,0.17132568,6.109375,-2.03125,8.578125
1664563114461,-0.040039062,-0.8435669,0.15570068,4.71875,3.109375,13.203125
1664563114505,0.049316406,-0.9216919,0.26556396,6.53125,10.65625,10.375
1664563114563,0.020263672,-1.0308228,0.33172607,4.5,14.46875,5.796875
1664563114579,0.020751953,-1.1365356,0.39349365,13.015625,11.28125,3.359375
1664563114627,0.037109375,-1.1677856,0.36395264,-2.71875,2.625,1.390625
1664563114684,-0.033203125,-1.326477,0.19378662,1.3125,-0.03125,-5.8125
1664563114699,0.20141602,-1.3901978,0.016784668,-2.1875,-5.296875,0.328125
1664563114745,0.084228516,-0.99713135,0.1083374,-1.5,11.171875,-2.109375
1664563114775,-0.12573242,-0.83917236,-0.026428223,-10.578125,7.703125,-5.359375
1664563114819,0.115234375,-0.95147705,-0.089660645,-1.703125,13.78125,1.25
1664563114865,0.12182617,-1.034729,0.1708374,18.609375,11.25,-7.984375
1664563114894,0.029052734,-0.954895,0.16522217,8.21875,-1.515625,-2.0625
1664563114940,-0.06762695,-0.88897705,0.098083496,5.59375,-2.71875,-5.921875
1664563114985,-0.06567383,-0.7883911,0.043884277,5.328125,-1.359375,-5.359375
1664563115014,0.014404297,-0.7319946,0.097351074,6.53125,0.03125,-3.890625
1664563115059,4.8828125E-4,-0.8164673,0.08026123,8.125,-3.46875,-1.265625
1664563115104,-0.026367188,-0.8804321,0.078552246,8.734375,-9.21875,-0.625
1664563115134,-0.13378906,-1.0322876,0.15716553,6.765625,-5.59375,-0.046875
1664563115180,-0.17651367,-1.1450806,0.2423706,6.296875,1.921875,-2.046875
1664563115225,-0.1652832,-1.1931763,0.277771,-4.375,5.515625,-5.078125
1664563115255,-0.11621094,-1.1599731,0.22869873,-13.828125,8.125,-9.1875
1664563115301,0.2175293,-1.4087524,-0.082336426,-25.859375,-12.734375,-7.96875
1664563115345,0.24658203,-1.003479,0.03265381,-17.828125,3.03125,-1.546875
1664563115374,0.13085938,-0.8518677,-0.055480957,-5.546875,0.375,0.75
1664563115406,0.072265625,-0.87506104,0.11395264,-3.859375,-10.484375,4.796875
1664563115464,0.026611328,-1.0762329,0.21282959,-2.203125,-10.015625,3.359375
1664563115495,-0.056152344,-1.0481567,0.2543335,4.21875,-0.4375,3.578125
1664563115525,-0.032470703,-0.87335205,0.20794678,0.046875,-1.109375,6.46875
1664563115586,0.020019531,-0.75616455,0.17303467,2.53125,-4.8125,5.40625
1664563115614,-0.053466797,-0.77227783,0.14202881,6.078125,2.15625,4.5
1664563115645,-0.037841797,-0.8230591,0.15228271,-6.09375,-1.328125,9.875
1664563115704,0.0053710938,-0.8760376,0.18695068,-13.15625,-5.484375,9.71875
1664563115735,0.020751953,-0.85357666,0.22235107,-3.640625,9.59375,7.4375
1664563115764,0.042236328,-1.0183716,0.36834717,-6.25,10.390625,6.015625
1664563115825,0.08496094,-1.210022,0.4147339,0.453125,11.34375,0.140625
1664563115839,0.061279297,-1.1511841,0.38739014,-1.078125,8.21875,-4.390625
1664563115885,0.055419922,-1.274231,0.29901123,-4.421875,-4.453125,-5.046875
1664563115945,0.22387695,-1.5081177,0.086120605,-23.4375,-13.765625,10.1875
1664563115960,0.17626953,-0.9963989,0.13983154,-3.34375,13.609375,-2.109375
1664563116005,-0.0126953125,-0.67510986,-0.0413208,0.9375,7.890625,-11.5
1664563116065,-0.014160156,-0.89385986,0.07635498,-7.203125,8.359375,2.90625
1664563116079,0.12890625,-1.0842896,0.309021,11.03125,-2.078125,-4.703125
1664563116125,0.09863281,-0.9199829,0.15179443,9.6875,-3.421875,-4.015625
1664563116155,-0.05102539,-0.77789307,0.1774292,-1.859375,-3.359375,-5.734375
1664563116199,-0.041748047,-0.74786377,0.21234131,7.734375,-7.203125,-4.0
1664563116244,-0.0075683594,-0.75177,0.19329834,2.828125,-6.6875,-1.015625
1664563116275,-0.049072266,-0.79571533,0.20892334,3.859375,-7.15625,-0.703125
1664563116319,-0.034179688,-0.8855591,0.21209717,8.21875,-4.40625,-0.890625
1664563116364,-0.103271484,-0.9668579,0.23187256,3.03125,-3.765625,-1.53125
1664563116394,-0.13085938,-1.0374146,0.32855225,6.734375,-3.0,-0.953125
1664563116439,-0.18286133,-1.1709595,0.35198975,0.96875,4.828125,-6.34375
1664563116485,-0.23022461,-1.2178345,0.36224365,-1.328125,11.859375,-5.875
1664563116514,-0.111083984,-1.2283325,0.30267334,-9.421875,11.9375,-4.859375
1664563116559,0.18554688,-1.4180298,0.12591553,-14.078125,2.203125,-0.09375
1664563116604,0.3400879,-1.0159302,0.014343262,-16.09375,-1.328125,-1.953125
1664563116634,0.20532227,-0.82354736,0.09222412,8.53125,-7.328125,-0.703125
1664563116680,0.10229492,-0.9385376,0.1954956,7.828125,-18.015625,5.5625
1664563116725,0.06591797,-1.0918579,0.2387085,7.578125,-10.828125,1.3125
1664563116754,-0.0024414062,-1.0059204,0.26507568,9.828125,-3.65625,5.484375
1664563116799,-0.04663086,-0.83599854,0.21478271,6.234375,-4.390625,4.890625
1664563116844,-0.046142578,-0.71221924,0.17791748,5.453125,-6.953125,8.90625
1664563116875,-0.03125,-0.6970825,0.1293335,-0.265625,-3.265625,7.65625
1664563116905,-0.035888672,-0.8023071,0.22015381,-5.34375,-5.984375,9.265625
1664563116964,-0.06274414,-0.9026489,0.31756592,-1.15625,6.109375,8.8125
1664563116995,-0.10205078,-1.0344849,0.31976318,-2.984375,14.65625,6.140625
1664563117025,0.14477539,-1.0564575,0.41497803,6.9375,18.203125,5.40625
1664563117084,0.087890625,-1.1758423,0.4845581,4.375,20.625,-5.78125
1664563117115,0.07373047,-1.272522,0.26434326,1.453125,5.578125,-4.875
1664563117143,0.19873047,-1.3667603,0.112976074,-5.296875,-5.203125,1.015625
1664563117205,0.21362305,-1.048645,0.06365967,-0.578125,4.671875,-4.609375
1664563117264,-0.060302734,-0.94488525,-0.03717041,-18.0625,16.671875,-14.921875
1664563117266,0.022460938,-0.85528564,-0.09429932,8.96875,14.453125,-1.6875
1664563117324,0.15112305,-0.92437744,0.13153076,5.703125,3.6875,-6.203125
1664563117339,0.044433594,-0.93414307,0.19866943,4.609375,-2.0,-4.84375
1664563117385,-0.029785156,-0.85528564,0.12615967,5.71875,-4.421875,-3.921875
1664563117445,-0.024169922,-0.74005127,0.059509277,9.03125,-5.0,-2.140625
1664563117460,0.017822266,-0.71051025,0.14227295,3.03125,-6.75,-1.703125
1664563117504,0.010498047,-0.7749634,0.101257324,6.75,-9.0,-1.890625
1664563117565,-0.020751953,-0.8609009,0.1749878,8.609375,-11.34375,0.0
1664563117579,-0.111572266,-1.0293579,0.21624756,3.21875,-10.875,-0.015625
1664563117625,-0.20263672,-1.1380005,0.21380615,-0.390625,-4.1875,-2.953125
1664563117654,-0.25048828,-1.196106,0.30096436,-10.765625,1.609375,-7.875
1664563117701,-0.22338867,-1.1751099,0.40057373,-4.0,10.765625,-7.703125
1664563117745,-0.15527344,-1.1799927,0.28753662,-11.3125,15.453125,-8.09375
1664563117775,0.06225586,-1.3987427,0.06097412,-19.234375,2.828125,-7.765625
1664563117820,0.23144531,-1.0615845,9.1552734E-4,-23.296875,-2.875,-1.359375
1664563117865,0.30200195,-0.8970337,0.11175537,-5.875,-4.40625,-2.078125
1664563117895,0.18017578,-0.87945557,0.21502686,-0.65625,-13.015625,4.640625
1664563117940,0.029785156,-1.0271606,0.20794678,-3.546875,-20.78125,4.390625
1664563117985,-0.16088867,-1.0195923,0.30218506,-4.09375,-8.109375,3.046875
1664563118017,0.013183594,-0.79937744,0.2526245,-1.40625,-9.703125,10.0625
1664563118060,0.042236328,-0.70684814,0.14910889,-7.96875,-11.46875,10.515625
1664563118104,-0.020996094,-0.7473755,0.20452881,-4.65625,-8.125,11.65625
1664563118165,-0.05859375,-0.8599243,0.2789917,0.8125,0.25,11.0625
1664563118195,-0.11621094,-0.9143677,0.3324585,-4.84375,3.890625,9.8125
1664563118240,0.03173828,-1.0125122,0.33831787,-8.40625,6.703125,10.40625
1664563118286,0.08544922,-0.9463501,0.4262085,6.171875,13.34375,5.203125
1664563118300,-7.324219E-4,-0.9468384,0.48284912,1.296875,17.46875,-2.03125
1664563118345,-0.051513672,-1.1052856,0.39813232,-7.546875,11.3125,-3.765625
1664563118375,0.09814453,-1.2922974,0.36956787,-2.15625,2.578125,-0.609375
1664563118405,0.19970703,-1.4187622,0.24188232,-20.296875,-3.890625,5.078125
1664563118465,0.08959961,-0.98760986,0.15203857,-1.359375,19.0625,-2.96875
1664563118494,0.03491211,-0.79351807,0.04071045,-4.6875,14.703125,-10.171875
1664563118524,0.122558594,-0.9104614,0.09857178,0.734375,12.578125,-1.5
1664563118584,0.12597656,-0.98687744,0.3126831,18.765625,1.984375,-8.34375
1664563118616,0.016113281,-0.91241455,0.23822021,14.328125,-1.0,-4.96875
1664563118644,-0.05517578,-0.8179321,0.24456787,10.8125,-10.046875,-5.71875
1664563118704,-0.048339844,-0.74542236,0.1828003,18.046875,-7.21875,-4.203125
1664563118735,0.021240234,-0.74420166,0.12835693,16.265625,-4.84375,-2.25
1664563118764,-0.010498047,-0.817688,0.1762085,8.296875,-5.390625,-4.265625
1664563118825,-0.060302734,-0.87628174,0.30682373,14.0625,-3.0625,-8.671875
1664563118884,-0.07373047,-1.0337524,0.18792725,7.078125,-4.265625,-10.3125
1664563118886,-0.10668945,-1.125061,0.27874756,10.8125,-4.390625,-3.265625
1664563118945,-0.19604492,-1.173645,0.20794678,15.46875,-3.15625,-3.015625
1664563118960,-0.26635742,-1.1358032,0.31976318,3.9375,1.5625,-4.203125
1664563119005,-0.12841797,-1.239563,0.25482178,-10.421875,4.046875,-7.28125
1664563119064,0.1381836,-1.460022,0.034118652,-13.109375,-1.34375,-6.796875
1664563119080,0.29125977,-1.0440063,0.0048217773,-11.46875,-5.0,4.625
1664563119125,0.2932129,-0.76934814,0.016784668,3.609375,-9.375,7.484375
1664563119154,0.08642578,-0.93536377,0.14984131,-8.453125,-15.0625,6.0625
1664563119200,-0.048339844,-1.0386353,0.24945068,13.984375,-3.65625,2.421875
1664563119244,-0.060791016,-0.88775635,0.19281006,5.21875,5.234375,6.703125
1664563119274,0.01171875,-0.7996216,0.23895264,-1.078125,-2.65625,5.359375
1664563119320,0.0053710938,-0.74542236,0.14910889,4.078125,-3.46875,7.140625
1664563119380,-0.033203125,-0.73272705,0.12640381,3.203125,-2.546875,8.921875
1664563119394,-0.011230469,-0.8152466,0.17132568,-2.4375,0.1875,7.765625
1664563119440,-0.103515625,-0.9175415,0.27996826,-5.5,16.3125,3.140625
1664563119484,0.08911133,-1.0942993,0.2711792,-7.90625,-1.453125,6.296875
1664563119515,0.12939453,-0.9951782,0.39520264,9.359375,12.921875,1.3125
1664563119559,-0.09423828,-1.210022,0.36712646,-8.9375,14.46875,-8.078125
1664563119605,-0.039794922,-1.2608032,0.30511475,-1.6875,4.046875,-6.171875
1664563119634,0.10229492,-1.3858032,0.11273193,-18.625,-3.0,-3.1875
1664563119679,0.14135742,-1.2153931,0.06463623,-19.6875,6.46875,7.734375
1664563119725,0.008300781,-0.8440552,0.06488037,7.09375,22.0,-1.1875
1664563119755,-0.0075683594,-0.73760986,-0.015686035,-8.90625,16.03125,-11.625
1664563119799,0.119628906,-1.0120239,0.08660889,3.359375,7.953125,-0.28125
1664563119846,0.13964844,-0.98150635,0.23065186,24.421875,-4.8125,-4.65625
1664563119874,-0.03149414,-0.84625244,0.18182373,4.390625,-3.9375,-5.703125
1664563119906,-0.06958008,-0.8220825,0.090026855,4.890625,-3.640625,-4.84375
1664563119965,0.0036621094,-0.7654419,0.14422607,9.296875,-5.234375,0.40625
1664563119995,0.053955078,-0.75616455,0.1005249,6.078125,-10.890625,2.296875
1664563120024,2.4414062E-4,-0.81451416,0.17376709,5.40625,-14.1875,2.34375
1664563120084,-0.18237305,-0.8677368,0.19110107,10.203125,-9.796875,-2.875
1664563120114,-0.19848633,-1.0635376,0.16278076,0.328125,-8.84375,-1.96875
1664563120145,0.010498047,-1.1985474,0.23675537,6.21875,-5.765625,3.8125
1664563120191,-0.21044922,-1.178772,0.38104248,2.6875,1.125,-3.53125
1664563120220,-0.29101562,-1.2183228,0.39642334,-13.171875,5.0625,-7.046875
1664563120266,-0.12963867,-1.3164673,0.16668701,-18.828125,6.3125,-6.3125
1664563120325,0.15551758,-1.2488403,-0.0068969727,-18.015625,5.3125,-0.484375
1664563120341,0.46875,-0.9859009,0.13250732,-13.890625,-2.265625,-5.125
1664563120385,0.115478516,-0.8320923,0.1395874,5.296875,-8.015625,-5.765625
1664563120445,0.022216797,-0.9212036,0.18695068,-9.96875,-21.8125,7.546875
1664563120459,-0.04345703,-1.0300903,0.28948975,-3.0625,-9.203125,-1.609375
1664563120507,-0.099365234,-0.89068604,0.2699585,-4.765625,-5.71875,5.0
1664563120564,-0.028076172,-0.78082275,0.19012451,-6.875,-2.84375,7.765625
1664563120579,-0.0014648438,-0.74176025,0.16033936,-8.96875,-2.34375,9.34375
1664563120625,-0.056884766,-0.74957275,0.25897217,-7.90625,7.328125,9.59375
1664563120654,-0.07299805,-0.8833618,0.3534546,-1.953125,14.015625,9.9375
1664563120700,0.024169922,-0.973938,0.3595581,-9.140625,15.0625,8.40625
1664563120746,0.10571289,-0.9780884,0.39105225,-1.078125,15.4375,3.75
1664563120776,-0.009521484,-0.99542236,0.5153198,14.171875,13.640625,-2.71875
1664563120820,-0.041992188,-0.99786377,0.4393921,3.3125,7.59375,-5.15625
1664563120865,0.040771484,-1.1995239,0.40960693,1.6875,0.84375,-5.578125
1664563120895,0.13354492,-1.5393677,0.29656982,-9.5,-10.25,-1.84375
1664563120939,0.2199707,-1.0632935,0.12640381,16.6875,0.484375,9.65625
1664563120984,0.04711914,-0.82598877,0.001159668,0.46875,4.34375,-11.28125
1664563121017,-0.031982422,-0.90460205,0.0758667,-7.859375,12.671875,-4.4375
1664563121060,0.06616211,-0.97906494,0.17840576,26.625,5.21875,-2.75
1664563121105,0.0056152344,-0.93829346,0.18255615,20.234375,0.5625,-6.0
1664563121135,-0.0390625,-0.8706665,0.22576904,5.875,-4.359375,-5.90625
1664563121180,-0.044921875,-0.8110962,0.11468506,17.765625,-1.359375,-4.109375
1664563121224,-0.041259766,-0.7078247,0.12322998,13.453125,-1.84375,-0.890625
1664563121255,-0.008056641,-0.7803345,0.1618042,8.890625,-2.796875,0.046875
1664563121300,-0.06616211,-0.84991455,0.12420654,11.84375,-7.21875,-0.234375
1664563121345,-0.107666016,-0.95098877,0.2062378,9.15625,-3.125,-2.546875
1664563121374,-0.1484375,-1.071106,0.24041748,6.203125,-2.765625,-3.8125
1664563121405,-0.13378906,-1.1355591,0.18890381,8.609375,3.1875,-5.296875
1664563121465,-0.19238281,-1.2432251,0.20257568,0.28125,7.6875,-6.75
1664563121494,-0.18164062,-1.1973267,0.25872803,-4.3125,10.03125,-5.5
1664563121525,-0.0024414062,-1.3240356,0.012878418,-24.78125,-0.03125,-3.421875
1664563121584,0.1418457,-1.1902466,-0.0056762695,-15.953125,0.78125,-1.390625
1664563121614,0.3017578,-0.9348755,0.06488037,-12.390625,-4.515625,0.953125
1664563121646,0.11254883,-0.86968994,0.07318115,-9.078125,-7.03125,-0.34375
1664563121705,0.045898438,-1.0232544,0.15496826,2.234375,-16.796875,5.15625
1664563121721,-0.015625,-1.0122681,0.2453003,1.96875,-5.984375,-0.203125
1664563121764,-0.06347656,-0.9133911,0.22918701,1.265625,-4.203125,5.625
1664563121824,-0.011474609,-0.7803345,0.17840576,-1.875,-9.4375,8.65625
1664563121840,-0.016601562,-0.7012329,0.09832764,-0.84375,-6.84375,9.703125
1664563121885,-0.05102539,-0.71759033,0.16229248,-1.90625,-5.125,10.359375
1664563121945,-0.047607422,-0.8521118,0.21234131,-3.78125,-1.96875,10.609375
1664563121974,-0.030517578,-0.986145,0.3151245,-5.96875,6.6875,10.671875
1664563122006,0.049316406,-1.0300903,0.30560303,-6.25,19.3125,8.5
1664563122065,0.044677734,-1.1204224,0.42010498,-10.1875,14.140625,2.875
1664563122079,-0.14331055,-1.1065063,0.5907593,-3.28125,21.265625,-8.078125
1664563122126,0.029785156,-1.2857056,0.38494873,-3.921875,-3.03125,-0.21875
1664563122155,0.18554688,-1.4363403,0.24627686,-19.828125,-7.8125,0.515625
1664563122200,0.21557617,-1.1160278,0.11956787,-9.4375,5.28125,5.484375
1664563122248,0.04711914,-0.85040283,-0.0491333,-3.015625,7.984375,-8.453125
1664563122274,0.025878906,-0.8545532,0.09515381,-4.03125,10.3125,-1.890625
1664563122320,0.11621094,-0.93536377,0.16522217,6.9375,2.1875,-0.796875
1664563122380,0.035888672,-0.9714966,0.22406006,11.65625,3.21875,-7.796875
1664563122395,0.014404297,-0.90582275,0.26434326,-1.109375,-1.609375,-5.4375
1664563122439,-0.06933594,-0.831604,0.19134521,4.9375,3.03125,-7.40625
1664563122486,-0.017578125,-0.75177,0.18499756,9.484375,3.46875,-3.53125
1664563122517,0.037597656,-0.7490845,0.18450928,4.4375,-0.53125,-1.53125
1664563122560,-0.032714844,-0.80255127,0.20574951,5.203125,-2.640625,-1.90625
1664563122606,-0.091552734,-0.8843384,0.25238037,8.5,-1.796875,-1.984375
1664563122634,-0.09301758,-1.019104,0.29925537,5.203125,-1.5625,-2.8125
1664563122679,-0.103515625,-1.1043091,0.32244873,3.84375,-1.171875,-3.65625
1664563122725,-0.19897461,-1.1900024,0.36419678,-0.828125,4.40625,-6.875
1664563122754,-0.25708008,-1.1919556,0.42938232,2.03125,9.953125,-6.953125
1664563122800,-0.12841797,-1.2974243,0.20819092,-13.53125,11.1875,-8.0625
1664563122846,0.12988281,-1.2966919,0.11956787,-10.609375,11.65625,-1.59375
1664563122874,0.30200195,-0.9573364,0.007751465,-11.484375,-3.046875,0.40625
1664563122905,0.25952148,-0.82159424,0.0927124,5.796875,-8.21875,6.53125
1664563122980,0.09399414,-0.96661377,0.23480225,-1.96875,-19.390625,8.359375
1664563122994,-0.032714844,-1.1262817,0.31414795,18.28125,-18.1875,4.453125
1664563123027,-0.02758789,-0.927063,0.24261475,6.5625,-9.421875,8.28125
1664563123085,0.0107421875,-0.82110596,0.21209717,3.25,-8.59375,6.765625
1664563123116,-0.00390625,-0.7686157,0.14691162,5.65625,-6.78125,7.453125
1664563123144,-0.010009766,-0.76275635,0.19207764,-1.171875,0.328125,8.015625
1664563123206,-0.03173828,-0.815979,0.246521,2.890625,-0.203125,6.984375
1664563123219,-0.0021972656,-0.84332275,0.2662964,6.53125,-0.109375,7.1875
1664563123265,0.011474609,-0.8562622,0.22381592,8.671875,8.796875,7.75
1664563123325,0.009033203,-0.9771118,0.26141357,9.0,6.875,4.59375
1664563123340,0.046142578,-1.0430298,0.4015503,2.609375,15.859375,-0.28125
1664563123399,0.02758789,-1.196106,0.39813232,-0.421875,7.75,-3.9375
1664563123445,-0.030517578,-1.3682251,0.23406982,8.40625,-5.421875,-7.78125
1664563123459,0.15478516,-1.5286255,0.21478271,-7.640625,-10.578125,-1.71875
1664563123505,0.2277832,-1.1890259,0.059265137,-2.125,-9.28125,0.75
1664563123564,-0.014160156,-0.8496704,-0.16583252,-5.984375,11.59375,-8.265625
1664563123579,0.13549805,-0.8135376,-0.031066895,-12.203125,12.6875,-7.0
1664563123625,0.20629883,-0.94537354,0.105163574,11.78125,6.8125,-1.640625
1664563123699,0.1237793,-0.9307251,0.07904053,17.78125,-4.453125,-3.453125
1664563123702,0.03540039,-0.9277954,0.16790771,-4.25,-6.15625,-5.65625
1664563123744,-0.0107421875,-0.829895,0.074401855,4.234375,-7.984375,-3.3125
1664563123774,-0.07104492,-0.73516846,0.1083374,5.75,-0.65625,-2.640625
1664563123819,-0.064941406,-0.7246704,0.11126709,8.703125,-3.796875,-0.296875
1664563123865,-0.03466797,-0.72784424,0.078552246,13.5,-4.046875,1.015625
1664563123894,-0.049804688,-0.8213501,0.12957764,4.265625,-3.328125,1.796875
1664563123940,-0.16235352,-0.9573364,0.17962646,7.265625,1.75,-2.15625
1664563123986,-0.19726562,-1.0501099,0.2411499,12.203125,9.171875,-3.125
1664563124014,-0.12158203,-1.1209106,0.2453003,-0.75,8.609375,-7.203125
1664563124060,-0.12402344,-1.170227,0.28948975,8.65625,6.609375,-4.0625
1664563124105,-0.18237305,-1.2869263,0.32977295,-0.796875,-0.390625,-4.90625
1664563124134,-0.014404297,-1.3567505,0.22088623,-11.65625,3.609375,-1.53125
1664563124181,-0.22827148,-1.3757935,0.16986084,-7.9375,15.96875,-6.75
1664563124225,0.20654297,-1.164856,-0.2678833,-28.0625,8.578125,-2.578125
1664563124254,0.3449707,-0.878479,-0.062561035,-21.875,-1.953125,-11.796875
1664563124299,0.1977539,-0.9212036,0.05218506,-6.078125,-11.34375,9.5
1664563124344,0.036621094,-0.8831177,0.22943115,0.34375,-6.265625,1.0625
1664563124375,-0.12182617,-0.9204712,0.17327881,-17.78125,3.34375,-5.71875
1664563124405,-0.059814453,-0.84381104,0.22772217,-11.953125,4.28125,-0.8125
1664563124479,0.0637207,-0.7227173,0.17034912,-5.453125,-0.125,3.484375
1664563124494,0.04296875,-0.76275635,0.2140503,-1.796875,-9.171875,8.265625
1664563124526,-0.044189453,-0.7966919,0.17425537,9.953125,-5.375,12.015625
1664563124585,-0.02734375,-0.8328247,0.18914795,-6.125,-5.46875,9.921875
1664563124614,-0.103271484,-0.83135986,0.35101318,-0.125,0.28125,9.21875
1664563124645,-0.057373047,-0.8442993,0.3180542,-6.828125,8.75,7.8125
1664563124704,-0.052001953,-0.8147583,0.36468506,-0.53125,13.78125,2.671875
1664563124720,-0.114746094,-0.8796997,0.45257568,1.71875,14.921875,4.078125
1664563124767,-0.052490234,-1.0078735,0.51116943,-0.34375,16.890625,-3.34375
1664563124825,-0.057373047,-1.0454712,0.55633545,-3.984375,10.671875,-11.125
1664563124840,0.10229492,-1.1443481,0.34417725,5.734375,-7.046875,-1.140625
1664563124886,0.2536621,-1.598938,0.48114014,-41.4375,-22.078125,2.171875
1664563124945,0.07104492,-1.1133423,0.15325928,2.546875,-4.1875,-1.21875
1664563124959,-0.03515625,-0.81451416,-0.105529785,-11.6875,-0.09375,-12.859375
1664563125007,0.07373047,-0.9282837,-0.11383057,3.921875,23.515625,-0.21875
1664563125034,0.3425293,-1.006897,0.17059326,24.3125,7.046875,0.0
1664563125080,0.23632812,-1.0122681,0.17669678,10.03125,-1.078125,-5.1875
1664563125126,-4.8828125E-4,-0.9404907,0.1449585,10.859375,-8.328125,-1.4375
1664563125155,-0.045654297,-0.89849854,0.13201904,23.625,-18.90625,-1.15625
1664563125200,-0.033691406,-0.8711548,0.21185303,4.34375,-13.828125,-0.578125
1664563125246,-0.007080078,-0.7901001,0.23480225,17.984375,-19.953125,0.5625
1664563125274,-0.16503906,-0.79522705,0.2140503,11.78125,-10.21875,-0.390625
1664563125320,-0.17114258,-0.8804321,0.18841553,10.90625,-14.640625,1.890625
1664563125367,-0.056152344,-0.8960571,0.18817139,8.375,-10.609375,3.421875
1664563125394,-0.079589844,-0.94781494,0.26409912,2.703125,-10.5625,-1.1875
1664563125441,-0.21801758,-1.0872192,0.34661865,4.578125,-16.296875,0.359375
1664563125484,-0.15258789,-1.298645,0.36810303,0.3125,-10.984375,2.9375
1664563125515,-0.31811523,-1.3345337,0.2658081,-1.421875,-1.203125,1.828125
1664563125560,-0.2644043,-1.2756958,0.20965576,-11.890625,8.25,-2.34375
1664563125603,0.09326172,-1.5471802,0.062194824,-10.671875,16.59375,-7.8125
1664563125634,0.4675293,-1.0552368,-0.33111572,-8.34375,13.75,4.453125
1664563125680,0.3984375,-0.84454346,-0.054748535,-32.71875,-5.546875,0.484375
1664563125724,0.3828125,-0.9060669,0.15911865,-9.640625,-12.296875,3.640625
1664563125755,0.14404297,-1.0183716,0.12030029,2.53125,-7.765625,0.0625
1664563125784,0.03857422,-1.0022583,0.1461792,-5.46875,-10.484375,1.6875
1664563125844,0.111328125,-0.99468994,0.25091553,2.40625,-6.1875,3.078125
1664563125875,0.06347656,-0.9656372,0.2333374,3.640625,-2.125,2.125
1664563125905,0.061279297,-0.9182739,0.21356201,2.765625,-7.90625,6.5625
1664563125966,0.02734375,-0.91900635,0.24920654,-3.21875,-2.265625,2.84375
1664563125995,-0.06298828,-0.8411255,0.22357178,-7.171875,-1.453125,3.53125
1664563126025,-0.052246094,-0.83673096,0.2501831,-6.625,4.6875,3.734375
1664563126085,-0.0061035156,-0.73443604,0.27337646,-2.265625,7.9375,6.0
1664563126115,-0.059570312,-0.77130127,0.3727417,-0.078125,21.703125,1.890625
1664563126144,-0.13720703,-0.8777466,0.4088745,21.046875,20.421875,2.09375
1664563126205,0.11328125,-1.2080688,0.2975464,-17.359375,21.078125,3.40625
1664563126219,0.09008789,-1.2537231,0.39105225,6.21875,28.0,-7.5
1664563126264,0.14550781,-1.4075317,0.3114624,-15.734375,5.09375,0.234375
1664563126340,0.4086914,-1.4876099,0.27874756,-13.21875,-3.28125,9.59375
1664563126342,0.18408203,-1.0315552,0.09466553,-2.265625,2.140625,-8.234375
1664563126385,-0.099365234,-0.8428345,-0.017150879,-12.390625,5.296875,-12.34375
1664563126445,-0.11791992,-0.8501587,-0.007873535,-3.09375,11.171875,2.328125
1664563126459,0.09790039,-0.94195557,0.19256592,14.59375,7.46875,-6.6875
1664563126505,0.16796875,-0.8982544,0.2609253,10.65625,7.03125,-5.34375
1664563126534,2.4414062E-4,-0.8274536,0.17132568,3.421875,3.234375,-5.796875
1664563126580,-0.010498047,-0.7210083,0.1449585,8.140625,-3.578125,-0.515625
1664563126624,0.071777344,-0.68341064,0.16082764,15.40625,-5.390625,1.375
1664563126655,-0.026367188,-0.72003174,0.18621826,3.4375,-7.40625,-2.390625
1664563126699,-0.13452148,-0.8652954,0.19256592,3.140625,-7.0625,-1.421875
1664563126745,-0.048095703,-0.9607544,0.21282959,18.71875,-2.0,1.515625
1664563126774,-0.049560547,-1.0308228,0.24383545,12.90625,-4.390625,-1.171875
1664563126820,-0.13769531,-1.1052856,0.34881592,12.9375,-4.109375,-3.859375
1664563126894,-0.22265625,-1.2080688,0.3859253,7.703125,-2.03125,-2.53125
1664563126896,-0.118896484,-1.5376587,0.23675537,-13.65625,2.765625,-9.71875
1664563126941,0.13696289,-1.5244751,0.13641357,-8.375,17.421875,-3.796875
1664563126985,0.2944336,-1.0410767,0.014343262,-16.359375,5.796875,-1.296875
1664563127014,0.28515625,-0.8267212,0.08709717,4.171875,0.921875,2.28125
1664563127060,0.06518555,-0.81329346,-0.049621582,-2.75,-3.796875,2.5625
1664563127105,0.1352539,-0.97906494,0.14642334,2.96875,-12.625,3.46875
1664563127134,0.059814453,-0.93048096,0.17132568,7.984375,8.90625,0.921875
1664563127179,-0.048095703,-0.81817627,0.23699951,0.15625,-2.4375,5.03125
1664563127225,0.064941406,-0.706604,0.13397217,12.40625,-4.75,11.125
1664563127254,0.03930664,-0.7034302,0.09954834,4.140625,-3.1875,6.40625
1664563127286,-0.055419922,-0.80718994,0.16912842,-2.484375,-0.3125,4.171875
1664563127345,-0.050048828,-0.9221802,0.27581787,-3.734375,-1.765625,6.90625
1664563127376,-0.037353516,-1.0056763,0.2333374,3.03125,11.0,5.453125
1664563127404,-0.035888672,-1.0515747,0.29681396,2.375,8.90625,2.96875
1664563127465,0.15600586,-1.1087036,0.36151123,-0.234375,13.53125,2.796875
1664563127494,-0.0063476562,-1.1333618,0.33392334,-3.6875,28.375,-4.9375
1664563127527,0.02319336,-1.4016724,0.14007568,-8.65625,6.78125,-4.96875
1664563127585,0.47753906,-1.5696411,0.19525146,-6.421875,-5.671875,5.625
1664563127618,0.15014648,-1.0957642,0.027282715,5.25,20.640625,-5.890625
1664563127645,-0.17407227,-0.84332275,-0.1651001,-15.0625,5.640625,-9.9375
1664563127705,0.051757812,-0.83306885,-0.05645752,0.625,13.375,5.75
1664563127721,0.30297852,-0.88116455,0.23260498,7.453125,2.375,1.65625
1664563127765,0.14331055,-0.93463135,0.16546631,3.578125,-4.0625,-6.328125
1664563127824,-0.061279297,-0.8069458,0.1461792,-1.6875,-9.125,-5.859375
1664563127839,-0.07055664,-0.69195557,0.07879639,4.546875,-5.1875,-3.1875
1664563127885,0.008056641,-0.7251587,0.10687256,4.375,-4.828125,-6.828125
1664563127945,-0.0063476562,-0.83843994,0.18719482,-1.609375,-5.0,-5.8125
1664563127977,-0.04711914,-0.9573364,0.1984253,5.859375,-9.4375,-0.65625
1664563128005,-0.03930664,-1.0630493,0.21868896,0.015625,-5.9375,-1.0
1664563128034,-0.15405273,-1.1033325,0.20819092,1.578125,-5.4375,-2.84375
1664563128080,-0.21557617,-1.1213989,0.3156128,-0.734375,0.9375,-0.828125
1664563128125,-0.19506836,-1.1470337,0.28411865,3.828125,9.734375,-4.09375
1664563128155,-0.10668945,-1.234436,0.27703857,-21.1875,11.140625,-8.28125
1664563128200,0.23388672,-1.4370728,0.15618896,-26.96875,2.546875,-7.65625
1664563128248,0.37548828,-1.0613403,0.08319092,-22.109375,0.828125,-6.9375
1664563128274,0.40527344,-0.88360596,0.09637451,-3.5625,-14.984375,-4.25
1664563128320,0.17016602,-0.86309814,0.13934326,5.515625,-22.765625,8.03125
1664563128365,-0.0637207,-0.97369385,0.21966553,2.375,-14.890625,3.8125
1664563128395,-0.08081055,-0.92388916,0.2453003,8.015625,-13.6875,8.53125
1664563128441,0.0034179688,-0.82281494,0.2711792,-6.65625,-10.4375,5.40625
1664563128515,0.0,-0.7918091,0.2321167,3.421875,-7.640625,8.875
1664563128516,-0.0078125,-0.71466064,0.22479248,2.03125,-6.453125,10.078125
1664563128560,-0.04711914,-0.74957275,0.24749756,-4.453125,-0.21875,8.65625
1664563128606,-0.048095703,-0.8428345,0.31610107,-8.390625,0.640625,9.328125
1664563128634,0.009277344,-0.9060669,0.36590576,-2.90625,1.625,7.671875
1664563128680,-0.091796875,-0.9741821,0.3847046,1.109375,8.703125,4.484375
1664563128724,0.01928711,-1.0352173,0.45941162,3.09375,6.84375,7.515625
1664563128758,0.022216797,-1.1404419,0.42913818,3.078125,7.328125,-0.140625
1664563128784,0.07421875,-1.4736938,0.36175537,1.703125,-7.390625,4.3125
1664563128860,0.43774414,-1.5889282,0.3217163,-4.921875,-9.5,14.25
1664563128874,0.18139648,-0.989563,0.13543701,11.09375,13.125,-9.09375
1664563128905,-0.01977539,-0.8447876,-0.0115356445,-5.625,7.40625,-13.15625
1664563128965,0.1418457,-0.83551025,0.06121826,5.6875,14.09375,0.96875
1664563128995,0.17456055,-0.86968994,0.11029053,8.21875,5.125,-7.8125
1664563129025,0.037353516,-0.87945557,0.09954834,21.703125,-0.796875,-5.015625
1664563129086,-0.03540039,-0.82476807,0.22625732,12.1875,-1.84375,-7.671875
1664563129114,-0.06518555,-0.7637329,0.116882324,16.96875,0.140625,-5.375
1664563129145,-0.0014648438,-0.7124634,0.08270264,14.8125,2.40625,-5.0
1664563129205,0.017578125,-0.83306885,0.10076904,7.0625,3.515625,-4.890625
1664563129219,-0.032470703,-0.93634033,0.16595459,10.34375,-2.5625,-3.359375
1664563129265,-0.07446289,-0.9553833,0.17230225,9.65625,-2.296875,-1.75
1664563129325,-0.064697266,-1.0261841,0.1486206,9.75,-0.421875,-3.203125
1664563129340,-0.12109375,-1.078186,0.19891357,7.671875,2.1875,-4.484375
1664563129386,-0.18798828,-1.1184692,0.20770264,6.59375,3.125,-2.78125
1664563129448,-0.16040039,-1.260315,0.2230835,-0.546875,4.09375,-4.25
1664563129460,-0.091308594,-1.4678345,0.097839355,-18.265625,-1.703125,-9.9375
1664563129504,0.20361328,-1.4216919,0.029724121,-14.15625,3.5,-0.234375
1664563129536,0.32788086,-1.045227,-0.08892822,-13.046875,2.21875,2.015625
1664563129579,0.26416016,-0.8430786,0.024597168,-4.34375,-10.234375,4.109375
1664563129624,0.23144531,-0.861145,0.08050537,-0.484375,-23.140625,8.859375
1664563129654,0.072509766,-0.9505005,0.0993042,9.78125,-15.265625,5.78125
1664563129714,0.028808594,-0.9158325,0.16619873,2.21875,-13.875,7.703125
1664563129744,2.4414062E-4,-0.7896118,0.16278076,4.421875,-12.34375,7.59375
1664563129774,-0.061767578,-0.6880493,0.124938965,1.625,-6.5,6.484375
1664563129819,-0.08178711,-0.6663208,0.1437378,-1.03125,-1.90625,7.859375
1664563129865,-0.013427734,-0.8128052,0.16497803,13.125,-0.5625,10.46875
1664563129897,0.04321289,-0.95806885,0.121276855,7.5,6.109375,12.296875
1664563129940,0.08129883,-1.0352173,0.19378662,-12.234375,3.90625,8.5625
1664563129985,0.076171875,-1.0108032,0.3390503,-8.765625,12.171875,5.953125
1664563130015,0.06323242,-1.1172485,0.354187,-11.921875,15.65625,0.53125
1664563130059,0.092285156,-1.269104,0.3300171,-11.78125,13.203125,-5.234375
1664563130104,0.22705078,-1.4209595,0.27557373,-7.234375,2.0,-4.96875
1664563130135,0.32128906,-1.4251099,0.09881592,-23.453125,-7.75,0.921875
1664563130179,0.10644531,-0.99542236,0.035827637,-3.859375,13.03125,-7.53125
1664563130225,-0.024169922,-0.7998657,-0.03277588,-14.375,5.84375,-12.90625
1664563130255,0.072753906,-0.87701416,0.057556152,-7.890625,18.34375,-2.265625
1664563130284,0.15576172,-0.8875122,0.11395264,8.15625,8.5625,-4.71875
1664563130345,0.079589844,-0.8362427,0.16009521,8.484375,6.9375,-6.859375
1664563130374,0.0026855469,-0.82818604,0.21185303,1.015625,2.59375,-8.953125
1664563130406,-0.032958984,-0.7210083,0.13568115,5.09375,3.15625,-5.21875
1664563130465,-0.017333984,-0.7041626,0.12615967,7.34375,1.6875,-4.265625
1664563130496,0.015136719,-0.82110596,0.16546631,-2.875,0.234375,-5.265625
1664563130524,0.0024414062,-0.9024048,0.23651123,10.671875,-2.140625,-3.0
1664563130585,-0.045654297,-0.9976196,0.22357178,3.078125,-5.1875,-3.5
1664563130599,-0.10644531,-1.1194458,0.26239014,6.03125,-3.953125,-1.515625
1664563130645,-0.08618164,-1.1348267,0.28753662,4.1875,0.03125,-0.5
1664563130704,-0.16381836,-1.1829224,0.31878662,-0.171875,3.640625,-3.078125
1664563130734,-0.15161133,-1.234436,0.25286865,-5.4375,8.84375,-2.65625
1664563130765,0.04248047,-1.2942505,0.10223389,-14.5,3.34375,-4.703125
1664563130825,0.34887695,-1.2339478,0.109558105,-2.90625,-0.21875,1.21875
1664563130839,0.27319336,-0.88409424,0.026062012,-3.6875,-5.203125,-3.3125
1664563130885,0.17480469,-0.8670044,0.042419434,6.484375,-18.609375,9.1875
1664563130945,0.15161133,-0.9561157,0.22235107,1.25,-21.609375,11.484375
1664563130959,0.029052734,-0.96099854,0.22918701,12.890625,-21.28125,5.734375
1664563131008,-0.11352539,-0.8743286,0.26263428,11.0,-10.84375,7.671875
1664563131035,-0.025878906,-0.78253174,0.17279053,4.5,-5.71875,7.71875
1664563131079,0.04663086,-0.70196533,0.121276855,2.453125,-3.453125,6.890625
1664563131125,-0.02734375,-0.73223877,0.15472412,4.25,-3.234375,3.703125
1664563131155,-0.032470703,-0.8538208,0.184021,-4.546875,-3.578125,6.03125
1664563131200,0.026855469,-0.91851807,0.21478271,-0.53125,0.578125,8.140625
1664563131246,0.026855469,-0.9939575,0.29534912,1.640625,10.875,3.296875
1664563131274,0.05908203,-1.1204224,0.35809326,4.109375,9.640625,3.0
1664563131320,0.11010742,-1.1936646,0.35784912,0.5625,14.09375,0.375
1664563131367,0.004638672,-1.3130493,0.3065796,-8.59375,13.5625,-7.71875
1664563131395,0.11816406,-1.5891724,0.27557373,-13.796875,-3.15625,-5.296875
1664563131442,0.24829102,-1.2781372,0.08416748,-0.25,-3.8125,-4.203125
1664563131485,0.012207031,-0.84210205,-0.07574463,4.203125,12.765625,-8.296875
1664563131545,-0.05126953,-0.6565552,-0.06378174,-8.453125,12.6875,-16.78125
1664563131559,0.16503906,-0.83795166,0.03753662,-2.78125,16.046875,-1.375
1664563131608,0.2163086,-0.829895,0.101257324,27.359375,5.921875,-4.015625
1664563131634,0.004638672,-0.77667236,0.10638428,9.3125,5.109375,-7.0625
1664563131679,-0.11352539,-0.8206177,0.18841553,6.359375,-3.25,-4.96875
1664563131728,-0.02709961,-0.74224854,0.043395996,12.875,-4.5,0.484375
1664563131785,-0.0078125,-0.8508911,0.086364746,3.9375,-3.75,-2.421875
1664563131787,-0.03955078,-0.89019775,0.12884521,7.96875,-8.515625,1.46875
1664563131845,-0.05493164,-0.97003174,0.19598389,8.328125,-6.203125,0.625
1664563131875,-0.14672852,-1.041565,0.20135498,4.296875,-1.375,-1.453125
1664563131904,-0.20898438,-1.1712036,0.23822021,-2.609375,15.296875,-2.03125
1664563131966,-0.08862305,-1.3045044,0.28533936,-0.609375,6.390625,-4.15625
1664563131994,-0.08569336,-1.1936646,0.2531128,-3.9375,9.359375,-2.40625
1664563132025,-0.032470703,-1.1707153,0.18621826,-15.296875,3.15625,-3.46875
1664563132085,0.24926758,-1.3838501,0.11883545,-23.421875,-4.640625,-3.21875
1664563132102,0.3149414,-0.986145,0.06439209,-12.796875,-4.703125,-1.796875
1664563132145,0.12207031,-0.86676025,0.057556152,-11.78125,-7.859375,-3.3125
1664563132205,0.087402344,-0.89141846,0.14764404,0.234375,-15.25,7.4375
1664563132220,0.10473633,-0.9109497,0.14837646,1.140625,-10.78125,3.671875
1664563132265,-0.0637207,-0.8814087,0.20574951,0.21875,-7.15625,4.328125
1664563132328,-0.03857422,-0.7932739,0.24090576,-7.390625,-6.953125,7.296875
1664563132339,0.0234375,-0.76568604,0.16644287,-5.09375,-2.578125,8.546875
1664563132384,0.021484375,-0.76348877,0.21624756,-7.171875,1.453125,6.34375
1664563132445,-0.012451172,-0.86724854,0.2826538,-8.65625,3.46875,6.9375
1664563132459,-0.05053711,-0.93951416,0.3414917,-9.28125,8.875,8.796875
1664563132505,0.018066406,-0.90460205,0.30169678,-4.34375,20.0,7.4375
1664563132534,0.084228516,-1.0808716,0.34906006,-9.203125,12.6875,3.15625
1664563132580,0.14526367,-1.1062622,0.6083374,9.046875,11.40625,-6.015625
1664563132626,-0.018066406,-1.116272,0.36346436,0.21875,0.828125,-11.21875
1664563132656,0.2097168,-1.3552856,0.28607178,-16.53125,-12.859375,-4.265625
1664563132699,0.29760742,-1.2459106,0.08758545,5.15625,-7.765625,-3.046875
1664563132745,-0.018798828,-0.86016846,0.06976318,-0.53125,8.890625,-9.203125
1664563132775,-0.0107421875,-0.8843384,0.0770874,-0.1875,6.03125,-6.171875
1664563132820,0.14526367,-0.9351196,0.15374756,4.8125,3.78125,1.671875
1664563132866,0.083496094,-0.9365845,0.18914795,17.71875,-0.328125,-4.265625
1664563132894,-0.012939453,-0.87823486,0.22064209,4.921875,1.140625,-3.46875
1664563132940,-0.04736328,-0.8272095,0.15740967,6.53125,-2.453125,-2.234375
1664563132984,-0.04296875,-0.7918091,0.14666748,7.546875,-3.03125,-3.84375
1664563133016,-0.0012207031,-0.81744385,0.16571045,7.390625,-6.203125,-1.53125
1664563133059,0.02709961,-0.80718994,0.18231201,11.609375,-5.359375,0.015625
1664563133104,-0.0068359375,-0.8711548,0.21820068,7.921875,-5.453125,1.390625
1664563133134,-0.059814453,-0.9307251,0.18719482,10.90625,-8.828125,0.3125
1664563133181,-0.09838867,-1.0418091,0.2267456,5.4375,-12.84375,-0.359375
1664563133225,-0.09887695,-1.1409302,0.34539795,-0.484375,-7.609375,0.203125
1664563133255,-0.22558594,-1.1983032,0.3397827,1.234375,3.40625,-5.15625
1664563133284,-0.22143555,-1.2310181,0.33294678,-8.53125,8.703125,-2.703125
1664563133345,7.324219E-4,-1.4439087,0.1005249,-30.328125,12.90625,-5.75
1664563133375,0.27661133,-1.2141724,0.17767334,-10.28125,6.203125,2.34375
1664563133405,0.4482422,-0.85723877,0.015808105,3.15625,-14.8125,0.546875
1664563133464,0.11816406,-0.89801025,0.16229248,-0.546875,-14.40625,-2.609375
1664563133496,-0.045410156,-1.0244751,0.20306396,5.03125,-23.671875,2.09375
1664563133525,0.01586914,-0.93170166,0.19647217,17.78125,-11.1875,3.109375
1664563133602,-0.025634766,-0.8543091,0.2518921,-3.046875,-3.1875,0.640625
1664563133604,-0.053710938,-0.8296509,0.2033081,5.625,-1.03125,4.390625
1664563133645,0.022216797,-0.7305298,0.1618042,2.9375,-3.453125,6.6875
1664563133705,-0.049072266,-0.7329712,0.1515503,-4.421875,2.203125,5.265625
1664563133719,-0.033447266,-0.78790283,0.2111206,-14.015625,2.953125,7.1875
1664563133767,0.030029297,-0.8875122,0.28875732,-11.921875,3.96875,8.875
1664563133826,-0.016845703,-0.9522095,0.35150146,-11.0625,20.8125,6.203125
1664563133840,0.04321289,-1.0276489,0.45916748,-8.921875,17.21875,4.0625
1664563133885,0.038085938,-1.173645,0.45281982,-0.859375,15.921875,0.21875
1664563133947,0.0546875,-1.291565,0.44256592,-0.59375,10.265625,-2.1875
1664563133959,0.08691406,-1.6028442,0.4232788,-16.265625,-2.984375,1.734375
1664563134005,0.20043945,-1.1265259,0.20770264,-0.9375,0.90625,-1.5
1664563134035,-0.03466797,-0.74884033,-0.050354004,1.671875,13.65625,-14.203125
1664563134080,-0.12792969,-0.8543091,0.046813965,-2.4375,25.921875,-7.703125
1664563134127,0.21435547,-0.8838501,0.11907959,5.984375,17.859375,3.484375
1664563134155,0.2619629,-0.923645,0.18963623,16.875,1.5625,-8.28125
1664563134200,0.013671875,-0.8740845,0.2514038,4.453125,2.296875,-8.765625
1664563134246,-0.14746094,-0.8362427,0.20281982,6.890625,-4.328125,-7.703125
1664563134275,-0.06347656,-0.8008423,0.20770264,9.34375,-2.421875,-2.890625
1664563134319,-0.0146484375,-0.8687134,0.20037842,10.125,-4.109375,-4.0625
1664563134365,-0.01928711,-0.829895,0.15814209,27.046875,-6.328125,-0.5
1664563134396,-0.040527344,-0.83721924,0.15814209,19.5,-8.1875,-0.109375
1664563134440,-0.12133789,-0.9807739,0.1942749,14.03125,-3.765625,-3.296875
1664563134486,-0.16333008,-1.1504517,0.2682495,11.0625,1.0625,-3.921875
1664563134515,-0.14282227,-1.2319946,0.30975342,10.171875,1.46875,-3.09375
1664563134560,-0.10546875,-1.2769165,0.1720581,0.71875,1.578125,-1.53125
1664563134605,-0.0041503906,-1.4243774,0.12176514,-14.546875,-7.53125,-0.875
1664563134635,0.23779297,-1.2625122,0.038757324,-0.859375,-3.1875,0.765625
1664563134664,0.23242188,-0.91241455,9.1552734E-4,-11.6875,-5.875,-0.03125
1664563134725,0.15966797,-0.7373657,0.02557373,-9.0,-11.15625,5.046875
1664563134755,0.037597656,-0.9043579,0.08001709,-9.6875,-11.40625,4.59375
1664563134785,0.06616211,-0.88897705,0.1749878,15.09375,-4.140625,1.53125
1664563134845,0.021484375,-0.85943604,0.15838623,-4.3125,6.25,3.046875
1664563134875,-0.0017089844,-0.81451416,0.1671753,8.859375,-0.25,6.046875
1664563134905,0.032958984,-0.7476196,0.09539795,8.78125,-6.15625,7.65625
1664563134965,0.018798828,-0.81744385,0.15740967,-0.296875,-2.859375,5.703125
1664563134995,-0.029296875,-0.90289307,0.20159912,2.625,-0.828125,7.015625
1664563135024,-0.0146484375,-0.99053955,0.19940186,2.140625,3.78125,8.75
1664563135086,0.0637207,-0.9937134,0.18109131,-0.953125,4.015625,7.984375
1664563135099,0.08154297,-1.0720825,0.19940186,-3.109375,0.25,7.3125
1664563135145,0.04736328,-1.1123657,0.3065796,-6.59375,7.671875,6.515625
1664563135205,-0.018310547,-1.2507935,0.30877686,-5.390625,0.84375,-2.859375
1664563135234,0.10595703,-1.5645142,0.3776245,-5.5625,-1.078125,-0.3125
1664563135267,0.32983398,-1.2200317,0.0060424805,-12.5625,-16.9375,7.75
1664563135325,0.053222656,-0.81329346,-0.07696533,2.90625,17.359375,-12.6875
1664563135341,0.0021972656,-0.91729736,0.019958496,-26.53125,7.265625,-5.578125
1664563135385,0.20141602,-0.92022705,0.06878662,3.578125,14.140625,-2.265625
1664563135416,0.16821289,-0.9487915,0.117126465,9.203125,3.578125,-3.078125
1664563135461,0.10107422,-0.8953247,0.19500732,-1.671875,-4.171875,-1.375
1664563135506,-0.05102539,-0.84161377,0.15057373,4.953125,-2.09375,-6.5
1664563135534,-0.09838867,-0.74420166,0.12640381,6.453125,-3.078125,-3.421875
1664563135579,0.020019531,-0.72003174,0.14056396,3.140625,-1.84375,-3.609375
1664563135624,0.03955078,-0.80133057,0.17547607,8.65625,0.234375,-4.28125
1664563135655,0.07006836,-0.895813,0.22723389,8.3125,-8.203125,-3.609375
1664563135700,-0.021728516,-1.0181274,0.24725342,3.0,-10.6875,-5.328125
1664563135745,-0.14282227,-1.0916138,0.21722412,9.9375,-5.140625,-2.984375
1664563135775,-0.12475586,-1.1421509,0.21673584,5.046875,-6.890625,-1.796875
1664563135820,-0.17285156,-1.2444458,0.28607178,-5.953125,2.03125,-3.84375
1664563135864,-0.18310547,-1.2583618,0.23773193,-11.03125,7.859375,-5.25
1664563135894,0.049316406,-1.4414673,0.17010498,-22.71875,-3.15625,-5.4375
1664563135940,0.44921875,-0.9951782,0.109558105,-5.390625,-4.5625,0.0
1664563135984,0.15454102,-0.8255005,0.050476074,-3.9375,-5.921875,-4.53125
1664563136014,0.10083008,-0.940979,0.14520264,-5.765625,-15.5,8.75
1664563136059,0.1430664,-0.9751587,0.20697021,2.0,-7.359375,4.1875
1664563136104,0.03125,-0.9151001,0.2062378,-5.953125,-1.265625,6.28125
1664563136134,0.013183594,-0.8184204,0.3078003,-7.03125,-5.90625,7.96875
1664563136165,0.0053710938,-0.74591064,0.21844482,1.359375,-4.421875,7.5
1664563136225,-0.033691406,-0.710022,0.2008667,-0.28125,-3.921875,6.15625
1664563136254,-0.05444336,-0.862854,0.2423706,-3.875,0.390625,2.859375
1664563136286,-0.03540039,-0.9168091,0.31610107,5.296875,-3.21875,7.515625
1664563136345,0.03466797,-0.8670044,0.3529663,12.390625,9.296875,4.671875
1664563136375,-0.052978516,-1.008606,0.32635498,11.171875,12.96875,-0.484375
1664563136406,0.03955078,-1.1460571,0.3756714,-0.140625,12.34375,-1.15625
1664563136465,0.15795898,-1.1445923,0.4491577,9.28125,10.640625,-4.0
1664563136496,-0.033935547,-1.1814575,0.33099365,8.1875,-0.328125,-9.921875
1664563136525,0.09790039,-1.4419556,0.1449585,-1.34375,-13.9375,1.5
1664563136584,0.24926758,-1.0447388,0.009216309,6.765625,6.578125,-3.40625
1664563136599,-0.021484375,-0.9487915,-0.17022705,-20.625,21.875,-18.25
1664563136645,0.053222656,-0.9299927,0.01727295,7.375,14.9375,4.28125
1664563136704,0.171875,-0.9397583,0.07635498,11.96875,3.5625,-3.046875
1664563136721,0.030517578,-1.0010376,0.12664795,5.421875,-2.046875,-4.953125
1664563136765,-0.020263672,-0.92559814,0.15472412,9.8125,-5.5625,-2.703125
1664563136825,-0.08178711,-0.817688,0.0758667,7.25,-0.640625,-1.796875
1664563136840,-0.059326172,-0.7842407,0.11444092,6.1875,-1.59375,-1.890625
1664563136887,0.006591797,-0.7666626,0.109313965,7.46875,2.0,-0.671875
1664563136915,-0.016845703,-0.7805786,0.10394287,10.125,-2.625,0.609375
1664563136961,-0.020019531,-0.8850708,0.16595459,4.453125,-5.890625,2.515625
1664563137004,-0.09790039,-1.0352173,0.13421631,1.609375,-5.25,1.125
1664563137035,-0.13427734,-1.1853638,0.24017334,2.171875,-2.328125,1.03125
1664563137080,-0.18359375,-1.206604,0.27215576,-5.1875,3.390625,-1.578125
1664563137124,-0.2133789,-1.2192993,0.26531982,-10.71875,5.5,-3.53125
1664563137156,0.09887695,-1.4805298,0.11541748,-26.28125,2.46875,-4.28125
1664563137201,0.31640625,-1.1687622,9.1552734E-4,-10.484375,6.703125,6.234375
1664563137245,0.3317871,-0.8545532,0.042907715,-7.625,-10.171875,0.859375
1664563137274,0.118652344,-0.8467407,0.058776855,2.875,-14.671875,3.96875
1664563137320,0.12963867,-0.9199829,0.18011475,4.078125,-15.8125,3.609375
1664563137365,-0.0043945312,-0.9536743,0.18304443,2.9375,-7.59375,3.0625
1664563137395,-0.119628906,-0.84259033,0.23846436,-0.046875,-4.578125,3.703125
1664563137439,-0.05053711,-0.72003174,0.16448975,-4.453125,1.0625,4.03125
1664563137485,0.033447266,-0.69000244,0.1281128,-12.03125,1.609375,7.0
1664563137515,0.041992188,-0.7896118,0.19354248,-13.421875,7.140625,7.21875
1664563137560,0.036376953,-0.913147,0.28533936,-8.296875,6.84375,9.890625
1664563137606,0.12158203,-0.99835205,0.3139038,-10.09375,3.09375,8.703125
1664563137634,0.100097656,-1.0535278,0.43572998,10.640625,10.546875,6.34375
1664563137665,-0.04638672,-1.0264282,0.4755249,6.484375,11.1875,-4.59375
1664563137725,0.11303711,-1.2495728,0.43914795,-9.671875,-2.9375,0.109375
1664563137756,0.1550293,-1.4480591,0.45135498,-4.421875,-3.59375,-3.40625
1664563137785,0.20019531,-1.3953247,0.14593506,-29.609375,-11.640625,10.546875
1664563137847,0.033447266,-0.9780884,-0.007385254,1.015625,24.953125,-6.71875
1664563137875,0.07373047,-0.75128174,0.050476074,-4.109375,10.984375,-14.34375
1664563137905,0.1887207,-0.8596802,0.11541748,0.203125,16.625,3.90625
1664563137965,0.17822266,-0.94073486,0.17376709,15.359375,-7.875,-10.953125
1664563137995,0.087402344,-0.7979126,0.19378662,14.546875,-4.953125,-2.40625
1664563138024,-0.08984375,-0.76226807,0.18206787,13.390625,-16.6875,-7.40625
1664563138085,-0.0925293,-0.7319946,0.070251465,20.40625,-7.75,-1.21875
1664563138145,-0.0126953125,-0.7715454,0.15863037,7.640625,0.703125,-3.65625
1664563138147,-0.01171875,-0.88116455,0.1918335,16.5625,-0.6875,-0.546875
1664563138206,-0.028076172,-0.90802,0.12591553,17.859375,2.21875,1.078125
1664563138220,-0.06274414,-1.0376587,0.18670654,1.6875,2.796875,-5.640625
1664563138265,-0.05859375,-1.1182251,0.24603271,11.65625,-2.015625,-3.578125
1664563138325,-0.13696289,-1.2212524,0.26849365,4.703125,0.546875,-6.546875
1664563138340,-0.21118164,-1.2449341,0.28167725,1.515625,3.140625,-4.640625
1664563138388,-0.11987305,-1.2920532,0.19915771,-8.96875,5.625,-8.015625
1664563138415,0.08154297,-1.489563,0.18865967,-18.75,3.71875,-13.171875
1664563138459,0.30786133,-1.097229,0.0053100586,-20.5625,1.171875,-8.671875
1664563138519,0.3857422,-0.7632446,-0.050598145,-19.703125,-2.015625,-1.921875
1664563138566,0.13842773,-0.8274536,0.14935303,4.546875,-9.171875,4.609375
1664563138580,-0.123046875,-0.9624634,0.22845459,6.5625,-9.203125,-0.078125
1664563138625,-0.08935547,-0.8858032,0.18914795,6.140625,6.171875,2.03125
1664563138658,-0.008056641,-0.7817993,0.24945068,3.671875,1.578125,5.484375
1664563138700,0.055419922,-0.7461548,0.13763428,5.390625,-2.46875,10.015625
1664563138745,-0.0075683594,-0.7642212,0.14251709,5.859375,-2.875,9.25
1664563138774,-0.06958008,-0.835022,0.19891357,4.84375,0.03125,8.484375
1664563138820,-0.12866211,-0.925354,0.2218628,-2.453125,8.515625,6.46875
1664563138864,0.040527344,-1.0198364,0.2670288,-4.46875,14.96875,9.0
1664563138894,0.14892578,-1.0383911,0.2819214,2.84375,19.71875,6.90625
1664563138940,0.01977539,-1.0874634,0.39398193,-0.859375,33.359375,-1.015625
1664563138984,0.09692383,-1.1900024,0.38763428,0.796875,10.53125,0.453125
1664563139015,0.123535156,-1.4824829,0.4459839,-10.09375,4.796875,-2.59375
1664563139059,0.3166504,-1.2942505,0.097839355,-8.046875,-10.125,5.0625
1664563139104,0.11010742,-0.87750244,-0.18292236,-15.0,4.78125,-8.34375
1664563139136,-0.1628418,-0.8430786,-0.004211426,-14.734375,12.671875,-7.59375
1664563139165,0.06689453,-0.9524536,0.10101318,20.75,4.078125,5.25
1664563139225,0.25317383,-0.9463501,0.22259521,13.4375,-6.25,-0.953125
1664563139256,0.048339844,-0.8814087,0.17376709,-3.703125,-6.109375,-5.78125
1664563139285,-0.15234375,-0.83966064,0.12005615,11.6875,-8.859375,-5.015625
1664563139345,-0.029785156,-0.72076416,0.09197998,8.203125,-8.71875,-1.53125
1664563139375,-0.014404297,-0.7632446,0.12713623,1.59375,1.15625,-4.390625
1664563139405,-0.010009766,-0.80255127,0.14202881,7.65625,-5.3125,-0.296875
1664563139464,-0.04736328,-0.89727783,0.22088623,4.03125,-4.375,2.078125
1664563139479,-0.049316406,-0.98638916,0.22821045,9.90625,-7.390625,2.640625
1664563139526,-0.06762695,-1.0986938,0.23504639,2.078125,-4.5625,0.484375
1664563139585,-0.060791016,-1.2078247,0.2850952,-3.078125,-7.140625,1.515625
1664563139599,-0.30688477,-1.2371216,0.38153076,3.90625,1.6875,-2.234375
1664563139645,-0.1159668,-1.2644653,0.22039795,-14.53125,6.828125,-3.53125
1664563139705,0.16015625,-1.4094849,0.04925537,-11.546875,16.90625,0.546875
1664563139719,0.42871094,-1.0271606,0.008239746,-12.765625,1.8125,-1.59375
1664563139765,0.24926758,-0.8743286,0.07122803,-3.5,-4.609375,0.484375
1664563139826,0.10839844,-0.89971924,0.06488037,2.515625,-16.75,8.0
1664563139839,0.07470703,-0.9397583,0.18182373,1.96875,-5.46875,2.171875
1664563139885,0.005859375,-0.93170166,0.23822021,1.28125,-4.484375,3.234375
1664563139915,0.0637207,-0.85894775,0.22259521,-2.65625,-7.546875,6.359375
1664563139960,0.08154297,-0.7632446,0.20819092,5.546875,-6.671875,6.484375
1664563140005,0.03100586,-0.73760986,0.21697998,13.75,-4.59375,7.3125
1664563140035,0.0043945312,-0.77716064,0.17474365,12.609375,-6.609375,8.5625
1664563140081,0.05493164,-0.8858032,0.19940186,6.0625,-2.140625,8.328125
1664563140125,0.103271484,-0.9907837,0.24847412,-0.390625,-0.46875,7.34375
1664563140155,0.09765625,-1.0896606,0.32733154,15.78125,8.296875,7.328125
1664563140199,0.05493164,-1.1724243,0.2662964,5.453125,2.140625,4.4375
1664563140246,0.118896484,-1.2444458,0.37371826,12.125,-0.984375,-3.046875
1664563140275,0.005859375,-1.4732056,0.277771,0.03125,-0.40625,-9.859375
1664563140320,0.2685547,-1.289856,-0.10406494,-0.65625,-24.359375,7.40625
1664563140367,0.2055664,-0.8477173,-0.12286377,11.796875,10.296875,-9.359375
1664563140395,0.042236328,-0.8652954,-0.05230713,-23.96875,6.3125,-14.5
1664563140442,0.1640625,-0.98931885,0.058532715,3.671875,8.5625,0.5625
1664563140486,0.13061523,-0.97369385,0.04437256,18.703125,-0.015625,-6.15625
1664563140545,0.014404297,-0.9146118,0.12957764,4.890625,0.046875,-3.65625
1664563140559,-0.052246094,-0.83184814,0.042907715,2.15625,-4.453125,-7.421875
1664563140607,-0.041015625,-0.74713135,0.043151855,8.296875,2.140625,-5.4375
1664563140635,0.0087890625,-0.7493286,0.07171631,6.234375,1.265625,-3.84375
1664563140665,-0.017822266,-0.8106079,0.06854248,12.671875,-0.09375,-1.75
1664563140725,-0.03857422,-0.90704346,0.0836792,9.5,-6.21875,0.015625
1664563140755,-0.018310547,-1.0066528,0.1149292,10.046875,-4.40625,-0.234375
1664563140788,-0.111083984,-1.1760864,0.16912842,2.828125,-0.734375,-1.71875
1664563140845,-0.19189453,-1.2520142,0.23675537,0.3125,6.484375,-3.453125
1664563140875,-0.15478516,-1.1956177,0.20013428,-6.875,8.953125,-4.484375
1664563140904,-0.013671875,-1.3374634,-0.027404785,-20.359375,2.21875,-7.328125
1664563140964,0.3125,-1.3074341,-0.13336182,-11.09375,7.109375,1.234375
1664563140979,0.35913086,-0.9314575,-0.018371582,-8.796875,-9.625,2.265625
1664563141025,0.1159668,-0.8225708,0.006286621,-5.4375,-11.4375,1.25
1664563141086,0.01586914,-0.94781494,0.09539795,1.25,-14.234375,4.75
1664563141099,0.05444336,-0.9246216,0.12689209,6.453125,-5.96875,1.296875
1664563141145,-0.0041503906,-0.9475708,0.17401123,-8.765625,-5.296875,2.625
1664563141205,-0.010253906,-0.88116455,0.16668701,1.578125,-4.40625,7.484375
1664563141221,0.032958984,-0.8118286,0.14984131,-1.765625,-4.125,6.203125
1664563141265,0.013916016,-0.8491821,0.1798706,0.265625,-2.609375,4.609375
1664563141325,-0.061523438,-0.9717407,0.1618042,-8.0625,-1.734375,5.6875
1664563141339,0.017822266,-1.0239868,0.25457764,-12.875,-6.484375,5.015625
1664563141400,0.0029296875,-0.9734497,0.2514038,-5.109375,10.65625,0.25
1664563141415,0.036621094,-1.1177368,0.2723999,-11.375,7.984375,-2.453125
1664563141460,0.12670898,-1.0994263,0.3637085,-12.203125,6.375,-3.3125
1664563141505,-0.0107421875,-1.0127563,0.27020264,-2.390625,6.171875,-8.578125
1664563141535,0.10986328,-1.3699341,0.22088623,-18.0,-3.453125,-10.0625
1664563141580,0.17602539,-1.0171509,-0.0020141602,-4.65625,7.328125,0.921875
1664563141625,-0.045410156,-0.8218384,-0.061584473,-7.890625,14.828125,-12.546875
1664563141656,-0.008544922,-1.0154419,0.093688965,0.625,10.546875,-1.546875
1664563141699,0.13745117,-1.0186157,0.18426514,14.71875,9.5,4.15625
1664563141746,0.040039062,-0.9336548,0.18304443,4.765625,5.984375,-2.34375
1664563141775,-0.08178711,-0.9356079,0.2230835,5.0,4.90625,-3.59375
1664563141820,-0.035888672,-0.8579712,0.1449585,5.21875,1.546875,-1.140625
1664563141864,0.034179688,-0.7788696,0.16595459,6.59375,3.171875,0.25
1664563141895,-0.0075683594,-0.8101196,0.18157959,3.390625,0.359375,-1.59375
1664563141940,-0.080566406,-0.85650635,0.18060303,8.359375,-1.53125,-2.15625
1664563141985,-0.13574219,-0.97613525,0.2543335,6.265625,3.359375,-2.8125
1664563142017,-0.10620117,-1.0950317,0.26483154,9.40625,4.484375,-1.75
1664563142060,-0.079833984,-1.1621704,0.27923584,5.359375,7.390625,0.78125
1664563142104,-0.13916016,-1.163147,0.2850952,-0.296875,8.125,0.90625
1664563142135,-0.17407227,-1.1729126,0.26898193,-6.90625,16.390625,-1.4375
1664563142165,-0.03515625,-1.3518677,0.17840576,-20.390625,11.703125,-4.3125
1664563142224,0.5187988,-1.1853638,0.047302246,-8.21875,-0.9375,5.859375
1664563142255,0.34155273,-0.87042236,0.10394287,-0.984375,-7.140625,-0.4375
1664563142284,0.13745117,-0.87457275,0.018737793,4.203125,-23.703125,5.03125
1664563142345,0.15527344,-0.940979,0.20257568,9.78125,-26.984375,6.609375
1664563142374,0.024414062,-1.0061646,0.23797607,11.6875,-16.671875,6.515625
1664563142404,-0.038085938,-0.83184814,0.22479248,16.734375,-20.59375,10.625
1664563142464,-0.016113281,-0.72662354,0.13470459,6.0,-10.28125,5.21875
1664563142480,-0.053222656,-0.74542236,0.13128662,1.671875,-0.90625,5.1875
1664563142526,-0.022949219,-0.8140259,0.18865967,1.28125,3.5,7.609375
1664563142585,-0.001953125,-0.9126587,0.25213623,4.046875,3.609375,5.8125
1664563142600,-0.013916016,-1.0496216,0.28607178,1.4375,9.5625,5.734375
1664563142645,0.17602539,-1.1289673,0.30023193,5.6875,8.359375,5.640625
1664563142704,0.14746094,-1.1856079,0.38763428,-3.6875,13.75,-3.8125
1664563142719,-0.0063476562,-1.1521606,0.3163452,7.140625,1.421875,-11.359375
1664563142765,0.07543945,-1.4414673,0.1852417,-7.75,-6.171875,-6.875
1664563142825,0.2783203,-1.117981,0.055847168,-0.046875,-17.03125,2.0625
1664563142839,-0.045166016,-0.8308716,-0.18023682,-0.78125,16.765625,-15.78125
1664563142886,-0.033935547,-0.88238525,-0.07183838,-26.390625,11.703125,-3.5625
1664563142960,0.13769531,-0.94781494,0.058776855,10.625,18.296875,-2.546875
1664563142962,0.09423828,-0.9841919,0.08294678,14.515625,4.5,-2.40625
1664563143005,0.041503906,-0.9873657,0.1486206,-3.546875,1.5,-3.265625
1664563143035,-0.015380859,-0.95880127,0.10076904,-1.25,2.0,-4.796875
1664563143079,-0.00390625,-0.8394165,0.11273193,-0.578125,-0.453125,-3.625
1664563143126,0.0034179688,-0.84332275,0.15374756,1.625,0.03125,-1.890625
1664563143155,-0.012939453,-0.8311157,0.14276123,7.9375,-2.390625,0.921875
1664563143201,-0.025146484,-0.8381958,0.1954956,7.96875,-7.0625,1.71875
1664563143245,-0.103027344,-0.8897095,0.18426514,9.09375,-7.859375,3.921875
1664563143274,-0.06640625,-1.03302,0.23699951,5.859375,-3.03125,0.703125
1664563143319,-0.10546875,-1.0618286,0.33685303,5.109375,2.21875,-1.8125
1664563143365,-0.26831055,-1.0877075,0.21868896,-12.125,4.71875,-5.515625
1664563143395,-0.13964844,-1.2451782,0.24383545,-18.390625,1.859375,-3.75
1664563143440,0.15649414,-1.5181274,0.13104248,-22.265625,8.0625,-3.796875
1664563143488,0.36108398,-1.0964966,0.074157715,-11.640625,1.65625,3.3125
1664563143514,0.27294922,-0.88116455,0.073913574,-15.3125,-3.484375,-1.359375
1664563143560,0.14379883,-0.87286377,0.13226318,-1.96875,-11.40625,9.96875
1664563143605,0.107910156,-0.8850708,0.21185303,4.3125,-13.421875,5.03125
1664563143635,-0.0068359375,-0.9265747,0.2111206,-0.5,-3.40625,5.640625
1664563143664,-0.017578125,-0.8418579,0.2477417,1.90625,-0.15625,6.40625
1664563143726,0.01928711,-0.78009033,0.24578857,1.1875,-0.609375,7.578125
1664563143757,0.03149414,-0.770813,0.20281982,2.390625,3.375,8.34375
1664563143785,0.0075683594,-0.81622314,0.25213623,-2.671875,6.484375,7.296875
1664563143845,0.059570312,-0.9109497,0.30511475,-1.390625,7.484375,8.125
1664563143876,0.083984375,-0.8855591,0.33709717,-4.09375,16.734375,5.8125
1664563143904,0.080566406,-0.9109497,0.25506592,-1.953125,28.546875,3.9375
1664563143965,0.096191406,-1.0383911,0.40472412,-5.515625,19.875,0.65625
1664563143980,0.1303711,-1.1890259,0.494812,-3.078125,15.546875,-5.453125
1664563144025,0.052978516,-1.3374634,0.3768921,-11.875,6.5,-9.125
1664563144087,0.2861328,-1.5840454,0.37005615,-14.125,-3.953125,4.125
1664563144100,0.19873047,-1.0366821,0.12689209,5.078125,4.71875,-5.8125
1664563144144,-0.048095703,-0.7539673,-0.051330566,-9.0625,11.828125,-12.640625
1664563144205,0.16601562,-0.82891846,0.09954834,3.609375,12.765625,-3.84375
1664563144220,0.2434082,-0.8928833,0.26239014,5.40625,9.078125,-4.90625
1664563144265,0.045166016,-0.8982544,0.17425537,8.578125,-4.40625,-12.171875
1664563144294,-0.029785156,-0.8442993,0.26312256,-0.328125,0.59375,-4.21875
1664563144340,-0.033447266,-0.79815674,0.22894287,6.734375,-3.1875,-7.75
1664563144385,-0.0034179688,-0.78448486,0.18988037,10.015625,-0.1875,-4.90625
1664563144415,0.005126953,-0.8015747,0.19769287,8.15625,-1.65625,-2.625
1664563144460,-0.03491211,-0.8621216,0.2489624,6.3125,-8.171875,-4.328125
1664563144505,-0.10595703,-0.944397,0.3361206,9.796875,-3.796875,-5.5625
1664563144535,-0.12695312,-1.08844,0.19500732,12.234375,-12.46875,-3.375
1664563144580,0.111816406,-1.1677856,0.3776245,16.203125,-17.0625,-3.6875
1664563144625,-0.15625,-1.1626587,0.291687,7.484375,-3.296875,-10.109375
1664563144655,-0.1508789,-1.1697388,0.23114014,-8.59375,-5.296875,-3.609375
1664563144699,0.17944336,-1.3325806,0.199646,-7.0,-12.21875,-1.34375
1664563144745,0.21923828,-1.1182251,0.057556152,4.546875,-11.03125,1.640625
1664563144776,0.29467773,-0.8892212,0.066833496,-0.21875,-6.34375,1.453125
1664563144819,0.111572266,-0.8904419,0.08929443,3.125,-7.703125,3.171875
1664563144865,0.12670898,-0.92071533,0.11981201,15.34375,-12.875,7.640625
1664563144895,0.084228516,-0.94073486,0.21356201,9.625,-5.3125,0.40625
1664563144940,0.043945312,-0.923645,0.16229248,14.390625,-8.109375,5.0
1664563144984,0.03955078,-0.79522705,0.109069824,8.828125,-5.5625,4.65625
1664563145016,0.0012207031,-0.76153564,0.08929443,7.859375,-8.0,6.203125
1664563145044,-0.040039062,-0.8164673,0.105895996,-2.03125,-5.25,5.453125
1664563145104,-0.05517578,-0.93927,0.21868896,-2.421875,-2.53125,8.15625
1664563145135,-0.05834961,-0.97662354,0.21673584,2.75,5.125,8.1875
1664563145164,0.036132812,-1.0166626,0.19622803,-1.03125,9.484375,9.171875
1664563145225,0.080078125,-1.1192017,0.2609253,4.9375,7.359375,5.125
1664563145255,0.06274414,-1.175354,0.29437256,2.234375,14.53125,-0.75
1664563145285,-0.026855469,-1.3062134,0.22821045,-11.390625,9.96875,-8.796875
1664563145345,0.23852539,-1.5806274,0.20404053,-21.8125,3.46875,0.125
1664563145375,0.30297852,-1.1126099,-0.13677979,-11.5,-0.375,4.71875
1664563145406,-0.026855469,-0.77349854,-0.20074463,-5.5625,20.734375,-14.609375
1664563145480,0.048339844,-0.87945557,-0.01373291,-26.375,6.8125,-6.15625
1664563145482,0.18676758,-0.9221802,0.10760498,8.109375,8.640625,0.3125
1664563145526,0.087890625,-0.8323364,0.04876709,16.046875,-2.75,-6.546875
1664563145584,0.024658203,-0.8579712,0.13153076,-1.484375,-9.828125,-4.84375
1664563145600,-0.052490234,-0.79888916,0.13690186,9.859375,-6.546875,-3.53125
1664563145646,-0.055664062,-0.7727661,0.07879639,8.359375,-4.640625,-0.484375
1664563145705,-0.009277344,-0.82110596,0.06341553,5.53125,-6.1875,1.203125
1664563145735,-0.018066406,-0.8225708,0.1408081,10.046875,-5.796875,2.515625
1664563145764,-0.057128906,-0.8867798,0.13201904,5.71875,-6.578125,1.4375
1664563145795,-0.088134766,-1.0193481,0.16326904,4.484375,-7.46875,1.640625
1664563145843,-0.049804688,-1.0630493,0.1942749,10.296875,-7.125,2.1875
1664563145886,-0.12426758,-1.0488892,0.23699951,4.671875,-1.34375,0.1875
1664563145914,-0.09790039,-1.0601196,0.24676514,10.765625,7.84375,1.0
1664563145961,-0.19604492,-1.1817017,0.24920654,-7.046875,9.625,-3.078125
1664563146005,-0.080322266,-1.3821411,0.27947998,-25.890625,9.796875,-1.828125
1664563146034,0.08618164,-1.4561157,0.18377686,-15.515625,15.578125,0.15625
1664563146083,0.37329102,-1.1660767,-0.070617676,-16.296875,5.609375,5.25
1664563146155,0.19018555,-0.96343994,0.04827881,-23.140625,1.53125,-2.65625
1664563146157,-0.036621094,-0.89190674,0.0602417,4.71875,3.875,8.71875
1664563146200,0.2680664,-0.79522705,0.15960693,-7.546875,0.8125,5.15625
1664563146245,0.032470703,-0.97979736,0.23016357,-9.890625,9.3125,-3.234375
1664563146275,0.005859375,-0.9924927,0.23529053,-2.09375,-2.15625,5.484375
1664563146319,0.17504883,-0.8262329,0.18011475,3.359375,-4.4375,7.1875
1664563146366,0.10473633,-0.7974243,0.20428467,-2.265625,-8.328125,3.0
1664563146395,-0.001953125,-0.77545166,0.17230225,14.296875,-12.59375,9.421875
1664563146440,-0.0036621094,-0.66729736,0.20574951,17.03125,-3.25,12.0625
1664563146486,-0.03100586,-0.66778564,0.18084717,3.890625,-1.203125,7.375
1664563146515,-0.08886719,-0.73931885,0.3102417,1.65625,1.078125,6.4375
1664563146545,-0.042236328,-0.9151001,0.3859253,2.53125,6.703125,5.078125
1664563146605,-0.013427734,-1.0105591,0.41815186,6.484375,17.53125,3.125
1664563146636,0.016845703,-0.9985962,0.46600342,-4.15625,30.453125,-5.03125
1664563146666,0.057861328,-1.1956177,0.539978,-5.109375,14.46875,-4.796875
1664563146726,0.001953125,-1.2681274,0.23065186,4.0,1.84375,-5.640625
1664563146755,0.3947754,-1.6436157,0.21917725,-40.296875,-18.765625,8.0625
1664563146785,0.28149414,-0.9421997,0.22723389,13.078125,20.296875,-8.109375
1664563146845,0.10864258,-0.9434204,-0.19805908,-25.546875,-10.0,-24.734375
1664563146874,0.22680664,-0.8550415,-0.206604,-4.4375,23.703125,1.0625
1664563146905,0.25,-1.0371704,0.113464355,11.734375,8.5625,-11.25
1664563146965,0.28588867,-0.9871216,0.08758545,12.15625,0.265625,-12.90625
1664563146980,0.09057617,-0.83135986,0.13421631,10.15625,-11.078125,-10.1875
1664563147025,-0.083740234,-0.8093872,0.11907959,9.046875,-21.109375,-11.171875
1664563147085,-0.009033203,-0.78741455,0.13079834,29.046875,-20.171875,-0.703125
1664563147099,-0.03100586,-0.7810669,0.09954834,23.78125,-25.578125,-2.71875
1664563147144,0.013671875,-0.80914307,0.011169434,21.859375,-31.875,3.953125
1664563147219,-0.061523438,-0.84625244,0.08685303,2.421875,-17.515625,-0.46875
1664563147221,-0.16040039,-0.9636841,0.17938232,0.609375,-14.09375,-5.015625
1664563147265,-0.1640625,-1.072815,0.24139404,8.90625,-9.765625,-1.046875
1664563147295,-0.15600586,-1.2122192,0.43988037,-4.109375,-10.28125,0.734375
1664563147340,-0.44702148,-1.2781372,0.42059326,1.9375,-2.546875,-4.65625
1664563147385,-0.17138672,-1.3482056,0.1593628,-10.53125,-15.546875,7.796875
1664563147415,-0.0024414062,-1.2161255,0.19915771,-8.234375,10.515625,11.6875
1664563147460,0.26953125,-1.3442993,-0.101379395,-27.015625,0.5625,-2.078125
1664563147506,0.32104492,-1.2307739,-0.13482666,-9.578125,9.859375,4.609375
1664563147535,0.28442383,-1.0808716,-0.07965088,-19.078125,0.984375,-8.484375
1664563147580,0.4633789,-1.0027466,-0.059143066,-17.40625,-5.234375,3.578125
1664563147626,0.3918457,-0.87945557,0.07879639,-7.765625,-12.34375,0.515625
1664563147655,0.103027344,-0.9824829,0.105163574,-11.375,-4.96875,4.109375
1664563147700,0.041015625,-0.96295166,0.20037842,9.8125,-3.640625,5.609375
1664563147745,0.04638672,-0.850647,0.18206787,3.125,3.625,0.703125
1664563147819,9.765625E-4,-0.8284302,0.2008667,-7.671875,5.53125,-0.171875
1664563147823,-0.028564453,-0.80963135,0.19622803,-3.140625,11.921875,0.203125
1664563147865,0.032470703,-0.7402954,0.18377686,-6.71875,11.765625,5.078125
1664563147895,0.055908203,-0.8074341,0.21282959,-14.921875,16.09375,5.171875
1664563147940,0.080322266,-0.9429321,0.29071045,-15.921875,18.90625,3.734375
1664563147985,0.09863281,-0.97247314,0.340271,0.71875,21.046875,4.046875
1664563148014,0.15161133,-1.0071411,0.39520264,3.40625,17.46875,-1.03125
1664563148045,0.0793457,-1.1211548,0.39837646,7.09375,16.765625,-6.8125
1664563148106,0.20141602,-1.2871704,0.34100342,-14.0,-0.421875,-0.5625
1664563148134,0.38867188,-1.4859009,0.23651123,-12.203125,-8.765625,5.84375
1664563148165,0.10839844,-1.0603638,0.093444824,20.40625,6.5625,-6.640625
1664563148225,-0.11694336,-0.7359009,-0.031799316,-13.078125,9.109375,-17.09375
1664563148254,0.06201172,-0.9002075,0.11395264,1.640625,19.890625,0.421875
1664563148285,0.19213867,-0.97125244,0.19989014,6.25,4.484375,-6.484375
1664563148344,0.09033203,-0.81915283,0.16131592,15.625,-2.546875,-3.578125
1664563148375,0.06689453,-0.7214966,0.21429443,-4.359375,-5.109375,-0.5625
1664563148405,-0.06616211,-0.7756958,0.113220215,4.78125,-7.359375,-6.859375
1664563148465,0.0063476562,-0.8206177,0.1696167,8.890625,-10.328125,-1.890625
1664563148480,0.048583984,-0.8850708,0.20941162,19.4375,-10.75,-3.953125
1664563148526,-0.040039062,-0.94073486,0.2477417,25.359375,-21.078125,-4.40625
1664563148585,-0.08691406,-1.0698853,0.16009521,29.96875,-24.8125,0.546875
1664563148603,-0.052734375,-1.1277466,0.19378662,23.5625,-14.03125,1.421875
1664563148645,-0.09790039,-1.131897,0.25457764,8.5625,0.0,-5.4375
1664563148705,-0.21240234,-1.12677,0.24017334,5.703125,4.21875,-6.484375
1664563148720,-0.057861328,-1.2315063,-0.0071411133,-17.578125,3.75,-4.59375
1664563148767,0.16235352,-1.3821411,0.018737793,-19.484375,4.890625,-7.21875
1664563148796,0.3173828,-0.97979736,0.070739746,-6.734375,3.125,2.21875
1664563148842,0.21606445,-0.83258057,0.0211792,0.375,8.203125,9.03125
1664563148884,0.12011719,-0.97540283,0.0770874,-0.03125,-5.078125,7.921875
1664563148917,0.08325195,-1.0222778,0.215271,4.75,2.171875,3.109375
1664563148960,-0.015136719,-0.9690552,0.21087646,1.546875,6.609375,3.34375
1664563149005,-0.0048828125,-0.85357666,0.13421631,7.859375,-0.234375,6.25
1664563149038,0.033447266,-0.75177,0.08514404,8.53125,-1.015625,5.234375
1664563149080,0.009277344,-0.769104,0.13323975,9.546875,2.875,7.5
1664563149128,0.064453125,-0.8088989,0.13812256,0.921875,4.609375,8.859375
1664563149155,0.034423828,-0.8892212,0.1071167,2.625,7.25,9.125
1664563149200,0.1887207,-1.0825806,0.15423584,-7.609375,-2.390625,8.1875
1664563149246,0.041748047,-1.1074829,0.41864014,2.609375,20.953125,5.671875
1664563149276,-0.03955078,-1.2490845,0.27923584,-0.65625,9.515625,3.640625
1664563149320,0.111083984,-1.2498169,0.30389404,-0.109375,1.265625,-6.359375
1664563149367,0.26220703,-1.461731,0.20428467,-9.203125,-1.625,-5.34375
1664563149395,0.31420898,-1.2095337,-0.22491455,-8.40625,-2.75,-5.140625
1664563149440,-0.11694336,-0.7720337,-0.09698486,7.59375,25.515625,-20.09375
1664563149486,0.13867188,-0.8049927,-0.08111572,-24.984375,3.84375,-7.703125
1664563149515,0.3623047,-0.94781494,-0.04815674,-7.0,3.734375,-0.03125
1664563149544,0.09423828,-0.9187622,0.06536865,15.234375,-12.703125,-4.984375
1664563149605,-0.09033203,-0.86724854,0.12982178,-3.953125,-10.625,-2.390625
1664563149638,-0.095458984,-0.8267212,0.09588623,0.890625,-7.015625,-4.84375
1664563149665,-0.083496094,-0.81744385,0.11004639,6.875,-2.265625,-4.09375
1664563149724,-0.041748047,-0.82940674,0.105163574,7.421875,-2.3125,-0.8125
1664563149754,-0.017822266,-0.83721924,0.10321045,4.765625,-5.65625,-0.59375
1664563149787,0.028808594,-0.88482666,0.13446045,10.0625,-6.46875,2.65625
1664563149845,-0.029785156,-1.050354,0.13128662,4.828125,-6.46875,2.015625
1664563149860,-0.0847168,-1.2251587,0.21331787,1.453125,-4.34375,1.5625
1664563149906,-0.1418457,-1.2354126,0.3690796,-1.796875,1.21875,1.046875
1664563149966,-0.10473633,-1.2046509,0.32635498,-14.15625,6.75,-0.203125
1664563149980,-0.0063476562,-1.2293091,-0.047668457,-33.453125,0.1875,-5.234375
1664563150026,0.16088867,-1.3396606,0.062927246,-15.140625,7.5,3.71875
1664563150085,0.53686523,-0.94317627,0.14837646,-8.828125,-3.359375,-5.875
1664563150099,0.084228516,-0.86724854,-0.06304932,-12.703125,-2.71875,-5.3125
1664563150145,0.03125,-0.87945557,0.08099365,-2.9375,-12.328125,13.078125
1664563150205,0.17700195,-0.91192627,0.2555542,4.734375,-9.359375,0.921875
1664563150219,0.014404297,-0.9390259,0.20941162,-12.0,-2.1875,0.21875
1664563150264,0.0146484375,-0.77593994,0.23431396,-1.734375,-9.375,9.34375
1664563150294,0.08496094,-0.7385864,0.23944092,0.78125,-5.0625,6.140625
1664563150340,0.009521484,-0.786438,0.25604248,0.390625,-2.15625,4.859375
1664563150385,-0.02319336,-0.8550415,0.28118896,-7.46875,1.40625,7.796875
1664563150445,0.06347656,-0.84698486,0.3319702,-12.484375,-1.328125,7.609375
1664563150460,-0.04321289,-0.91412354,0.34832764,8.03125,12.0,3.453125
1664563150506,0.05053711,-1.0288696,0.36444092,-3.140625,10.421875,6.703125
1664563150550,0.11743164,-1.1973267,0.5084839,1.40625,12.5,1.765625
1664563150580,0.025634766,-1.2666626,0.5380249,4.640625,7.84375,-7.703125
1664563150625,0.075683594,-1.5401001,0.3908081,-4.84375,-0.78125,-4.53125
1664563150658,0.38208008,-1.342102,0.11444092,-19.484375,-9.890625,8.109375
1664563150700,0.123535156,-0.76446533,-0.0051879883,4.0625,8.5,-14.75
1664563150745,0.0075683594,-0.8357544,0.04486084,-15.59375,9.765625,-18.109375
1664563150775,0.12695312,-0.95318604,0.055847168,-0.28125,7.109375,-0.1875
1664563150820,0.119140625,-0.9006958,0.15301514,17.5625,3.953125,-7.765625
1664563150865,0.034179688,-0.9092407,0.1954956,5.890625,0.015625,-6.9375
1664563150894,0.0068359375,-0.9067993,0.20550537,8.40625,-0.734375,-7.984375
1664563150939,-0.0043945312,-0.8023071,0.1281128,3.40625,-1.90625,-2.875
1664563150984,-0.0107421875,-0.7593384,0.19915771,2.3125,-0.578125,-2.578125
1664563151014,-0.015625,-0.8135376,0.17962646,0.484375,-1.203125,-0.59375
1664563151044,-0.045898438,-0.8255005,0.23602295,10.6875,-2.703125,-0.34375
1664563151106,-0.0871582,-0.93927,0.17889404,15.328125,-1.09375,3.59375
1664563151135,-0.024414062,-1.055481,0.26654053,10.578125,-1.859375,6.296875
1664563151165,-0.009765625,-1.203186,0.32806396,10.359375,-4.765625,0.265625
1664563151224,-0.2548828,-1.1958618,0.3619995,1.546875,-2.71875,-3.5625
1664563151255,-0.2097168,-1.197815,0.28753662,-8.484375,4.234375,-6.234375
1664563151300,-0.008544922,-1.367981,0.07489014,-22.03125,6.484375,-10.671875
1664563151345,0.31030273,-1.2095337,0.2164917,-10.859375,6.96875,-6.921875
1664563151361,0.3774414,-0.956604,0.07611084,2.09375,-0.0625,-0.765625
1664563151406,0.19262695,-0.78985596,0.050476074,3.703125,-9.0,2.96875
1664563151464,0.07128906,-0.8953247,0.16107178,-8.4375,-14.453125,4.34375
1664563151480,-0.0078125,-0.9651489,0.22161865,12.71875,-6.21875,5.6875
1664563151526,0.036132812,-0.82647705,0.24017334,3.84375,-5.21875,9.5625
1664563151585,0.042236328,-0.79351807,0.18670654,-5.0,-6.140625,7.796875
1664563151600,0.0126953125,-0.75909424,0.15325928,-1.828125,-4.296875,8.484375
1664563151646,2.4414062E-4,-0.7876587,0.18792725,-4.4375,-0.796875,7.4375
1664563151704,0.051757812,-0.85162354,0.27508545,-6.734375,-2.59375,9.328125
1664563151719,0.07421875,-0.9468384,0.37005615,-1.953125,6.640625,11.015625
1664563151766,0.037109375,-0.93218994,0.33416748,3.9375,12.859375,7.109375
1664563151794,0.07104492,-1.0703735,0.33270264,-14.109375,10.640625,11.71875
1664563151840,0.03515625,-1.1687622,0.4484253,2.6875,18.78125,3.484375
1664563151886,0.091552734,-1.1931763,0.3156128,-4.015625,10.921875,-3.5625
1664563151914,0.37719727,-1.4763794,0.39349365,-21.9375,-3.171875,2.515625
1664563151962,0.44360352,-1.2398071,0.29534912,5.546875,-17.453125,-0.875
1664563152006,0.037841797,-0.7944946,0.02166748,17.359375,-6.875,-22.1875
1664563152035,-0.06274414,-0.88897705,-0.085998535,2.15625,-7.796875,-12.359375
1664563152080,0.22265625,-0.8765259,0.05633545,13.3125,2.40625,0.875
1664563152125,0.17504883,-0.8477173,0.07537842,21.5625,-11.078125,-6.015625
1664563152155,0.0061035156,-0.8977661,0.11444092,-4.015625,-7.578125,-3.59375
1664563152200,-0.05444336,-0.9819946,0.19329834,7.40625,-12.890625,-4.640625
1664563152248,-0.09765625,-0.7959595,0.13812256,14.9375,1.59375,-3.0625
1664563152275,-0.06225586,-0.76153564,0.16595459,14.828125,4.25,-2.78125
1664563152321,0.004638672,-0.78131104,0.12615967,5.890625,-0.25,-3.09375
1664563152365,-0.03491211,-0.8670044,0.11077881,14.234375,-4.1875,-1.65625
1664563152398,-0.068115234,-0.97052,0.1876831,13.09375,0.421875,-0.59375
1664563152440,-0.091796875,-1.0830688,0.13739014,12.671875,2.171875,-6.125
1664563152486,-0.06982422,-1.1602173,0.16033936,12.609375,2.0625,-2.3125
1664563152515,-0.15405273,-1.1809692,0.184021,14.078125,1.625,-2.0
1664563152545,-0.16967773,-1.2600708,0.13153076,-3.234375,4.828125,-3.1875
1664563152605,0.0078125,-1.4412231,0.014099121,-21.796875,2.1875,-5.578125
1664563152635,0.14453125,-1.2554321,-0.023986816,-23.765625,10.890625,0.875
1664563152664,0.33764648,-0.8574829,0.046569824,-15.65625,4.609375,0.671875
1664563152726,0.18261719,-0.82818604,0.0026245117,-12.0,2.859375,-2.546875
1664563152758,0.1484375,-0.9331665,0.101257324,-1.390625,-6.15625,3.921875
1664563152785,0.048339844,-0.9343872,0.16107178,-3.21875,-0.578125,1.578125
1664563152845,0.04321289,-0.95025635,0.199646,-9.203125,-0.875,5.34375
1664563152859,0.064941406,-0.85723877,0.16815186,-5.375,-3.8125,7.109375
1664563152920,0.022705078,-0.7817993,0.17132568,-10.015625,-2.296875,7.71875
1664563152965,-0.001953125,-0.77130127,0.2189331,-5.953125,-0.9375,8.4375
1664563152980,0.022460938,-0.8164673,0.22698975,-11.65625,2.4375,8.90625
1664563153024,0.024902344,-0.8911743,0.29925537,-15.171875,0.21875,9.234375
1664563153084,0.005859375,-0.9434204,0.33392334,1.328125,8.015625,8.9375
1664563153100,0.051513672,-1.036438,0.34881592,1.53125,13.828125,7.0625
1664563153145,0.043945312,-1.1167603,0.43499756,8.8125,13.375,3.234375
1664563153205,0.02734375,-1.1387329,0.34246826,-6.515625,9.765625,-2.71875
1664563153220,0.15454102,-1.2583618,0.3751831,-2.703125,6.609375,-3.90625
1664563153266,0.34179688,-1.3760376,0.12420654,-32.78125,-7.125,2.578125
1664563153295,0.18701172,-0.94317627,0.09173584,17.25,10.609375,-0.15625
1664563153340,0.07543945,-0.8550415,0.09588623,-13.71875,2.171875,-17.109375
1664563153385,0.16845703,-1.0007935,0.16107178,-4.9375,3.171875,-0.359375
1664563153416,0.1430664,-0.8743286,0.12591553,13.0,-3.4375,-4.796875
1664563153460,0.040283203,-0.81866455,0.13104248,5.890625,-4.46875,-5.71875
1664563153505,0.020751953,-0.91119385,0.2501831,0.09375,-7.484375,-4.671875
1664563153535,-0.06298828,-0.8882446,0.20159912,14.671875,-6.34375,-6.4375
1664563153580,-0.099853516,-0.8657837,0.19744873,11.84375,-9.84375,-4.09375
1664563153625,-0.008300781,-0.8804321,0.19012451,17.640625,-11.09375,-0.5
1664563153655,0.0068359375,-0.88238525,0.17352295,21.671875,-4.984375,-2.625
1664563153701,-0.041259766,-0.97662354,0.18890381,16.890625,-4.296875,-1.703125
1664563153745,-0.09033203,-1.0376587,0.14324951,16.375,2.375,-1.734375
1664563153774,-0.088134766,-1.1177368,0.20819092,11.671875,3.046875,-1.34375
1664563153819,-0.12084961,-1.098938,0.26776123,8.015625,3.59375,-0.765625
1664563153864,-0.18334961,-1.1204224,0.24383545,6.359375,5.890625,-4.9375
1664563153894,0.03125,-1.3150024,0.09295654,-15.71875,-5.296875,-6.3125
1664563153925,0.36083984,-1.3694458,0.050476074,-16.5,-3.734375,-2.25
1664563153985,0.2097168,-0.972229,0.05340576,-11.25,-9.59375,-1.34375
1664563154016,0.18188477,-0.8413696,-0.069885254,-4.109375,-12.59375,1.03125
1664563154045,0.1887207,-0.9487915,0.0602417,-4.984375,-13.296875,7.90625
1664563154104,0.103759766,-0.9690552,0.18328857,11.078125,-11.484375,5.484375
1664563154135,-0.068359375,-0.93878174,0.22869873,2.15625,-1.484375,5.0
1664563154166,-0.06738281,-0.8555298,0.18475342,10.140625,-0.03125,7.359375
1664563154226,0.032470703,-0.7554321,0.1329956,7.96875,0.234375,5.78125
1664563154254,0.0146484375,-0.78131104,0.105407715,2.703125,1.8125,4.1875
1664563154286,-0.0073242188,-0.84942627,0.15423584,0.46875,4.515625,6.390625
1664563154345,0.014892578,-0.9277954,0.20062256,-1.984375,3.9375,7.59375
1664563154360,0.04345703,-0.9871216,0.24139404,-3.609375,6.203125,7.40625
1664563154406,0.076171875,-1.1001587,0.19036865,-7.90625,6.640625,8.046875
1664563154466,0.029052734,-1.1069946,0.354187,-3.28125,17.25,3.859375
1664563154480,-0.048339844,-1.2229614,0.28656006,-4.515625,11.4375,-5.125
1664563154526,0.19140625,-1.2588501,0.2189331,-12.03125,2.734375,-7.125
1664563154584,0.28125,-1.3950806,0.09100342,-17.296875,-8.078125,2.265625
1664563154599,0.1381836,-0.97442627,-0.03277588,5.71875,14.75,-6.625
1664563154645,0.06591797,-0.89630127,-0.06719971,-21.25,13.1875,-15.71875
1664563154675,0.16015625,-0.9138794,0.11639404,1.515625,17.40625,-0.578125
1664563154721,0.20874023,-0.7918091,0.01776123,9.9375,2.71875,-5.546875
1664563154765,0.07299805,-0.8430786,0.11785889,-1.125,-3.390625,-8.5625
1664563154795,0.017822266,-0.8899536,0.16253662,1.265625,-9.4375,-4.578125
1664563154840,-0.03857422,-0.8106079,0.1449585,5.609375,-8.3125,-4.796875
1664563154900,-0.080566406,-0.8467407,0.15447998,-3.140625,-6.25,-3.859375
1664563154915,-0.029785156,-0.89508057,0.21136475,-2.546875,-2.234375,0.53125
1664563154960,-0.02319336,-0.90582275,0.20916748,4.25,-1.484375,0.453125
1664563155008,-0.075683594,-0.8982544,0.23724365,8.515625,1.171875,-0.71875
1664563155035,-0.020507812,-0.9661255,0.14056396,5.453125,4.03125,-3.359375
1664563155080,-0.08691406,-1.0374146,0.230896,1.0,1.640625,-4.09375
1664563155125,-0.1352539,-1.0994263,0.29071045,7.828125,3.359375,-2.609375
1664563155155,-0.19897461,-1.2095337,0.3361206,-1.390625,7.359375,-3.5625
1664563155200,-0.14941406,-1.2449341,0.24822998,-12.4375,11.890625,-6.359375
1664563155245,-0.001953125,-1.4695435,0.22991943,-30.046875,6.40625,-12.390625
1664563155278,0.43164062,-1.3189087,0.20794678,-10.796875,-2.578125,3.53125
1664563155320,0.24536133,-0.8821411,0.081970215,-8.15625,-5.265625,-3.46875
1664563155366,0.045898438,-0.8411255,0.059753418,3.59375,-11.203125,5.703125
1664563155395,0.13720703,-0.8809204,0.2682495,7.359375,-19.125,9.875
1664563155424,-0.036865234,-0.9463501,0.2086792,18.328125,-17.5,1.9375
1664563155485,-0.025634766,-0.88653564,0.24627686,12.703125,-11.90625,8.3125
1664563155516,0.05810547,-0.81866455,0.16741943,14.921875,-6.15625,4.53125
1664563155545,0.040039062,-0.78204346,0.14837646,0.59375,-5.453125,5.5625
1664563155606,-0.0078125,-0.8135376,0.16326904,2.046875,-3.9375,7.296875
1664563155635,-0.012451172,-0.8792114,0.1852417,7.046875,-4.921875,10.578125
1664563155665,0.031982422,-0.87945557,0.17474365,6.625,0.09375,11.1875
1664563155725,0.017089844,-0.94488525,0.25286865,1.828125,6.421875,8.265625
1664563155755,0.044677734,-1.0501099,0.28753662,-3.453125,12.796875,9.734375
1664563155787,0.08691406,-1.15802,0.3427124,-3.078125,15.0,5.328125
1664563155845,0.0078125,-1.2044067,0.2982788,-2.859375,12.59375,-4.078125
1664563155860,0.12670898,-1.3972778,0.26434326,-2.046875,0.265625,-6.03125
1664563155906,0.3840332,-1.3845825,0.00970459,-15.671875,-13.09375,6.328125
1664563155968,0.11987305,-0.86138916,-0.027160645,11.640625,14.71875,-12.015625
1664563155980,-0.01928711,-0.91973877,-0.10675049,-25.09375,-0.15625,-16.453125
1664563156025,0.115722656,-0.9573364,0.074157715,0.21875,13.671875,-5.203125
1664563156085,0.07714844,-0.89434814,-0.026916504,15.6875,7.5625,-5.25
1664563156100,0.059326172,-0.86676025,0.09881592,-0.71875,2.578125,-5.515625
1664563156146,0.015136719,-0.90948486,0.18817139,4.453125,0.171875,-6.328125
1664563156174,-0.051757812,-0.8057251,0.12908936,9.15625,-0.65625,-4.34375
1664563156221,-0.06616211,-0.7776489,0.10809326,3.546875,0.390625,-2.625
1664563156264,-0.0061035156,-0.8267212,0.11932373,3.625,-2.34375,0.109375
1664563156294,-0.006591797,-0.850647,0.12762451,8.0625,0.90625,1.140625
1664563156340,-0.118896484,-0.91070557,0.19354248,3.21875,-1.390625,-0.875
1664563156385,-0.10668945,-1.0205688,0.18914795,0.46875,-0.921875,-0.734375
1664563156415,-0.022216797,-1.1326294,0.22015381,7.671875,-0.671875,-1.078125
1664563156461,-0.1237793,-1.1802368,0.24017334,6.6875,-0.328125,-2.03125
1664563156504,-0.10253906,-1.2600708,0.22137451,-2.640625,3.21875,2.171875
1664563156535,-0.08886719,-1.3543091,0.25457764,-21.671875,5.15625,-2.703125
1664563156580,0.118652344,-1.300354,0.09173584,-28.546875,3.40625,8.984375
1664563156624,0.45166016,-1.0130005,0.046325684,-7.0,-5.171875,5.65625
1664563156655,0.22949219,-0.8064575,0.059020996,-4.9375,-9.109375,1.4375
1664563156700,0.1027832,-0.8584595,0.081970215,-7.71875,-14.515625,6.40625
1664563156746,0.0043945312,-0.92022705,0.21380615,-2.75,-5.09375,1.46875
1664563156774,0.005859375,-0.88409424,0.23602295,-10.796875,-6.03125,3.96875
1664563156819,0.080566406,-0.850647,0.21258545,-6.953125,0.03125,3.75
1664563156865,0.08691406,-0.7839966,0.22357178,-5.359375,-4.53125,5.21875
1664563156894,0.06518555,-0.7827759,0.24285889,-4.609375,-0.953125,5.765625
1664563156925,0.037597656,-0.8274536,0.24676514,-5.765625,-5.328125,5.609375
1664563156984,-0.03149414,-0.92633057,0.35809326,5.5625,2.171875,4.46875
1664563157015,0.048339844,-0.9661255,0.38983154,4.6875,4.640625,8.21875
1664563157045,0.05419922,-1.060852,0.43695068,-0.6875,16.34375,2.453125
1664563157105,-0.052246094,-1.1436157,0.44110107,-1.203125,19.0625,0.484375
1664563157134,0.13964844,-1.0864868,0.4249878,-2.390625,13.078125,0.484375
1664563157167,0.20141602,-1.0967407,0.41986084,-12.453125,7.640625,-7.09375
1664563157226,0.16064453,-1.4395142,0.25531006,-10.9375,-2.015625,6.359375
1664563157255,0.2668457,-0.95440674,0.02532959,28.4375,6.65625,4.5
1664563157285,0.09326172,-0.81500244,-0.02154541,2.125,4.328125,-21.1875
1664563157345,0.03564453,-1.0481567,0.03729248,15.109375,8.765625,-4.828125
1664563157360,0.13354492,-0.88897705,0.059509277,27.109375,-1.09375,-2.171875
1664563157406,0.078125,-0.83135986,0.03314209,10.671875,2.0625,-7.328125
1664563157465,0.020263672,-0.9133911,0.15350342,4.46875,-2.796875,-8.1875
1664563157480,-0.014892578,-0.8369751,0.06365967,14.609375,-2.6875,-3.546875
1664563157524,0.022460938,-0.80792236,0.08319092,5.6875,-6.0,-2.046875
1664563157586,0.009277344,-0.8308716,0.11639404,9.328125,-6.109375,-0.84375
1664563157601,-0.013916016,-0.88482666,0.105407715,9.859375,-9.96875,0.015625
1664563157646,-0.07885742,-0.9260864,0.13397217,9.453125,-3.640625,-2.265625
1664563157675,-0.07470703,-0.9627075,0.10443115,11.203125,-4.15625,-5.3125
1664563157720,-0.041748047,-1.0166626,0.14593506,12.390625,-7.859375,-5.421875
1664563157766,-0.17626953,-1.0491333,0.14544678,10.671875,-6.046875,-5.125
1664563157795,-0.21289062,-1.1968384,0.16619873,3.890625,-0.484375,-6.59375
1664563157841,-0.16625977,-1.3186646,0.17230225,-4.03125,3.234375,-8.171875
1664563157886,-0.028564453,-1.5166626,-0.050109863,-19.328125,3.015625,-6.5
1664563157915,0.24072266,-1.3445435,-0.077697754,-17.1875,9.796875,0.078125
1664563157961,0.28125,-0.8933716,0.034118652,-13.953125,11.0,1.5
1664563158005,0.11694336,-0.79034424,0.010192871,-6.640625,-4.46875,3.328125
1664563158040,0.140625,-0.88360596,-0.004699707,-2.75,-6.203125,5.9375
1664563158080,0.096191406,-0.9299927,0.10784912,3.796875,-2.28125,3.421875
1664563158127,-0.017578125,-0.9380493,0.17572021,-7.234375,-0.203125,3.109375
1664563158155,-0.0087890625,-0.8442993,0.18963623,-0.5625,-4.140625,6.0625
1664563158200,0.07543945,-0.7630005,0.10687256,6.78125,-2.75,7.234375
1664563158246,0.025878906,-0.7654419,0.12005615,-5.046875,-5.234375,6.296875
1664563158275,0.0146484375,-0.87750244,0.17767334,-6.765625,-7.3125,7.9375
1664563158320,-0.0041503906,-0.8999634,0.20599365,-5.34375,-0.078125,6.328125
1664563158365,-0.031982422,-1.0178833,0.26971436,-7.453125,4.109375,6.0
1664563158395,0.03100586,-1.0769653,0.24066162,-5.6875,8.5,4.3125
1664563158425,0.0949707,-1.1135864,0.32147217,11.5,10.46875,1.28125
1664563158485,0.060546875,-1.1738892,0.2880249,6.96875,2.203125,-7.15625
1664563158514,0.14257812,-1.3938599,0.2987671,-12.21875,-9.109375,-3.53125
1664563158545,0.20214844,-1.3313599,0.10491943,-10.765625,-9.171875,-4.875
1664563158605,-0.024414062,-1.0166626,-0.0491333,-13.796875,5.640625,-10.34375
1664563158635,0.068115234,-0.96588135,-0.020568848,-20.828125,9.46875,-1.109375
1664563158664,0.14135742,-0.9043579,0.1083374,8.34375,17.703125,-7.90625
1664563158727,0.044433594,-0.90802,0.070251465,5.96875,7.921875,-4.90625
1664563158740,0.091308594,-0.8731079,0.15667725,-1.234375,0.4375,-0.265625
1664563158785,0.0703125,-0.86968994,0.16204834,6.84375,0.015625,-3.421875
1664563158845,-0.10205078,-0.769104,0.10076904,5.703125,-7.078125,-1.578125
1664563158859,-0.068603516,-0.75982666,0.13519287,3.5,-6.265625,0.0
1664563158905,-0.0036621094,-0.8052368,0.14569092,6.71875,-2.796875,0.984375
1664563158979,-0.02734375,-0.8777466,0.16107178,7.84375,-6.390625,-0.0625
1664563158981,-0.06738281,-0.9585571,0.1906128,5.3125,-8.328125,1.859375
1664563159026,-0.095703125,-1.006897,0.22015381,3.6875,-1.546875,0.203125
1664563159086,-0.15576172,-1.1016235,0.24993896,3.296875,0.859375,-2.84375
1664563159100,-0.09008789,-1.1694946,0.28656006,4.015625,-0.234375,-0.421875
1664563159145,-0.15673828,-1.2495728,0.28900146,-3.3125,4.03125,-2.15625
1664563159177,-0.16186523,-1.3445435,0.13079834,-17.390625,9.90625,-4.0
1664563159220,0.1274414,-1.3726196,0.11859131,-11.671875,9.59375,-1.078125
1664563159264,0.31030273,-1.0286255,0.0927124,-4.3125,3.390625,-0.296875
1664563159295,0.22387695,-0.80841064,0.012878418,5.890625,-8.34375,2.515625
1664563159340,0.10229492,-0.85528564,0.11639404,-14.09375,-6.703125,4.640625
1664563159386,0.06567383,-0.8887329,0.15985107,3.734375,-8.046875,3.53125
1664563159414,0.048828125,-0.8765259,0.20452881,-9.59375,-4.15625,4.734375
1664563159460,0.01586914,-0.8530884,0.28240967,-6.0625,-0.9375,5.6875
1664563159504,-0.0014648438,-0.80303955,0.20257568,1.234375,-2.65625,5.5625
1664563159536,0.03100586,-0.8098755,0.23236084,1.640625,-3.328125,6.359375
1664563159580,0.02758789,-0.8892212,0.24945068,5.15625,-7.828125,6.609375
1664563159626,0.00390625,-0.92071533,0.27923584,10.78125,-10.265625,7.796875
1664563159655,0.010253906,-0.9060669,0.24969482,14.03125,-4.1875,6.734375
1664563159700,0.05078125,-1.0083618,0.32855225,6.125,-0.421875,7.484375
1664563159746,0.04321289,-1.0918579,0.29779053,9.046875,2.828125,7.265625
1664563159775,0.059814453,-1.0852661,0.28656006,12.984375,14.328125,4.484375
1664563159865,0.03125,-1.2212524,0.2987671,-0.0625,10.578125,-7.296875
1664563159868,0.24511719,-1.52594,0.2897339,-1.453125,-4.015625,-2.453125
1664563159895,0.27319336,-1.2088013,0.006286621,3.09375,-16.21875,-1.171875
1664563159926,0.07104492,-0.8731079,-0.09698486,-3.46875,5.609375,-10.015625
1664563159984,0.11645508,-0.9182739,-0.06793213,-17.71875,15.375,-8.640625
1664563160016,0.12817383,-0.861145,0.046569824,18.453125,9.765625,-3.953125
1664563160045,0.0715332,-0.88360596,0.058532715,9.90625,-1.203125,-3.140625
1664563160104,0.080566406,-0.9024048,0.094177246,5.4375,-1.125,-2.015625
1664563160135,-0.0073242188,-0.87579346,0.13372803,6.75,4.984375,-4.40625
1664563160165,-0.08227539,-0.84210205,0.07684326,7.578125,-0.25,-4.6875
1664563160225,-0.045654297,-0.7817993,0.097839355,11.71875,2.796875,-2.484375
1664563160240,-0.012451172,-0.8286743,0.08758545,8.09375,2.875,-3.703125
1664563160285,-0.040039062,-0.8777466,0.090270996,6.515625,0.03125,-3.328125
1664563160345,-0.10839844,-0.956604,0.10882568,7.203125,0.84375,-2.265625
1664563160360,-0.13354492,-1.0215454,0.07513428,2.5,1.453125,-2.046875
1664563160406,0.11328125,-1.1511841,0.13323975,1.40625,-5.296875,-1.921875
1664563160466,-0.1706543,-1.2263794,0.2399292,1.359375,4.8125,-6.015625
1664563160480,-0.20288086,-1.303772,0.11956787,6.40625,-9.4375,-4.6875
1664563160526,-0.038330078,-1.3775024,-0.12774658,-20.921875,8.546875,-6.984375
1664563160585,0.18383789,-1.2861938,0.06121826,-15.546875,14.546875,0.109375
1664563160600,0.3305664,-0.9788208,0.04901123,-7.78125,2.9375,2.765625
1664563160648,0.20922852,-0.7959595,0.010681152,-5.953125,-7.21875,2.734375
1664563160675,0.21020508,-0.89727783,0.039733887,-6.109375,-12.796875,4.5
1664563160720,0.029296875,-0.89801025,0.15179443,-0.9375,-7.75,0.984375
1664563160766,-0.048583984,-0.8850708,0.15985107,-1.640625,-10.953125,5.6875
1664563160795,0.061279297,-0.83599854,0.15252686,-8.0625,-7.125,11.1875
1664563160839,-0.044433594,-0.7666626,0.14837646,-4.46875,-1.875,7.90625
1664563160885,0.014160156,-0.78326416,0.16448975,-6.015625,2.078125,8.453125
1664563160915,0.084472656,-0.91534424,0.2736206,-9.828125,1.46875,8.203125
1664563160960,-0.031982422,-0.9060669,0.31658936,-3.28125,6.328125,9.15625
1664563161005,-0.037109375,-0.88726807,0.24871826,-4.796875,11.09375,10.03125
1664563161035,0.12475586,-1.02594,0.2772827,-15.6875,13.4375,16.59375
1664563161083,0.16601562,-1.0862427,0.38739014,-9.671875,18.890625,10.015625
1664563161140,0.13598633,-1.0933228,0.42279053,-1.1875,18.8125,1.15625
1664563161154,0.11621094,-1.1514282,0.480896,-9.84375,9.4375,-6.75
1664563161200,0.25561523,-1.4658813,0.3324585,-16.375,0.78125,-5.671875
1664563161245,0.2084961,-1.1643677,0.21160889,-1.0625,1.625,-6.90625
1664563161276,0.047607422,-0.85162354,-0.09136963,-4.796875,4.734375,-22.1875
1664563161322,0.08251953,-0.9290161,0.06854248,-12.953125,14.78125,-13.9375
1664563161365,0.2397461,-1.0234985,0.15228271,4.375,8.3125,-8.28125
1664563161394,0.060546875,-0.9024048,0.109313965,7.28125,5.484375,-10.25
1664563161425,0.041015625,-0.87213135,0.18084717,3.015625,-1.90625,-4.609375
1664563161485,0.10571289,-0.8755493,0.23724365,13.25,-11.609375,-5.40625
1664563161516,-0.047607422,-0.8320923,0.16546631,19.53125,-9.046875,-5.796875
1664563161545,-0.10864258,-0.8386841,0.16229248,21.09375,-9.09375,-2.890625
1664563161605,0.006591797,-0.8401489,0.15545654,23.15625,-8.75,0.140625
1664563161634,0.025878906,-0.8875122,0.09857178,18.296875,-5.984375,-1.640625
1664563161665,-0.056884766,-0.95391846,0.17962646,13.609375,-4.359375,-2.640625
1664563161725,-0.09057617,-1.0369263,0.19818115,12.15625,-1.390625,-2.71875
1664563161740,-0.16992188,-1.1047974,0.24578857,12.078125,5.421875,-4.140625
1664563161786,-0.22265625,-1.1629028,0.20037842,-0.671875,9.859375,-4.171875
1664563161846,-0.06689453,-1.2244263,0.16546631,-8.171875,13.984375,-1.875
1664563161860,0.0053710938,-1.2839966,0.024353027,-16.6875,3.046875,0.328125
1664563161905,0.25390625,-1.3794556,0.038024902,-17.28125,-4.046875,-0.671875
1664563161966,0.20507812,-1.0003052,0.043884277,4.453125,-9.46875,1.984375
1664563161980,0.1796875,-0.79937744,-0.050354004,-4.828125,-16.640625,2.4375
1664563162025,0.1430664,-0.9085083,0.07757568,-1.15625,-12.21875,3.390625
1664563162085,9.765625E-4,-0.9585571,0.16815186,-2.296875,-8.25,-1.125
1664563162100,-0.025634766,-0.94244385,0.1486206,-3.625,-6.21875,2.640625
1664563162145,0.04736328,-0.8555298,0.17791748,6.15625,-4.890625,6.6875
1664563162176,0.013671875,-0.7698364,0.14691162,0.125,-5.203125,6.984375
1664563162220,-0.052734375,-0.77593994,0.1437378,0.640625,-4.203125,6.5
1664563162265,-0.06762695,-0.8135376,0.18353271,-4.953125,-4.109375,7.6875
1664563162295,0.005859375,-0.88653564,0.20770264,-2.078125,0.46875,8.859375
1664563162340,0.0017089844,-0.9143677,0.23431396,-10.59375,7.125,7.234375
1664563162385,0.01171875,-0.9649048,0.2868042,-11.46875,8.875,5.5
1664563162416,0.061767578,-1.0650024,0.39593506,-0.78125,15.234375,1.34375
1664563162459,0.0014648438,-1.1712036,0.38323975,-0.734375,21.765625,0.921875
1664563162505,0.12695312,-1.2036743,0.41522217,-10.9375,12.875,1.265625
1664563162535,0.2121582,-1.5025024,0.43695068,-14.390625,0.9375,-1.65625
1664563162580,0.2602539,-1.321106,0.20404053,0.03125,-9.21875,4.90625
1664563162629,0.07519531,-0.95977783,0.014831543,-1.65625,13.71875,-11.34375
1664563162655,-0.099365234,-0.8447876,-0.0647583,-18.6875,12.40625,-16.96875
1664563162700,-0.0053710938,-0.8230591,0.0038452148,-9.265625,20.5625,-3.5625
1664563162746,0.17163086,-0.831604,0.07122803,8.65625,10.40625,-6.1875
1664563162775,0.17700195,-0.8521118,0.16522217,-2.15625,4.5,-1.9375
1664563162820,0.0056152344,-0.8858032,0.21722412,0.4375,-1.5625,-6.6875
1664563162866,-0.010009766,-0.8164673,0.17401123,9.140625,-8.1875,-1.078125
1664563162895,0.0012207031,-0.80914307,0.19573975,2.0,-4.828125,-1.921875
1664563162925,-0.011230469,-0.8555298,0.22039795,5.921875,-5.171875,0.21875
1664563162985,-0.01953125,-0.8994751,0.22821045,9.421875,-6.890625,-0.484375
1664563163018,-0.043701172,-0.9727173,0.26800537,4.59375,-4.328125,-1.859375
1664563163046,-0.13720703,-1.0545044,0.25823975,7.984375,0.296875,-5.65625
1664563163105,-0.09448242,-1.0835571,0.2982788,2.3125,0.578125,-3.171875
1664563163135,-0.14892578,-1.142395,0.33685303,-5.6875,4.765625,-7.40625
1664563163165,-0.1574707,-1.112854,0.28778076,-2.671875,12.421875,-4.203125
1664563163226,-0.18481445,-1.1755981,0.17156982,-22.859375,12.453125,-5.828125
1664563163240,0.118652344,-1.303772,0.21820068,-3.3125,12.453125,1.171875
1664563163285,0.31396484,-0.97125244,0.10394287,9.453125,-2.765625,-1.390625
1664563163346,0.088378906,-0.86846924,0.13543701,-0.828125,-7.640625,-0.015625
1664563163360,0.1237793,-0.8897095,0.1618042,10.671875,-23.09375,13.25
1664563163405,0.13110352,-0.9043579,0.21429443,12.25,-23.234375,7.09375
1664563163465,0.06591797,-0.97857666,0.21868896,14.875,-20.0625,6.25
1664563163480,0.00390625,-0.9649048,0.23065186,4.90625,-12.859375,8.703125
1664563163525,0.025634766,-0.8345337,0.17523193,8.46875,-12.90625,5.921875
1664563163556,0.009765625,-0.79107666,0.20501709,5.671875,-7.125,4.890625
1664563163600,0.061523438,-0.8538208,0.20184326,6.75,-7.984375,8.984375
1664563163646,0.030029297,-0.8526001,0.20599365,0.640625,-6.265625,7.125
1664563163675,-0.0107421875,-0.9776001,0.20257568,3.796875,4.078125,8.90625
1664563163720,0.007080078,-1.0669556,0.23284912,-2.03125,7.140625,9.296875
1664563163765,0.05078125,-1.0542603,0.36102295,-2.078125,15.71875,6.65625
1664563163794,-0.022705078,-1.1270142,0.38690186,2.15625,27.40625,-3.671875
1664563163843,0.041503906,-1.2324829,0.29681396,-6.671875,16.0,-8.828125
1664563163885,0.20117188,-1.3716431,0.30633545,-7.359375,9.421875,-6.65625
1664563163915,0.3251953,-1.2180786,-0.013244629,-5.203125,-14.828125,-1.15625
1664563163960,0.18237305,-0.7896118,-0.13824463,6.875,6.15625,-15.359375
1664563164005,0.1081543,-0.98565674,-0.07305908,-23.28125,9.234375,-13.453125
1664563164036,-2.4414062E-4,-0.9116821,0.07244873,13.234375,5.875,-6.375
1664563164081,0.009033203,-0.90509033,0.00579834,6.484375,3.859375,-4.0
1664563164124,0.05883789,-0.89068604,0.1473999,-4.09375,-0.921875,-6.3125
1664563164155,0.049560547,-0.86798096,0.16766357,6.90625,-6.546875,-2.609375
1664563164200,-0.012939453,-0.78790283,0.1359253,6.59375,-10.140625,-1.9375
1664563164245,-0.10522461,-0.79766846,0.11956787,3.265625,-10.296875,-1.484375
1664563164275,-0.037353516,-0.84161377,0.08856201,7.125,-9.78125,1.609375
1664563164305,-0.059570312,-0.8652954,0.16204834,3.578125,-5.796875,-1.546875
1664563164365,-0.14941406,-0.9585571,0.23797607,8.59375,-1.265625,-0.671875
1664563164396,-0.14404297,-0.99298096,0.26190186,9.46875,-4.15625,-0.296875
1664563164425,-0.21850586,-1.0979614,0.23968506,0.1875,5.65625,-5.9375
1664563164485,-0.15625,-1.2146606,0.22406006,0.9375,10.734375,-5.875
1664563164516,-0.049072266,-1.2590942,0.22796631,-11.640625,7.21875,-2.1875
1664563164545,-0.1665039,-1.28302,0.23260498,-7.5,11.46875,-0.59375
1664563164605,-0.011962891,-1.3242798,0.054138184,0.78125,5.328125,6.46875
1664563164666,0.57836914,-1.0254517,0.038024902,-6.03125,-5.9375,3.6875
1664563164670,0.100097656,-0.8128052,-0.023254395,-7.40625,-6.140625,-5.046875
1664563164725,0.076416016,-0.9241333,0.058776855,-6.15625,-24.421875,6.421875
1664563164739,0.11303711,-0.91290283,0.17254639,-5.171875,-10.46875,-1.40625
1664563164785,0.011962891,-0.9500122,0.16693115,-12.5,-11.65625,3.125
1664563164846,-0.010498047,-0.8748169,0.2567749,-2.8125,-4.84375,8.078125
1664563164861,0.022705078,-0.74224854,0.2062378,3.296875,-9.96875,9.59375
1664563164905,-0.034179688,-0.7498169,0.20599365,-3.0,-8.171875,8.21875
1664563164966,-0.072021484,-0.8579712,0.2592163,-8.59375,-0.234375,9.25
1664563164981,-0.043701172,-0.8867798,0.27557373,-9.84375,5.25,9.15625
1664563165026,-0.025878906,-0.9014282,0.37127686,-8.21875,9.421875,3.609375
1664563165055,0.013427734,-1.0713501,0.4039917,-9.390625,16.328125,4.421875
1664563165101,0.06958008,-1.1194458,0.479187,-1.515625,16.03125,1.75
1664563165146,0.047851562,-1.1079712,0.42156982,2.171875,15.5,-4.609375
1664563165205,0.05126953,-1.1104126,0.45306396,-6.078125,7.90625,-1.9375
1664563165220,0.2253418,-1.3442993,0.26068115,-31.171875,-5.796875,7.5625
1664563165266,0.091308594,-1.0615845,0.13568115,11.6875,5.84375,-3.75
1664563165295,-0.028320312,-0.815979,0.13031006,-4.703125,4.25,-21.03125
1664563165340,0.07299805,-0.93585205,0.04559326,11.3125,1.28125,1.828125
1664563165385,0.24291992,-0.8887329,0.08270264,12.671875,-2.90625,-4.765625
1664563165417,0.110839844,-0.8970337,0.15985107,11.546875,0.734375,-8.140625
1664563165461,-0.0690918,-0.9155884,0.19451904,18.3125,-2.78125,-6.125
1664563165505,-0.06665039,-0.8267212,0.16546631,20.515625,-3.9375,-1.125
1664563165536,-0.0146484375,-0.8123169,0.14276123,10.984375,1.8125,-3.359375
1664563165580,-2.4414062E-4,-0.85235596,0.13372803,18.6875,-0.78125,-0.546875
1664563165625,-0.0031738281,-0.8579712,0.109069824,17.15625,-7.109375,0.671875
1664563165655,-0.080566406,-0.894104,0.15179443,17.359375,-5.015625,-0.078125
1664563165714,-0.09643555,-0.9854126,0.17254639,12.171875,-3.5625,-1.390625
1664563165747,-0.07299805,-1.1004028,0.16448975,17.640625,-1.640625,-0.828125
1664563165775,-0.07714844,-1.111145,0.1864624,10.578125,-4.40625,-2.171875
1664563165805,-0.14013672,-1.0757446,0.29412842,5.21875,-3.28125,-0.890625
1664563165865,-0.18359375,-1.1692505,0.16595459,4.0,1.234375,2.40625
1664563165895,-0.12573242,-1.4568481,-0.12335205,-13.4375,2.609375,2.34375
1664563165925,0.17602539,-1.3442993,-0.06402588,-13.765625,4.34375,5.8125
1664563165986,0.22241211,-1.0337524,0.042419434,-28.515625,2.5,2.015625
1664563166015,0.14746094,-0.8345337,0.06732178,-24.375,2.296875,-0.484375
1664563166045,0.08959961,-0.9273071,0.028015137,-10.71875,-2.828125,3.0625
1664563166105,0.16894531,-0.8052368,0.09490967,7.5625,0.75,0.765625
1664563166166,0.07373047,-0.79766846,0.13250732,-1.78125,-2.578125,2.765625
1664563166168,-0.032958984,-0.880188,0.20037842,-2.5625,-6.375,5.0
1664563166226,-0.017822266,-0.81329346,0.14593506,-0.453125,-0.421875,6.15625
1664563166240,7.324219E-4,-0.78375244,0.21990967,-8.640625,0.28125,6.03125
1664563166284,0.063964844,-0.84454346,0.21478271,-7.125,1.828125,6.453125
1664563166345,-0.03930664,-0.9246216,0.27874756,-9.96875,5.40625,4.171875
1664563166360,0.010498047,-0.972229,0.33172607,-4.578125,7.25,8.96875
1664563166405,0.072509766,-1.0171509,0.29144287,-5.921875,12.625,8.171875
1664563166466,0.14331055,-1.1016235,0.3619995,-4.1875,8.75,8.3125
1664563166481,0.05126953,-1.1087036,0.4262085,8.5,3.59375,7.3125
1664563166525,0.036621094,-1.2346802,0.30926514,-2.046875,5.78125,1.078125
1664563166556,0.12207031,-1.4324341,0.3817749,-18.5,2.171875,-1.71875
1664563166601,0.20483398,-1.1065063,0.14447021,-7.015625,3.515625,-3.28125
1664563166645,0.030029297,-0.86187744,-0.08404541,-1.234375,16.125,-17.46875
1664563166675,0.14038086,-0.9475708,0.14129639,-19.421875,19.96875,-10.484375
1664563166720,0.2602539,-0.9026489,0.1539917,9.1875,18.078125,-10.625
1664563166766,0.1940918,-0.8296509,0.061950684,2.375,4.0,-12.203125
1664563166795,0.12475586,-0.8994751,0.23162842,-2.265625,2.90625,-8.96875
1664563166840,-0.0034179688,-0.9380493,0.25042725,12.34375,-5.5,-9.265625
1664563166885,-0.034179688,-0.75079346,0.16693115,5.453125,-3.4375,-2.265625
1664563166915,-0.03564453,-0.770813,0.17572021,-0.09375,-0.203125,-2.5
1664563166960,0.004638672,-0.76763916,0.1762085,11.015625,-4.953125,-1.5625
1664563167005,-0.0107421875,-0.8945923,0.21868896,-2.09375,-4.390625,-4.328125
1664563167036,-0.10180664,-1.0183716,0.3287964,6.546875,-1.578125,-6.171875
1664563167080,-0.056152344,-1.0215454,0.27093506,-1.015625,-5.265625,-6.03125
1664563167126,-0.03955078,-1.0027466,0.2675171,6.15625,-7.203125,-3.203125
1664563167156,-0.09765625,-1.1084595,0.37786865,5.5,-6.3125,-1.03125
1664563167200,-0.17993164,-1.1528931,0.38397217,12.296875,-5.9375,-1.390625
1664563167245,-0.13793945,-1.2515259,0.3204956,3.015625,-9.53125,0.765625
1664563167275,0.10522461,-1.4255981,0.21502686,-13.609375,-1.140625,-2.890625
1664563167305,0.118896484,-1.1067505,0.18353271,4.3125,-14.296875,2.71875
