# Sensor type: Respeck
# Activity type: Sitting
# Activity code: 0
# Subject id: s1800825
# Notes: u
timestamp,accel_x,accel_y,accel_z,gyro_x,gyro_y,gyro_z
1665673737816,-0.26171875,-0.9649048,-0.06549072,0.5,-0.09375,-0.0625
1665673737877,-0.27026367,-0.96417236,-0.07232666,-0.140625,0.703125,-0.859375
1665673737884,-0.27612305,-0.9636841,-0.0647583,1.765625,-0.53125,0.203125
1665673737923,-0.2644043,-0.9678345,-0.078186035,0.453125,1.171875,0.015625
1665673737968,-0.26879883,-0.9697876,-0.06719971,0.53125,0.5625,-0.09375
1665673737998,-0.26586914,-0.9678345,-0.070373535,0.625,0.703125,0.125
1665673738043,-0.26000977,-0.96099854,-0.06939697,0.265625,0.34375,-0.5
1665673738073,-0.27661133,-0.9661255,-0.06573486,0.1875,0.296875,-0.28125
1665673738118,-0.2644043,-0.9692993,-0.07940674,0.9375,-0.265625,0.0
1665673738162,-0.27661133,-0.9649048,-0.073791504,0.15625,0.21875,-0.625
1665673738193,-0.27197266,-0.96466064,-0.07183838,1.171875,-0.59375,0.015625
1665673738237,-0.27197266,-0.96295166,-0.077941895,0.34375,0.765625,-0.1875
1665673738297,-0.26513672,-0.96051025,-0.0791626,1.515625,-0.125,-0.15625
1665673738312,-0.2758789,-0.9585571,-0.08502197,0.84375,-0.375,-0.40625
1665673738359,-0.26513672,-0.96759033,-0.07330322,0.59375,0.8125,0.15625
1665673738403,-0.2607422,-0.96661377,-0.07989502,0.640625,0.1875,-0.40625
1665673738433,-0.2770996,-0.9636841,-0.06304932,0.421875,-2.53125,-0.609375
1665673738477,-0.27807617,-0.96710205,-0.097717285,0.25,3.046875,0.46875
1665673738538,-0.26049805,-0.97857666,-0.06890869,2.265625,-1.5,0.234375
1665673738552,-0.27612305,-0.95635986,-0.09503174,-0.640625,0.15625,-0.3125
1665673738599,-0.2722168,-0.960022,-0.08526611,0.6875,1.109375,0.640625
1665673738643,-0.26733398,-0.9656372,-0.082092285,-0.125,1.03125,-0.125
1665673738673,-0.27490234,-0.9644165,-0.07696533,0.984375,-0.328125,0.65625
1665673738719,-0.2565918,-0.9595337,-0.09552002,0.6875,1.703125,0.4375
1665673738764,-0.2631836,-0.9673462,-0.08526611,0.015625,0.640625,0.453125
1665673738794,-0.2722168,-0.960022,-0.08087158,0.25,-0.15625,0.0
1665673738838,-0.26879883,-0.956604,-0.081604004,0.78125,-0.046875,0.640625
1665673738882,-0.27319336,-0.9607544,-0.0803833,-0.484375,-0.0625,-0.328125
1665673738913,-0.265625,-0.9627075,-0.090148926,0.796875,-0.5,0.03125
1665673738958,-0.26367188,-0.9627075,-0.085754395,-0.296875,0.296875,0.25
1665673739033,-0.26782227,-0.96221924,-0.085754395,0.359375,-0.515625,-0.15625
1665673739034,-0.26757812,-0.9612427,-0.08258057,-0.609375,0.40625,0.171875
1665673739078,-0.26416016,-0.97076416,-0.082336426,1.109375,0.078125,0.328125
1665673739108,-0.27294922,-0.96051025,-0.09552002,0.109375,0.234375,0.03125
1665673739153,-0.27172852,-0.9661255,-0.08306885,-0.21875,2.328125,0.046875
1665673739198,-0.2722168,-0.9619751,-0.0803833,0.84375,1.53125,0.3125
1665673739227,-0.26293945,-0.96343994,-0.0947876,0.8125,-0.625,-0.140625
1665673739273,-0.27294922,-0.9644165,-0.090148926,-1.328125,3.359375,0.125
1665673739318,-0.26123047,-0.96221924,-0.07574463,1.65625,-1.546875,-0.046875
1665673739347,-0.2631836,-0.94781494,-0.08868408,-0.75,1.140625,0.03125
1665673739393,-0.26757812,-0.96832275,-0.08648682,0.234375,0.484375,0.078125
1665673739439,-0.26489258,-0.96051025,-0.09063721,-0.03125,0.359375,-0.046875
1665673739469,-0.27319336,-0.9661255,-0.07232666,0.25,-1.046875,0.03125
1665673739514,-0.27172852,-0.9644165,-0.08306885,-0.703125,0.796875,-0.09375
1665673739559,-0.2692871,-0.9663696,-0.090148926,0.390625,-0.109375,0.53125
1665673739588,-0.26538086,-0.9649048,-0.0881958,0.0,-0.015625,0.15625
1665673739633,-0.2697754,-0.9627075,-0.08331299,-1.09375,1.15625,0.171875
1665673739679,-0.26489258,-0.9702759,-0.07940674,0.28125,0.0625,0.078125
1665673739709,-0.2631836,-0.96295166,-0.08306885,0.3125,0.578125,0.0
1665673739754,-0.26416016,-0.9636841,-0.081848145,-0.09375,0.71875,0.0
1665673739799,-0.2536621,-0.9631958,-0.085998535,0.390625,0.421875,0.140625
1665673739829,-0.27124023,-0.96173096,-0.085510254,-0.21875,0.5625,-0.078125
1665673739873,-0.26293945,-0.95977783,-0.08428955,0.609375,0.375,0.109375
1665673739918,-0.2626953,-0.96221924,-0.07965088,-0.6875,0.5625,-0.03125
1665673739948,-0.26171875,-0.9595337,-0.089416504,1.109375,0.078125,-0.421875
1665673739994,-0.26513672,-0.9636841,-0.06011963,-0.703125,0.578125,0.09375
1665673740068,-0.25927734,-0.9561157,-0.10601807,0.703125,0.71875,-0.234375
1665673740071,-0.27270508,-0.9639282,-0.07550049,1.046875,-0.109375,0.359375
1665673740129,-0.26391602,-0.956604,-0.08380127,0.28125,0.671875,-0.375
1665673740158,-0.27368164,-0.9607544,-0.089904785,1.09375,1.015625,0.0625
1665673740188,-0.27197266,-0.9680786,-0.089904785,0.859375,0.09375,-0.53125
1665673740233,-0.26904297,-0.9656372,-0.08111572,0.828125,0.859375,0.359375
1665673740263,-0.26098633,-0.9661255,-0.08868408,0.765625,-0.4375,0.03125
1665673740309,-0.2705078,-0.9644165,-0.08502197,0.609375,0.15625,0.109375
1665673740353,-0.26367188,-0.9644165,-0.08917236,0.03125,1.59375,0.25
1665673740384,-0.25830078,-0.95635986,-0.090148926,0.0625,0.609375,0.140625
1665673740428,-0.25878906,-0.9619751,-0.09527588,1.171875,0.015625,-0.359375
1665673740490,-0.28564453,-0.96099854,-0.08526611,-0.53125,1.515625,0.203125
1665673740504,-0.2697754,-0.9639282,-0.09259033,1.296875,-0.296875,-0.34375
1665673740549,-0.27661133,-0.96099854,-0.085510254,-0.859375,0.34375,-0.6875
1665673740593,-0.2685547,-0.9607544,-0.10284424,1.609375,-0.25,-0.328125
1665673740623,-0.26293945,-0.9680786,-0.08453369,1.0625,-0.140625,-0.015625
1665673740669,-0.27514648,-0.9619751,-0.093322754,0.109375,0.4375,-0.140625
1665673740713,-0.26171875,-0.9595337,-0.09991455,1.578125,-0.171875,-0.03125
1665673740758,-0.27197266,-0.95928955,-0.08306885,-0.40625,1.140625,-0.09375
1665673740790,-0.28149414,-0.9590454,-0.097229004,1.25,-1.3125,-0.515625
1665673740833,-0.26513672,-0.96466064,-0.11114502,0.546875,3.09375,0.609375
1665673740863,-0.27148438,-0.96661377,-0.07745361,1.0625,0.015625,0.0
1665673740909,-0.2705078,-0.95684814,-0.1038208,1.109375,0.75,0.140625
1665673740953,-0.2722168,-0.9631958,-0.093566895,1.15625,0.34375,0.15625
1665673740983,-0.2763672,-0.96466064,-0.101867676,0.21875,0.390625,-0.265625
1665673741028,-0.27539062,-0.96051025,-0.09893799,1.140625,-0.859375,0.0625
1665673741073,-0.26635742,-0.9590454,-0.1026001,0.109375,0.859375,0.203125
1665673741104,-0.27172852,-0.96759033,-0.09527588,0.421875,0.03125,0.0
1665673741149,-0.27001953,-0.96173096,-0.10357666,0.34375,0.0,-0.046875
1665673741225,-0.2734375,-0.95928955,-0.10089111,0.546875,-0.1875,-0.21875
1665673741227,-0.27490234,-0.96173096,-0.097961426,-0.125,0.734375,0.0625
1665673741270,-0.27246094,-0.96099854,-0.10992432,0.890625,-0.390625,-0.140625
1665673741298,-0.26757812,-0.960022,-0.09991455,-0.25,0.484375,-0.046875
1665673741344,-0.28027344,-0.95806885,-0.10333252,0.15625,0.59375,-0.015625
1665673741388,-0.27172852,-0.958313,-0.097229004,0.703125,-0.078125,-0.359375
1665673741435,-0.2722168,-0.96343994,-0.105773926,-0.25,0.203125,-0.0625
1665673741465,-0.27197266,-0.96417236,-0.11016846,1.515625,-0.484375,-0.109375
1665673741509,-0.2763672,-0.96832275,-0.09112549,-0.421875,-0.078125,0.09375
1665673741538,-0.26953125,-0.9573364,-0.11578369,1.90625,-2.015625,-0.453125
1665673741584,-0.27124023,-0.96295166,-0.11553955,-0.15625,1.984375,0.09375
1665673741629,-0.2697754,-0.96661377,-0.09454346,1.234375,-1.015625,0.046875
1665673741658,-0.26708984,-0.94000244,-0.11993408,1.4375,1.515625,0.71875
1665673741704,-0.26513672,-0.96466064,-0.112854004,2.484375,0.640625,1.015625
1665673741749,-0.27246094,-0.9585571,-0.1116333,0.15625,1.609375,0.421875
1665673741778,-0.2692871,-0.9595337,-0.11798096,2.171875,-1.5,0.484375
1665673741824,-0.26538086,-0.95269775,-0.117492676,0.671875,0.6875,0.40625
1665673741869,-0.27319336,-0.9614868,-0.10870361,0.203125,0.109375,-0.015625
1665673741900,-0.2668457,-0.9607544,-0.11553955,0.234375,-0.4375,-0.03125
1665673741944,-0.26123047,-0.9534302,-0.12310791,-0.6875,-0.296875,-0.21875
1665673741989,-0.26464844,-0.956604,-0.11236572,-0.171875,-0.203125,-0.0625
1665673742019,-0.26416016,-0.95440674,-0.11798096,-0.03125,-1.125,0.09375
1665673742064,-0.27368164,-0.95977783,-0.113098145,-0.734375,-0.875,0.109375
1665673742109,-0.26953125,-0.95928955,-0.12310791,0.625,-1.21875,0.171875
1665673742138,-0.27319336,-0.9570923,-0.10748291,-0.546875,0.296875,0.15625
1665673742183,-0.27026367,-0.95025635,-0.13214111,-0.15625,0.203125,0.234375
1665673742259,-0.2602539,-0.9612427,-0.12237549,1.0625,-0.484375,-0.296875
1665673742261,-0.26953125,-0.9595337,-0.09674072,-1.546875,1.203125,0.59375
1665673742304,-0.25512695,-0.95513916,-0.14263916,1.4375,-0.921875,-0.21875
1665673742349,-0.27001953,-0.97247314,-0.101135254,0.0,-0.140625,0.34375
1665673742393,-0.26513672,-0.95635986,-0.11651611,0.96875,-0.25,-0.046875
1665673742423,-0.26098633,-0.95880127,-0.11968994,0.03125,0.6875,0.453125
1665673742453,-0.26464844,-0.95977783,-0.12579346,0.125,-0.3125,-0.21875
1665673742499,-0.26367188,-0.96099854,-0.1194458,-0.25,-0.296875,0.453125
1665673742544,-0.25634766,-0.95513916,-0.12188721,-0.03125,-0.671875,-0.109375
1665673742573,-0.2619629,-0.96466064,-0.112854004,-0.46875,-0.375,0.3125
1665673742619,-0.25634766,-0.96343994,-0.12652588,0.59375,-0.515625,-0.203125
1665673742664,-0.25976562,-0.9607544,-0.10797119,-0.765625,0.234375,0.0
1665673742693,-0.25732422,-0.9541626,-0.124572754,0.15625,0.359375,-0.140625
1665673742739,-0.26391602,-0.9590454,-0.12579346,-0.4375,-0.171875,-0.203125
1665673742784,-0.26489258,-0.958313,-0.11627197,-0.265625,0.421875,-0.09375
1665673742813,-0.26708984,-0.9619751,-0.117248535,0.5,0.203125,-0.078125
1665673742859,-0.26757812,-0.95806885,-0.11553955,0.125,0.265625,-0.171875
1665673742904,-0.2697754,-0.9578247,-0.12506104,0.53125,-0.21875,-0.34375
1665673742933,-0.25952148,-0.9612427,-0.11895752,0.71875,0.71875,-0.21875
1665673742979,-0.26367188,-0.9614868,-0.112854004,-0.625,0.453125,-0.15625
1665673743024,-0.2644043,-0.9558716,-0.13092041,1.46875,-1.765625,-0.5
1665673743053,-0.26831055,-0.960022,-0.12261963,-1.765625,1.828125,-0.6875
1665673743099,-0.26611328,-0.9661255,-0.10479736,1.125,-1.046875,-0.140625
1665673743143,-0.26049805,-0.9483032,-0.13287354,0.59375,0.703125,-0.03125
1665673743173,-0.2705078,-0.96539307,-0.11578369,0.015625,0.53125,-0.046875
1665673743219,-0.26464844,-0.9578247,-0.12823486,0.34375,1.09375,-0.0625
1665673743264,-0.27392578,-0.95806885,-0.11236572,0.390625,-0.8125,-0.03125
1665673743293,-0.27563477,-0.96221924,-0.12310791,-0.078125,1.390625,-0.296875
1665673743339,-0.26538086,-0.9627075,-0.11431885,1.03125,0.046875,0.140625
1665673743415,-0.2709961,-0.95758057,-0.12530518,-0.078125,1.15625,-0.078125
1665673743417,-0.2626953,-0.96466064,-0.12335205,0.953125,0.15625,0.25
1665673743459,-0.2775879,-0.95880127,-0.120666504,-0.46875,0.828125,-0.3125
1665673743488,-0.25927734,-0.9590454,-0.117492676,0.5625,0.953125,0.4375
1665673743534,-0.26904297,-0.95391846,-0.11993408,0.0625,0.984375,-0.296875
1665673743579,-0.27270508,-0.9558716,-0.12310791,0.3125,0.90625,0.25
1665673743609,-0.2626953,-0.9590454,-0.124816895,1.1875,0.75,0.28125
1665673743654,-0.27416992,-0.95684814,-0.11968994,0.578125,0.65625,-0.140625
1665673743699,-0.27319336,-0.95513916,-0.12823486,0.34375,0.671875,0.03125
1665673743729,-0.25830078,-0.96099854,-0.1338501,1.28125,0.140625,-0.125
1665673743774,-0.27148438,-0.9602661,-0.10845947,-0.078125,1.140625,0.03125
1665673743819,-0.2680664,-0.9602661,-0.13800049,1.84375,-1.828125,-0.453125
1665673743849,-0.265625,-0.9546509,-0.1326294,0.15625,2.71875,0.234375
1665673743894,-0.26708984,-0.9631958,-0.105773926,0.640625,-0.640625,-0.328125
1665673743938,-0.26342773,-0.94781494,-0.14215088,0.71875,0.25,0.140625
1665673743969,-0.26464844,-0.9529419,-0.1194458,0.296875,0.234375,-0.328125
1665673744014,-0.26904297,-0.95318604,-0.13702393,-0.234375,0.71875,0.0625
1665673744059,-0.2680664,-0.960022,-0.12823486,1.15625,-1.203125,-0.21875
1665673744088,-0.28149414,-0.9553833,-0.13433838,-1.0,1.03125,-0.4375
1665673744134,-0.2734375,-0.9619751,-0.12432861,0.625,-0.46875,0.140625
1665673744179,-0.26782227,-0.95635986,-0.13433838,0.5625,0.078125,-0.140625
1665673744208,-0.27294922,-0.9590454,-0.12384033,-0.4375,1.078125,0.125
1665673744253,-0.26098633,-0.9553833,-0.13360596,1.015625,0.265625,0.0625
1665673744299,-0.26513672,-0.9529419,-0.13336182,0.25,-0.0625,0.0
1665673744330,-0.26831055,-0.9536743,-0.12554932,0.421875,0.59375,-0.140625
1665673744374,-0.27246094,-0.96173096,-0.128479,0.0625,0.53125,-0.15625
1665673744449,-0.2631836,-0.9624634,-0.13458252,0.96875,-0.515625,-0.03125
1665673744451,-0.27734375,-0.9614868,-0.12701416,-0.15625,0.9375,-0.09375
1665673744495,-0.27197266,-0.956604,-0.13726807,0.71875,0.0625,0.109375
1665673744539,-0.27197266,-0.9573364,-0.12335205,0.328125,0.21875,-0.015625
1665673744571,-0.27368164,-0.9558716,-0.13775635,0.234375,0.328125,0.109375
1665673744614,-0.27246094,-0.9534302,-0.13238525,0.828125,0.28125,-0.1875
1665673744644,-0.27685547,-0.9500122,-0.13018799,-0.140625,1.03125,0.171875
1665673744689,-0.27734375,-0.95880127,-0.1260376,0.59375,-1.90625,-0.671875
1665673744734,-0.27246094,-0.9536743,-0.15167236,0.046875,2.34375,-0.078125
1665673744763,-0.27392578,-0.96051025,-0.113098145,0.75,-0.671875,-0.234375
1665673744809,-0.26782227,-0.94854736,-0.15264893,0.8125,-0.015625,-0.171875
1665673744854,-0.27441406,-0.96221924,-0.12823486,-0.21875,0.390625,-0.171875
1665673744883,-0.27026367,-0.95025635,-0.14068604,1.34375,-1.65625,-0.4375
1665673744928,-0.2705078,-0.9627075,-0.13165283,0.0,-0.90625,-0.5
1665673744974,-0.265625,-0.9451294,-0.1404419,0.703125,-1.453125,-0.21875
1665673745006,-0.27148438,-0.9492798,-0.1375122,-0.1875,-0.09375,-0.140625
1665673745048,-0.27539062,-0.95098877,-0.13458252,0.140625,-0.1875,-0.234375
1665673745093,-0.26733398,-0.94732666,-0.13897705,0.21875,-0.21875,-0.203125
1665673745124,-0.2692871,-0.9507446,-0.1428833,-0.703125,0.3125,-0.40625
1665673745169,-0.2783203,-0.95196533,-0.14508057,0.546875,0.046875,-0.15625
1665673745213,-0.2685547,-0.95025635,-0.1362915,-0.4375,0.90625,-0.171875
1665673745243,-0.27294922,-0.954895,-0.13873291,0.109375,0.421875,-0.046875
1665673745289,-0.27075195,-0.94854736,-0.14605713,0.6875,0.109375,-0.25
1665673745334,-0.28442383,-0.9505005,-0.128479,-0.421875,0.46875,-0.109375
1665673745365,-0.27612305,-0.9585571,-0.1428833,1.046875,-0.1875,-0.3125
1665673745409,-0.2775879,-0.9558716,-0.14337158,0.015625,0.515625,0.21875
1665673745454,-0.27856445,-0.9487915,-0.13580322,0.421875,-0.140625,-0.1875
1665673745483,-0.27392578,-0.95025635,-0.14117432,-0.15625,1.28125,-0.140625
1665673745529,-0.2697754,-0.9505005,-0.144104,0.375,1.609375,0.4375
1665673745606,-0.27954102,-0.94366455,-0.14898682,1.0625,-0.046875,-0.265625
1665673745608,-0.27783203,-0.9570923,-0.12774658,-0.625,0.140625,0.265625
1665673745650,-0.27148438,-0.9561157,-0.15997314,0.6875,0.265625,-0.28125
1665673745678,-0.28442383,-0.95758057,-0.128479,2.25,-0.1875,0.546875
1665673745723,-0.2722168,-0.9463501,-0.13604736,0.140625,0.03125,-0.234375
1665673745768,-0.26831055,-0.9451294,-0.14874268,0.796875,0.78125,0.390625
1665673745798,-0.27294922,-0.95758057,-0.15509033,0.640625,0.125,-0.1875
1665673745844,-0.27172852,-0.94415283,-0.14361572,0.640625,0.90625,0.28125
1665673745887,-0.27514648,-0.9570923,-0.14459229,-0.453125,0.34375,0.234375
1665673745919,-0.28686523,-0.9414673,-0.14385986,0.5625,0.484375,0.171875
1665673745964,-0.27148438,-0.956604,-0.1404419,1.84375,-0.203125,0.234375
1665673746008,-0.27368164,-0.9507446,-0.15338135,0.484375,-0.03125,0.28125
1665673746040,-0.26757812,-0.94854736,-0.13433838,1.453125,0.09375,0.34375
1665673746084,-0.26513672,-0.95513916,-0.15704346,0.890625,-0.640625,0.03125
1665673746129,-0.27026367,-0.9585571,-0.15509033,-0.140625,0.46875,0.265625
1665673746158,-0.2783203,-0.9505005,-0.15167236,-0.5,0.65625,0.3125
1665673746204,-0.2746582,-0.94317627,-0.15167236,0.453125,-0.6875,0.0
1665673746249,-0.2788086,-0.95635986,-0.15093994,-0.625,0.6875,0.390625
1665673746279,-0.27416992,-0.9517212,-0.14678955,0.015625,0.046875,0.171875
1665673746323,-0.26733398,-0.9522095,-0.15435791,0.046875,0.59375,0.484375
1665673746369,-0.26660156,-0.94781494,-0.1572876,0.46875,0.484375,0.484375
1665673746399,-0.26831055,-0.95977783,-0.1453247,0.078125,-0.1875,0.234375
1665673746444,-0.26538086,-0.95440674,-0.15289307,0.21875,-0.4375,0.3125
1665673746489,-0.26635742,-0.95025635,-0.159729,0.921875,-0.28125,-0.25
1665673746519,-0.26831055,-0.95391846,-0.13433838,-0.859375,0.28125,0.265625
1665673746564,-0.26245117,-0.9458618,-0.16851807,0.8125,-0.59375,-0.09375
1665673746641,-0.28198242,-0.9541626,-0.14727783,0.125,1.15625,-0.046875
1665673746643,-0.26220703,-0.94976807,-0.14434814,0.828125,-0.828125,-0.453125
1665673746685,-0.26733398,-0.94903564,-0.15557861,-0.59375,1.828125,0.375
1665673746729,-0.2692871,-0.9536743,-0.15777588,0.140625,-0.578125,-0.390625
1665673746774,-0.26611328,-0.95147705,-0.15460205,0.234375,0.828125,0.09375
1665673746804,-0.27172852,-0.9561157,-0.13677979,-0.671875,-0.0625,-0.15625
1665673746835,-0.27392578,-0.9522095,-0.15484619,0.640625,0.03125,-0.265625
1665673746878,-0.26635742,-0.9529419,-0.14703369,0.0,0.03125,-0.21875
1665673746924,-0.26416016,-0.954895,-0.15948486,0.34375,0.203125,-0.078125
1665673746953,-0.26635742,-0.94732666,-0.15045166,0.140625,0.0625,-0.421875
1665673746999,-0.28100586,-0.94854736,-0.1494751,-0.1875,0.8125,0.015625
1665673747043,-0.27490234,-0.9524536,-0.15435791,0.921875,-0.09375,-0.28125
1665673747074,-0.26464844,-0.9492798,-0.15118408,0.125,0.1875,0.109375
1665673747119,-0.2705078,-0.94781494,-0.15118408,-0.015625,1.0,-0.015625
1665673747164,-0.26489258,-0.94732666,-0.14996338,0.875,-0.125,0.0
1665673747193,-0.27319336,-0.9553833,-0.1560669,-0.140625,0.46875,-0.296875
1665673747238,-0.27026367,-0.9505005,-0.14898682,0.65625,0.125,-0.265625
1665673747283,-0.25952148,-0.9536743,-0.14654541,1.0,-0.421875,-0.953125
1665673747314,-0.27539062,-0.9421997,-0.15582275,1.703125,-0.765625,-0.59375
1665673747359,-0.27124023,-0.9475708,-0.159729,1.671875,-0.546875,-0.34375
1665673747404,-0.2722168,-0.94903564,-0.15704346,0.453125,0.28125,-0.640625
1665673747435,-0.28344727,-0.956604,-0.14703369,1.078125,-0.46875,-0.171875
1665673747479,-0.25927734,-0.93878174,-0.17999268,0.796875,-0.328125,-0.5625
1665673747524,-0.2734375,-0.95196533,-0.14654541,1.859375,0.15625,-0.25
1665673747553,-0.2697754,-0.9451294,-0.16534424,0.734375,-0.671875,-0.484375
1665673747598,-0.27124023,-0.9429321,-0.16534424,0.65625,0.625,0.046875
1665673747644,-0.27954102,-0.9458618,-0.16217041,0.984375,-0.234375,-0.46875
1665673747674,-0.2668457,-0.94854736,-0.16363525,1.21875,0.171875,-0.0625
1665673747719,-0.2861328,-0.9458618,-0.17047119,-0.640625,-0.234375,-0.328125
1665673747794,-0.2734375,-0.9385376,-0.17120361,1.0,-0.046875,-0.0625
1665673747797,-0.27856445,-0.9512329,-0.16412354,0.421875,0.15625,-0.40625
1665673747870,-0.27294922,-0.94000244,-0.1663208,2.4375,-1.859375,-0.515625
1665673747874,-0.27807617,-0.93878174,-0.19586182,7.75,-4.328125,-2.140625
1665673747915,-0.28320312,-0.95269775,-0.18878174,1.390625,-2.296875,-0.546875
1665673747959,-0.28076172,-0.9360962,-0.19244385,2.578125,-2.546875,-0.59375
1665673747988,-0.27514648,-0.9446411,-0.18902588,1.28125,-1.0625,-0.203125
1665673748034,-0.25830078,-0.91119385,-0.07232666,20.3125,-25.8125,-12.90625
1665673748079,-0.31103516,-0.91412354,-0.28033447,25.265625,-26.765625,-7.453125
1665673748109,-0.3112793,-0.94903564,-0.32330322,5.0625,-7.796875,-1.375
1665673748154,-0.2734375,-0.9155884,-0.2612915,-0.6875,0.578125,0.96875
1665673748199,-0.28076172,-0.91656494,-0.27178955,-0.625,-1.390625,0.75
1665673748228,-0.2734375,-0.91485596,-0.27496338,0.25,-1.203125,0.484375
1665673748273,-0.2783203,-0.9194946,-0.27667236,-0.34375,-0.140625,0.3125
1665673748318,-0.28320312,-0.9143677,-0.27764893,1.125,-0.109375,0.640625
1665673748348,-0.2685547,-0.9180298,-0.27374268,-0.109375,-1.75,-0.453125
1665673748393,-0.27075195,-0.9089966,-0.28448486,0.90625,0.34375,0.421875
1665673748438,-0.26831055,-0.9241333,-0.27008057,0.703125,-0.5625,0.484375
1665673748469,-0.2763672,-0.91192627,-0.28009033,-0.640625,-0.21875,0.234375
1665673748514,-0.27441406,-0.9175415,-0.28253174,1.546875,-1.125,0.703125
1665673748559,-0.2685547,-0.9151001,-0.27960205,-0.28125,-0.59375,-0.125
1665673748589,-0.27148438,-0.9180298,-0.2798462,0.34375,0.125,0.484375
1665673748634,-0.2644043,-0.91412354,-0.27398682,-0.296875,-0.609375,0.34375
1665673748679,-0.26708984,-0.9155884,-0.2756958,0.046875,0.21875,-0.1875
1665673748709,-0.26489258,-0.9102173,-0.29351807,0.8125,-0.6875,0.078125
1665673748754,-0.26660156,-0.90997314,-0.27789307,-0.078125,0.0625,0.5625
1665673748829,-0.27172852,-0.9155884,-0.2883911,0.0,-0.34375,0.171875
1665673748832,-0.26708984,-0.9182739,-0.27960205,0.71875,-0.140625,0.3125
1665673748874,-0.26733398,-0.90997314,-0.28204346,0.078125,-0.359375,0.21875
1665673748922,-0.27270508,-0.9209595,-0.2810669,0.265625,0.359375,0.03125
1665673748979,-0.26904297,-0.9155884,-0.28375244,0.8125,-0.546875,-0.296875
1665673748993,-0.26953125,-0.9168091,-0.28033447,-0.109375,0.5625,0.71875
1665673749024,-0.26733398,-0.91119385,-0.28399658,0.78125,-0.84375,-0.140625
1665673749069,-0.26782227,-0.91192627,-0.28375244,-0.28125,1.046875,0.46875
1665673749114,-0.26733398,-0.9258423,-0.28253174,0.4375,-0.375,0.296875
1665673749144,-0.26171875,-0.90802,-0.28814697,-0.171875,-0.46875,-0.09375
1665673749189,-0.2590332,-0.91192627,-0.29400635,0.578125,-0.5,0.34375
1665673749234,-0.27075195,-0.9133911,-0.27471924,-0.53125,-0.09375,0.9375
1665673749264,-0.26293945,-0.9168091,-0.29522705,1.15625,-3.375,-0.75
1665673749309,-0.26879883,-0.9209595,-0.29742432,0.9375,1.296875,0.46875
1665673749354,-0.26513672,-0.9234009,-0.26641846,-0.484375,-0.671875,0.390625
1665673749384,-0.25634766,-0.9019165,-0.2937622,-0.296875,-0.171875,-0.015625
1665673749429,-0.2626953,-0.92510986,-0.2793579,-0.421875,0.40625,0.15625
1665673749474,-0.25952148,-0.9143677,-0.28863525,0.5,0.015625,-0.203125
1665673749504,-0.26098633,-0.9168091,-0.27423096,-1.0,0.09375,0.21875
1665673749549,-0.265625,-0.9085083,-0.2949829,-0.421875,-0.375,-0.640625
1665673749594,-0.2602539,-0.925354,-0.2781372,-0.140625,0.296875,0.109375
1665673749624,-0.2590332,-0.90875244,-0.28204346,-0.40625,-0.4375,0.03125
1665673749669,-0.25805664,-0.9126587,-0.2805786,-0.34375,0.375,0.09375
1665673749730,-0.2626953,-0.9138794,-0.2901001,-0.46875,0.109375,0.015625
1665673749744,-0.25732422,-0.9168091,-0.2744751,0.265625,-0.234375,0.0
1665673749789,-0.25854492,-0.92193604,-0.28131104,-0.34375,0.296875,0.046875
1665673749834,-0.26000977,-0.91485596,-0.284729,0.296875,-0.46875,-0.125
1665673749863,-0.25708008,-0.9158325,-0.28082275,-0.0625,-0.078125,-0.015625
1665673749910,-0.25610352,-0.92144775,-0.2835083,-0.625,0.140625,0.046875
1665673749953,-0.2614746,-0.92315674,-0.27911377,0.3125,-0.21875,-0.203125
1665673749984,-0.26049805,-0.91729736,-0.27496338,-0.296875,0.3125,-0.078125
1665673750029,-0.26538086,-0.9221802,-0.28131104,-0.0625,0.125,-0.1875
1665673750058,-0.2602539,-0.91607666,-0.28155518,0.21875,-0.46875,-0.21875
1665673750103,-0.26220703,-0.9175415,-0.2695923,-0.90625,1.125,0.0625
1665673750148,-0.2512207,-0.91851807,-0.2925415,1.15625,-2.5625,-0.796875
1665673750179,-0.2692871,-0.9221802,-0.28424072,-0.078125,1.453125,0.484375
1665673750224,-0.25268555,-0.9192505,-0.26885986,0.140625,-0.484375,-0.328125
1665673750269,-0.25683594,-0.9102173,-0.28961182,-0.046875,0.40625,0.328125
1665673750298,-0.2644043,-0.9282837,-0.27423096,-0.28125,0.25,-0.0625
1665673750344,-0.2529297,-0.91534424,-0.29229736,0.296875,0.421875,0.0
1665673750389,-0.2590332,-0.9155884,-0.2678833,-0.5625,-0.234375,0.171875
1665673750418,-0.26904297,-0.9180298,-0.2883911,-0.140625,0.40625,0.203125
1665673750464,-0.25463867,-0.927063,-0.2805786,0.1875,-0.34375,-0.28125
1665673750509,-0.25390625,-0.9192505,-0.286438,-0.296875,0.375,0.5
1665673750541,-0.2565918,-0.9209595,-0.27496338,-0.3125,0.125,0.015625
1665673750584,-0.2553711,-0.9180298,-0.28277588,-0.21875,0.3125,0.3125
1665673750629,-0.25585938,-0.9221802,-0.27105713,-0.59375,0.328125,0.078125
1665673750658,-0.2524414,-0.92193604,-0.27911377,0.34375,0.109375,-0.109375
1665673750704,-0.25439453,-0.9168091,-0.2805786,-0.453125,0.21875,0.078125
1665673750749,-0.2548828,-0.9170532,-0.27423096,0.625,0.0,-0.015625
1665673750779,-0.2626953,-0.92437744,-0.27496338,0.015625,0.703125,0.015625
1665673750824,-0.2512207,-0.9246216,-0.27301025,0.671875,0.296875,-0.015625
1665673750869,-0.26000977,-0.9194946,-0.2774048,0.53125,-0.09375,-0.109375
1665673750901,-0.25268555,-0.9116821,-0.27789307,0.0625,0.390625,0.125
1665673750944,-0.25219727,-0.9170532,-0.28619385,1.296875,-0.671875,0.046875
1665673750989,-0.26708984,-0.92144775,-0.26104736,-0.453125,0.8125,0.515625
1665673751019,-0.25170898,-0.911438,-0.2937622,1.3125,-2.21875,-0.671875
1665673751064,-0.26049805,-0.9170532,-0.28814697,1.171875,0.828125,-0.015625
1665673751109,-0.25512695,-0.925354,-0.2732544,0.375,-0.625,0.09375
1665673751141,-0.2536621,-0.9060669,-0.2913208,0.125,0.328125,0.171875
1665673751184,-0.2644043,-0.928772,-0.27960205,0.21875,-0.015625,0.171875
1665673751214,-0.24975586,-0.91241455,-0.28253174,1.1875,0.078125,0.578125
1665673751260,-0.25708008,-0.9204712,-0.27398682,-0.390625,-0.375,0.234375
1665673751304,-0.25219727,-0.911438,-0.28985596,0.546875,-0.34375,0.15625
1665673751333,-0.2524414,-0.9241333,-0.28155518,0.234375,-0.34375,-0.09375
1665673751379,-0.25195312,-0.9192505,-0.29083252,0.375,0.421875,0.46875
1665673751424,-0.2614746,-0.9192505,-0.2859497,0.703125,-0.203125,-0.171875
1665673751469,-0.25073242,-0.9180298,-0.2859497,1.34375,-0.296875,0.296875
1665673751498,-0.25634766,-0.9273071,-0.2805786,0.15625,0.421875,0.125
1665673751544,-0.24780273,-0.91241455,-0.2942505,1.015625,-1.0625,0.15625
1665673751574,-0.25732422,-0.9180298,-0.28302002,-0.046875,0.5625,-0.0625
1665673751650,-0.24926758,-0.9194946,-0.29034424,0.859375,-0.375,0.25
1665673751663,-0.25341797,-0.911438,-0.28448486,0.015625,-0.421875,0.453125
1665673751694,-0.25317383,-0.9221802,-0.29815674,9.625,-4.109375,-1.703125
1665673751739,-0.25195312,-0.91363525,-0.32403564,3.890625,-3.421875,-0.53125
1665673751784,-0.24780273,-0.90875244,-0.30426025,0.53125,-0.734375,0.640625
1665673751813,-0.25,-0.9092407,-0.32086182,0.78125,-0.59375,-0.28125
1665673751859,-0.24243164,-0.9002075,-0.30133057,1.34375,-0.984375,0.921875
1665673751904,-0.25878906,-0.92388916,-0.30426025,-0.296875,-0.984375,-0.234375
1665673751933,-0.23461914,-0.90460205,-0.33258057,1.75,-1.578125,-0.78125
1665673751979,-0.24609375,-0.9089966,-0.31622314,3.390625,-0.75,0.203125
1665673752024,-0.25024414,-0.90509033,-0.32232666,0.078125,-0.890625,-0.109375
1665673752054,-0.23950195,-0.9072876,-0.32281494,2.421875,-0.703125,-0.234375
1665673752099,-0.24023438,-0.90411377,-0.33380127,0.671875,-0.90625,-0.109375
1665673752144,-0.2397461,-0.9031372,-0.31915283,1.703125,-0.3125,0.4375
1665673752189,-0.25341797,-0.90997314,-0.32354736,0.5,-1.078125,-0.21875
1665673752218,-0.24047852,-0.9048462,-0.33599854,1.015625,-0.015625,-0.3125
1665673752264,-0.24145508,-0.9085083,-0.32647705,0.1875,0.25,0.125
1665673752294,-0.24316406,-0.8987427,-0.3279419,0.203125,0.28125,0.046875
1665673752339,-0.24072266,-0.9019165,-0.33673096,0.578125,-0.28125,-0.015625
1665673752369,-0.24389648,-0.90509033,-0.32476807,0.359375,0.234375,0.09375
1665673752414,-0.24169922,-0.8989868,-0.33428955,0.4375,-0.25,-0.140625
1665673752459,-0.23779297,-0.91192627,-0.33111572,0.4375,-0.140625,-0.125
1665673752489,-0.24414062,-0.8987427,-0.33868408,0.734375,-0.03125,-0.46875
1665673752534,-0.23828125,-0.89385986,-0.32867432,0.578125,0.265625,0.203125
1665673752579,-0.24707031,-0.9024048,-0.3357544,0.421875,-0.34375,0.109375
1665673752609,-0.23876953,-0.9002075,-0.3394165,0.890625,-0.125,-0.03125
1665673752669,-0.24536133,-0.9024048,-0.33111572,0.703125,0.21875,-0.109375
1665673752699,-0.24023438,-0.9006958,-0.33892822,0.796875,0.0625,0.125
1665673752728,-0.2397461,-0.90875244,-0.33258057,-0.203125,1.46875,0.375
1665673752773,-0.24584961,-0.9024048,-0.33721924,0.765625,-0.875,0.09375
1665673752819,-0.24169922,-0.89849854,-0.32940674,-0.296875,-0.015625,0.296875
1665673752848,-0.23608398,-0.90093994,-0.35186768,0.265625,-0.546875,-0.625
1665673752893,-0.24047852,-0.9014282,-0.33721924,1.828125,-0.578125,0.296875
1665673752940,-0.23364258,-0.8977661,-0.33673096,0.0,-0.296875,0.125
1665673752969,-0.23754883,-0.894104,-0.34210205,0.71875,-0.046875,0.203125
1665673753014,-0.23535156,-0.90631104,-0.35064697,0.203125,-0.328125,-0.265625
1665673753059,-0.23291016,-0.9067993,-0.33233643,0.734375,0.40625,0.5625
1665673753089,-0.23754883,-0.90093994,-0.3267212,0.046875,-0.703125,0.828125
1665673753134,-0.23779297,-0.8945923,-0.34625244,0.125,0.609375,0.421875
1665673753180,-0.22973633,-0.90997314,-0.33721924,0.25,-0.203125,0.125
1665673753209,-0.23901367,-0.90093994,-0.3423462,0.515625,-0.25,0.109375
1665673753254,-0.2368164,-0.8999634,-0.34429932,-0.0625,0.46875,0.765625
1665673753299,-0.23461914,-0.9011841,-0.33746338,0.109375,0.484375,0.421875
1665673753329,-0.23535156,-0.89971924,-0.34161377,-0.0625,0.546875,0.109375
1665673753374,-0.22265625,-0.8977661,-0.3381958,0.140625,0.265625,0.640625
1665673753419,-0.23950195,-0.9002075,-0.34283447,-1.015625,0.828125,-0.015625
1665673753449,-0.22827148,-0.9038696,-0.347229,0.5625,-0.5,0.0625
1665673753494,-0.23071289,-0.9031372,-0.33673096,-0.4375,0.671875,0.40625
1665673753524,-0.2355957,-0.8994751,-0.34088135,0.171875,0.34375,0.0625
1665673753569,-0.22851562,-0.9026489,-0.33428955,0.65625,-0.234375,0.4375
1665673753613,-0.22949219,-0.89801025,-0.34625244,0.046875,-0.21875,-0.125
1665673753645,-0.22875977,-0.90704346,-0.3435669,0.3125,0.078125,0.453125
1665673753688,-0.23876953,-0.9053345,-0.33868408,-0.34375,-0.140625,0.078125
1665673753733,-0.22924805,-0.9026489,-0.33624268,-0.171875,-0.1875,-0.09375
1665673753764,-0.22387695,-0.9002075,-0.3406372,-0.015625,0.21875,0.0625
1665673753809,-0.23706055,-0.90753174,-0.32598877,0.078125,0.5625,0.15625
1665673753854,-0.22216797,-0.89727783,-0.34698486,-0.296875,-0.421875,-0.578125
1665673753883,-0.2319336,-0.90093994,-0.34674072,0.3125,0.40625,0.328125
1665673753929,-0.22705078,-0.9024048,-0.33770752,-0.46875,0.375,-0.328125
1665673753974,-0.22875977,-0.9002075,-0.3406372,1.015625,0.53125,0.40625
1665673754003,-0.22851562,-0.9048462,-0.33428955,-0.609375,-0.625,0.046875
1665673754049,-0.23901367,-0.89801025,-0.33477783,-1.0,1.0625,-0.109375
1665673754093,-0.21899414,-0.8999634,-0.33770752,0.59375,-1.171875,-0.296875
1665673754124,-0.22753906,-0.89849854,-0.34332275,-0.296875,0.46875,0.296875
1665673754169,-0.22509766,-0.9019165,-0.33380127,-0.3125,-0.015625,-0.09375
1665673754214,-0.23706055,-0.90826416,-0.347229,0.125,0.0,-0.109375
1665673754244,-0.23242188,-0.8987427,-0.3225708,-0.25,-0.078125,0.09375
1665673754289,-0.2319336,-0.90045166,-0.3423462,-0.515625,1.0,-0.28125
1665673754334,-0.22998047,-0.90093994,-0.33746338,0.71875,-1.140625,-0.109375
1665673754364,-0.22851562,-0.90216064,-0.331604,-0.671875,1.28125,0.0625
1665673754409,-0.23046875,-0.9143677,-0.3369751,0.859375,-0.34375,-0.140625
1665673754438,-0.22607422,-0.9043579,-0.32965088,-0.078125,-0.0625,0.140625
1665673754484,-0.2355957,-0.9024048,-0.33917236,-0.375,0.765625,-0.234375
1665673754529,-0.22973633,-0.90582275,-0.3255005,-0.34375,0.46875,0.109375
1665673754559,-0.22802734,-0.89801025,-0.3430786,0.109375,-1.0625,-0.453125
1665673754604,-0.22851562,-0.8960571,-0.35162354,0.015625,0.96875,0.15625
1665673754649,-0.23291016,-0.9116821,-0.3164673,0.53125,-0.28125,0.0625
1665673754678,-0.22998047,-0.8945923,-0.3352661,-0.375,0.21875,0.375
1665673754724,-0.23095703,-0.90460205,-0.3423462,-0.1875,0.265625,-0.34375
1665673754769,-0.2277832,-0.8977661,-0.33892822,0.5625,-0.03125,0.21875
1665673754799,-0.234375,-0.9102173,-0.32989502,-0.25,1.09375,0.171875
1665673754844,-0.22143555,-0.8989868,-0.3406372,0.578125,-0.140625,-0.09375
1665673754888,-0.22753906,-0.90997314,-0.3291626,-0.3125,0.9375,0.078125
1665673754920,-0.22387695,-0.9014282,-0.34405518,0.578125,-0.875,-0.390625
1665673754965,-0.22607422,-0.8970337,-0.33892822,-0.265625,0.671875,0.46875
1665673755009,-0.23217773,-0.9043579,-0.33380127,0.0,-0.1875,0.234375
1665673755040,-0.22949219,-0.9031372,-0.3357544,0.46875,-0.03125,-0.09375
1665673755085,-0.22924805,-0.9026489,-0.33551025,0.078125,0.453125,0.21875
1665673755128,-0.22973633,-0.9036255,-0.34259033,1.328125,-0.734375,-0.234375
1665673755158,-0.22241211,-0.90045166,-0.33477783,-0.40625,0.8125,-0.390625
1665673755204,-0.2199707,-0.9116821,-0.34674072,1.59375,-0.390625,0.15625
1665673755248,-0.22729492,-0.90411377,-0.33233643,0.28125,0.4375,0.0625
1665673755278,-0.23706055,-0.9077759,-0.33966064,0.9375,-0.125,-0.359375
1665673755324,-0.22143555,-0.8948364,-0.34429932,1.15625,-0.703125,-0.21875
1665673755369,-0.22607422,-0.89801025,-0.33746338,1.28125,0.578125,0.046875
1665673755401,-0.23510742,-0.90338135,-0.35235596,0.09375,-0.90625,-0.5
1665673755460,-0.21875,-0.89385986,-0.35064697,1.28125,-0.609375,-0.234375
1665673755491,-0.23217773,-0.9104614,-0.34136963,2.625,-0.328125,0.5625
1665673755519,-0.2319336,-0.895813,-0.348938,0.53125,-0.484375,-0.421875
1665673755564,-0.22387695,-0.89630127,-0.3501587,2.359375,-0.78125,0.0625
1665673755594,-0.22021484,-0.90093994,-0.35601807,1.1875,-0.703125,-0.203125
1665673755639,-0.22485352,-0.8999634,-0.35308838,1.5,0.359375,0.46875
1665673755684,-0.22680664,-0.894104,-0.35162354,0.5,-0.640625,-0.421875
1665673755714,-0.23168945,-0.8936157,-0.35723877,1.3125,0.109375,-0.125
1665673755759,-0.22192383,-0.8880005,-0.36065674,1.265625,-1.140625,-0.34375
1665673755804,-0.21826172,-0.8850708,-0.35992432,0.484375,0.03125,-0.109375
1665673755835,-0.21899414,-0.8960571,-0.3633423,1.296875,-1.1875,0.0625
1665673755879,-0.22558594,-0.88897705,-0.37017822,0.453125,0.484375,-0.203125
1665673755924,-0.2290039,-0.8987427,-0.3665161,0.828125,-0.96875,0.109375
1665673755954,-0.22338867,-0.89019775,-0.36090088,0.5,0.015625,-0.09375
1665673755999,-0.22021484,-0.8897095,-0.37774658,1.171875,-0.4375,-0.21875
1665673756044,-0.21362305,-0.89434814,-0.37017822,0.96875,-0.765625,0.015625
1665673756074,-0.22875977,-0.89263916,-0.36773682,0.859375,0.328125,-0.1875
1665673756118,-0.22338867,-0.88946533,-0.3748169,1.03125,-0.578125,0.375
1665673756165,-0.22387695,-0.89312744,-0.3670044,0.296875,0.078125,0.28125
1665673756193,-0.234375,-0.8921509,-0.37579346,0.859375,0.640625,-0.265625
1665673756238,-0.21118164,-0.8777466,-0.37872314,1.140625,-1.421875,0.046875
1665673756284,-0.23510742,-0.89678955,-0.3706665,1.046875,0.65625,0.671875
1665673756313,-0.21704102,-0.88409424,-0.37554932,0.984375,-2.046875,-0.59375
1665673756359,-0.2241211,-0.8821411,-0.38580322,2.9375,0.0625,-0.0625
1665673756405,-0.21533203,-0.8882446,-0.36260986,0.34375,-1.03125,0.171875
1665673756436,-0.22290039,-0.878479,-0.38702393,0.5625,0.9375,-0.078125
1665673756479,-0.21606445,-0.8833618,-0.3862915,1.421875,-2.046875,-0.015625
1665673756524,-0.21923828,-0.8862915,-0.37945557,0.859375,0.21875,-0.0625
1665673756553,-0.22314453,-0.88897705,-0.37823486,0.5625,-0.859375,0.0625
1665673756600,-0.21386719,-0.8855591,-0.39337158,0.484375,0.0625,-0.5
1665673756629,-0.21875,-0.8916626,-0.37994385,0.390625,-0.53125,-0.1875
1665673756674,-0.2133789,-0.8814087,-0.39141846,0.078125,0.4375,-0.15625
1665673756719,-0.21264648,-0.88482666,-0.38604736,0.796875,-0.265625,0.09375
1665673756749,-0.22167969,-0.8862915,-0.38970947,-0.125,1.0,0.140625
1665673756794,-0.2133789,-0.88116455,-0.3899536,0.71875,-0.59375,0.0
1665673756839,-0.22143555,-0.88531494,-0.38726807,0.4375,0.53125,0.3125
1665673756871,-0.21582031,-0.8858032,-0.38311768,0.25,0.25,0.28125
1665673756914,-0.21606445,-0.88238525,-0.3809204,0.640625,-0.46875,0.0
1665673756959,-0.21435547,-0.87994385,-0.3875122,0.46875,-0.21875,0.1875
1665673756989,-0.2109375,-0.87994385,-0.3880005,-0.21875,0.25,0.140625
1665673757034,-0.21948242,-0.87823486,-0.39019775,0.65625,0.28125,0.03125
1665673757080,-0.21240234,-0.8735962,-0.38531494,0.234375,0.234375,0.171875
1665673757109,-0.21533203,-0.88360596,-0.38775635,-0.4375,0.78125,0.109375
1665673757154,-0.21289062,-0.87506104,-0.40118408,0.296875,-0.890625,0.25
1665673757198,-0.22680664,-0.8855591,-0.3748169,0.015625,2.59375,0.6875
1665673757229,-0.21362305,-0.88287354,-0.3862915,0.859375,-2.0625,-0.5
1665673757274,-0.2199707,-0.8748169,-0.39337158,0.03125,1.84375,0.15625
1665673757318,-0.21044922,-0.89508057,-0.3772583,0.0,-0.0625,0.234375
1665673757349,-0.21508789,-0.87335205,-0.4019165,-0.765625,0.8125,0.140625
1665673757394,-0.21655273,-0.88775635,-0.38702393,0.15625,-0.125,0.328125
1665673757439,-0.21923828,-0.8779907,-0.3862915,-0.25,0.03125,0.109375
1665673757471,-0.22167969,-0.89190674,-0.37457275,-0.640625,0.8125,0.390625
1665673757514,-0.20703125,-0.881897,-0.38946533,-0.203125,-0.921875,-1.078125
1665673757559,-0.2109375,-0.88848877,-0.38580322,0.078125,0.125,0.078125
1665673757589,-0.20922852,-0.88409424,-0.3838501,-0.46875,0.109375,-0.140625
1665673757633,-0.21557617,-0.8814087,-0.38970947,0.046875,0.015625,0.171875
1665673757679,-0.21264648,-0.88726807,-0.38897705,-0.875,0.234375,-0.21875
1665673757711,-0.2163086,-0.8814087,-0.3867798,-0.265625,-0.0625,-0.296875
1665673757754,-0.21386719,-0.8855591,-0.38067627,0.265625,-0.078125,0.0625
1665673757783,-0.21020508,-0.8845825,-0.38970947,0.203125,-0.203125,-0.375
1665673757828,-0.21240234,-0.87872314,-0.38604736,-0.140625,0.5625,-0.078125
1665673757874,-0.22265625,-0.8933716,-0.38482666,-0.09375,0.171875,-0.125
1665673757905,-0.2121582,-0.8838501,-0.37945557,-0.34375,0.4375,-0.375
1665673757949,-0.21459961,-0.88726807,-0.38433838,-0.09375,0.0625,0.203125
1665673757994,-0.21484375,-0.89068604,-0.3772583,-0.84375,0.234375,-0.375
1665673758024,-0.20385742,-0.88067627,-0.394104,-0.078125,0.21875,-0.03125
1665673758084,-0.21850586,-0.8838501,-0.3772583,0.03125,-0.5625,0.625
1665673758114,-0.22045898,-0.89678955,-0.37823486,-0.4375,1.390625,-0.125
1665673758144,-0.20361328,-0.87872314,-0.39141846,0.859375,-1.90625,-0.015625
1665673758189,-0.2133789,-0.89801025,-0.37261963,-0.328125,1.078125,0.125
1665673758233,-0.21264648,-0.8845825,-0.38653564,0.828125,-0.828125,-0.015625
1665673758264,-0.20361328,-0.88897705,-0.38458252,-0.859375,1.484375,0.3125
1665673758309,-0.22070312,-0.89019775,-0.39508057,-0.203125,-0.375,-0.25
1665673758353,-0.19897461,-0.8796997,-0.38555908,0.203125,-0.09375,0.046875
1665673758384,-0.22631836,-0.89190674,-0.3640747,-1.0625,0.171875,0.140625
1665673758429,-0.21875,-0.881897,-0.39678955,0.640625,-0.53125,-0.609375
1665673758474,-0.2121582,-0.8970337,-0.36895752,0.203125,-0.46875,0.234375
1665673758504,-0.21069336,-0.8845825,-0.37872314,-1.109375,0.75,-0.0625
1665673758549,-0.2055664,-0.8843384,-0.38360596,0.3125,-0.71875,-0.234375
1665673758594,-0.20947266,-0.8867798,-0.3760376,-0.1875,0.546875,0.484375
1665673758624,-0.21557617,-0.88287354,-0.3789673,-0.078125,0.640625,-0.03125
1665673758669,-0.20507812,-0.88360596,-0.38165283,0.359375,-0.53125,0.265625
1665673758714,-0.21923828,-0.8904419,-0.380188,-0.46875,0.828125,0.5625
1665673758744,-0.2055664,-0.89019775,-0.37774658,0.21875,-0.15625,-0.390625
1665673758789,-0.21191406,-0.88165283,-0.38287354,0.125,0.65625,0.125
1665673758819,-0.20605469,-0.8921509,-0.37335205,0.109375,0.453125,0.140625
1665673758864,-0.20678711,-0.8838501,-0.38482666,0.125,0.609375,0.109375
1665673758909,-0.2019043,-0.88409424,-0.36920166,0.59375,-0.375,0.375
1665673758938,-0.21166992,-0.8882446,-0.3875122,-0.328125,0.0,0.0
1665673758984,-0.21704102,-0.8880005,-0.3633423,0.734375,1.046875,0.28125
1665673759029,-0.20092773,-0.8855591,-0.38482666,0.34375,-1.34375,-0.640625
1665673759058,-0.21899414,-0.89801025,-0.3838501,0.90625,1.234375,0.234375
1665673759104,-0.20727539,-0.8850708,-0.3670044,0.015625,-0.078125,-0.4375
1665673759149,-0.20288086,-0.88165283,-0.38970947,0.40625,-0.09375,0.3125
1665673759179,-0.21801758,-0.8897095,-0.3772583,-0.578125,0.34375,0.1875
1665673759225,-0.21582031,-0.88116455,-0.3892212,1.0625,-0.125,0.03125
1665673759269,-0.20947266,-0.8965454,-0.3743286,-0.015625,0.71875,0.390625
1665673759299,-0.21191406,-0.881897,-0.3850708,0.265625,0.625,-0.40625
1665673759344,-0.2019043,-0.88726807,-0.39068604,1.234375,-0.1875,0.03125
1665673759389,-0.2175293,-0.8887329,-0.37286377,-0.234375,-0.0625,0.453125
1665673759419,-0.21484375,-0.88531494,-0.3887329,0.484375,0.265625,-0.078125
1665673759464,-0.20996094,-0.89556885,-0.3838501,0.421875,-0.171875,0.296875
1665673759509,-0.21850586,-0.88482666,-0.39239502,-0.125,1.109375,-0.03125
1665673759539,-0.20629883,-0.8867798,-0.39093018,1.375,-0.390625,0.21875
1665673759584,-0.20751953,-0.8862915,-0.3826294,-0.140625,0.53125,0.109375
1665673759629,-0.20654297,-0.8838501,-0.39556885,1.359375,-0.421875,-0.21875
1665673759659,-0.20483398,-0.8838501,-0.3862915,0.6875,0.015625,0.3125
1665673759719,-0.20922852,-0.88482666,-0.3862915,0.5,1.5,-0.296875
1665673759748,-0.20458984,-0.8833618,-0.3875122,1.5,-0.421875,0.3125
1665673759779,-0.21142578,-0.8804321,-0.38116455,0.0,0.34375,0.0
1665673759824,-0.2133789,-0.8845825,-0.40216064,0.921875,-0.046875,0.0625
1665673759869,-0.20776367,-0.8870239,-0.37799072,0.921875,0.078125,0.1875
1665673759898,-0.2084961,-0.8833618,-0.39605713,0.296875,-0.578125,-0.390625
1665673759945,-0.20092773,-0.8792114,-0.40118408,1.046875,-0.046875,-0.125
1665673759974,-0.20581055,-0.8875122,-0.3821411,1.453125,0.09375,0.453125
1665673760020,-0.20800781,-0.8777466,-0.40704346,0.40625,-0.3125,-0.203125
1665673760064,-0.2019043,-0.88482666,-0.39508057,1.21875,-0.21875,0.296875
1665673760093,-0.20336914,-0.8792114,-0.39898682,0.34375,-0.015625,-0.640625
1665673760139,-0.20654297,-0.87750244,-0.39996338,1.234375,0.25,0.46875
1665673760184,-0.19921875,-0.8792114,-0.39117432,0.421875,-1.109375,-0.203125
1665673760215,-0.20703125,-0.87823486,-0.40948486,1.03125,0.109375,0.125
1665673760259,-0.20898438,-0.8831177,-0.39752197,0.265625,-0.40625,-0.046875
1665673760304,-0.20581055,-0.87384033,-0.395813,0.625,0.484375,0.34375
1665673760334,-0.2006836,-0.8772583,-0.4024048,-0.234375,0.421875,-0.15625
1665673760379,-0.20800781,-0.88067627,-0.411438,0.40625,-0.375,0.234375
1665673760424,-0.20263672,-0.8779907,-0.4006958,-0.015625,0.078125,0.203125
1665673760469,-0.20605469,-0.8792114,-0.40289307,0.109375,0.28125,-0.21875
1665673760499,-0.2006836,-0.88116455,-0.4043579,0.625,0.265625,0.03125
1665673760544,-0.20410156,-0.8814087,-0.40533447,-0.078125,0.28125,0.109375
1665673760575,-0.20019531,-0.8777466,-0.4006958,0.375,0.5,-0.25
1665673760619,-0.20166016,-0.8838501,-0.40753174,0.671875,-0.09375,-0.015625
1665673760664,-0.2019043,-0.8777466,-0.39239502,-0.171875,0.078125,0.5625
1665673760709,-0.20483398,-0.880188,-0.41461182,0.34375,0.109375,-0.234375
1665673760755,-0.19897461,-0.8792114,-0.40142822,0.421875,0.34375,0.828125
1665673760784,-0.20654297,-0.8796997,-0.40631104,0.0625,-0.046875,-0.34375
1665673760814,-0.2019043,-0.87457275,-0.4151001,0.953125,-0.421875,-0.28125
1665673760860,-0.20043945,-0.8755493,-0.39801025,0.265625,0.546875,0.6875
1665673760904,-0.2019043,-0.8748169,-0.41192627,0.078125,-0.140625,-0.09375
1665673760937,-0.19238281,-0.87872314,-0.41046143,0.875,0.359375,0.28125
1665673760979,-0.19311523,-0.8711548,-0.41046143,0.109375,-0.5,0.65625
1665673761009,-0.20385742,-0.88604736,-0.39630127,0.4375,1.140625,0.59375
1665673761054,-0.19482422,-0.87628174,-0.4072876,1.140625,-1.34375,-0.28125
1665673761098,-0.19946289,-0.8809204,-0.4048462,0.25,0.59375,0.46875
1665673761129,-0.19799805,-0.8792114,-0.40753174,-0.234375,0.15625,-0.171875
1665673761174,-0.18945312,-0.8772583,-0.4102173,0.4375,-0.203125,0.234375
1665673761220,-0.19433594,-0.878479,-0.4036255,-0.59375,0.40625,0.109375
1665673761249,-0.20214844,-0.87677,-0.4126587,0.296875,-0.046875,0.0
1665673761295,-0.1977539,-0.87164307,-0.41119385,0.203125,0.5625,0.15625
1665673761339,-0.19799805,-0.8753052,-0.4055786,0.28125,0.375,0.21875
1665673761368,-0.19848633,-0.87213135,-0.40509033,0.390625,-0.03125,-0.140625
1665673761415,-0.19384766,-0.8765259,-0.40802002,0.125,0.9375,0.140625
1665673761459,-0.20019531,-0.881897,-0.40338135,0.390625,0.453125,0.109375
1665673761489,-0.19848633,-0.8821411,-0.4109497,0.203125,-0.03125,-0.0625
1665673761536,-0.19897461,-0.88116455,-0.41412354,0.265625,0.234375,0.09375
1665673761579,-0.19897461,-0.87457275,-0.40533447,-0.421875,0.5625,-0.328125
1665673761611,-0.19799805,-0.8765259,-0.40582275,0.109375,-0.53125,-0.984375
1665673761655,-0.1862793,-0.8687134,-0.41729736,0.5,-0.09375,-0.4375
1665673761699,-0.20263672,-0.88848877,-0.39971924,0.609375,0.546875,0.1875
1665673761729,-0.19726562,-0.8718872,-0.40899658,0.109375,-0.453125,-0.515625
1665673761774,-0.19580078,-0.87994385,-0.4109497,-0.140625,0.703125,0.125
1665673761820,-0.19726562,-0.8792114,-0.41900635,0.125,-0.15625,-0.640625
1665673761849,-0.19946289,-0.87213135,-0.40216064,0.65625,0.421875,0.46875
1665673761895,-0.20019531,-0.8755493,-0.3982544,-0.921875,-0.984375,-0.75
1665673761941,-0.20361328,-0.87701416,-0.41314697,-0.296875,0.71875,0.015625
1665673761969,-0.19946289,-0.8809204,-0.39605713,-0.3125,-0.328125,-0.359375
1665673762015,-0.19799805,-0.8777466,-0.4121704,-0.53125,0.5625,-0.15625
1665673762060,-0.1940918,-0.8843384,-0.40093994,-0.09375,0.328125,0.078125
1665673762088,-0.19750977,-0.8740845,-0.40875244,-0.3125,0.015625,-0.3125
1665673762135,-0.19628906,-0.87701416,-0.41119385,-0.203125,0.03125,0.21875
1665673762163,-0.19799805,-0.87701416,-0.3977661,-0.21875,0.046875,0.125
1665673762212,-0.20336914,-0.8748169,-0.41046143,-0.03125,0.40625,0.03125
1665673762254,-0.20458984,-0.87701416,-0.40411377,0.0,0.734375,0.0
1665673762285,-0.19750977,-0.87823486,-0.40264893,0.71875,0.734375,0.21875
1665673762330,-0.21142578,-0.8831177,-0.4024048,-0.46875,0.375,-0.375
1665673762375,-0.20043945,-0.87335205,-0.41241455,0.859375,0.53125,-0.140625
1665673762407,-0.19726562,-0.87823486,-0.40020752,0.21875,0.78125,0.171875
1665673762449,-0.20458984,-0.8845825,-0.4055786,-0.328125,-0.171875,-0.515625
1665673762495,-0.19213867,-0.862854,-0.4180298,0.09375,0.375,0.1875
1665673762524,-0.20825195,-0.88482666,-0.3928833,0.421875,0.234375,0.21875
1665673762570,-0.19433594,-0.8674927,-0.4085083,-0.125,-0.5625,-0.109375
1665673762615,-0.20166016,-0.87091064,-0.411438,-0.03125,0.84375,0.265625
1665673762644,-0.1977539,-0.87823486,-0.4055786,0.25,-0.578125,-0.1875
1665673762690,-0.20727539,-0.88165283,-0.40045166,0.078125,0.71875,0.359375
1665673762734,-0.19628906,-0.8814087,-0.40289307,-0.1875,-0.421875,-0.453125
1665673762764,-0.20019531,-0.88165283,-0.40655518,-0.0625,0.59375,0.109375
1665673762809,-0.2043457,-0.8765259,-0.40753174,-0.078125,-0.296875,-0.453125
1665673762854,-0.19140625,-0.87213135,-0.40679932,0.125,0.109375,0.265625
1665673762884,-0.21044922,-0.8821411,-0.4036255,-0.546875,1.0,0.1875
1665673762929,-0.20605469,-0.8731079,-0.4019165,0.171875,-0.171875,0.03125
1665673762975,-0.19995117,-0.8779907,-0.4133911,0.015625,0.578125,0.109375
1665673763007,-0.19970703,-0.8760376,-0.39849854,0.015625,0.484375,0.21875
1665673763049,-0.19946289,-0.87506104,-0.41436768,-0.0625,0.640625,-0.09375
1665673763095,-0.19873047,-0.87628174,-0.4019165,0.71875,0.0,0.296875
1665673763125,-0.20336914,-0.8796997,-0.4126587,-0.09375,0.875,0.109375
1665673763169,-0.1928711,-0.8755493,-0.40631104,0.625,-0.4375,-0.078125
1665673763200,-0.19580078,-0.8748169,-0.41534424,1.46875,-0.671875,0.46875
1665673763246,-0.20874023,-0.8779907,-0.3970337,-0.296875,0.828125,0.765625
1665673763290,-0.19360352,-0.86920166,-0.41192627,0.484375,-0.90625,-0.609375
1665673763320,-0.20214844,-0.87286377,-0.41729736,0.859375,1.015625,0.21875
1665673763365,-0.19189453,-0.881897,-0.40093994,0.375,0.3125,0.390625
1665673763410,-0.19311523,-0.8699341,-0.4212036,-0.328125,0.609375,0.046875
1665673763440,-0.19189453,-0.8831177,-0.41656494,0.8125,-0.34375,0.65625
1665673763484,-0.19262695,-0.86968994,-0.4102173,0.1875,0.515625,0.359375
1665673763530,-0.2019043,-0.878479,-0.4024048,-0.390625,0.5,0.390625
1665673763560,-0.19848633,-0.8718872,-0.42095947,0.59375,0.78125,-0.171875
1665673763604,-0.18896484,-0.8858032,-0.40264893,0.71875,0.21875,0.25
1665673763650,-0.19799805,-0.86798096,-0.40679932,0.546875,0.296875,-0.0625
1665673763678,-0.1953125,-0.878479,-0.41290283,1.1875,0.40625,0.1875
1665673763724,-0.19555664,-0.87506104,-0.4175415,0.625,-0.390625,0.15625
1665673763770,-0.19262695,-0.8701782,-0.4138794,0.828125,-0.34375,0.28125
1665673763800,-0.19677734,-0.87091064,-0.41583252,-0.0625,1.03125,-0.21875
1665673763845,-0.19335938,-0.8718872,-0.40777588,0.984375,-0.015625,0.28125
1665673763890,-0.18603516,-0.87750244,-0.4151001,0.734375,-0.203125,0.0625
1665673763919,-0.19946289,-0.8743286,-0.40997314,0.578125,0.8125,0.21875
1665673763965,-0.19189453,-0.87823486,-0.41973877,1.265625,-0.296875,0.265625
1665673764010,-0.19116211,-0.8760376,-0.42144775,0.71875,-0.234375,-0.34375
1665673764039,-0.19604492,-0.8694458,-0.41949463,0.65625,0.515625,0.5625
1665673764084,-0.19458008,-0.8735962,-0.4133911,0.765625,0.125,0.21875
1665673764130,-0.19360352,-0.8740845,-0.41534424,0.234375,-0.6875,0.0625
1665673764162,-0.18725586,-0.8694458,-0.4343872,0.671875,-0.203125,-0.25
1665673764205,-0.1928711,-0.880188,-0.4187622,2.34375,-0.203125,0.078125
1665673764249,-0.19165039,-0.866272,-0.41949463,0.25,-0.015625,0.1875
1665673764279,-0.18725586,-0.8735962,-0.42486572,1.25,-0.421875,-0.15625
1665673764325,-0.1862793,-0.8682251,-0.43145752,0.375,-0.265625,0.0
1665673764371,-0.18798828,-0.87091064,-0.41778564,0.90625,0.65625,0.21875
1665673764398,-0.19726562,-0.87213135,-0.42144775,1.015625,-1.59375,-0.0625
1665673764447,-0.19311523,-0.86676025,-0.42608643,0.46875,0.90625,0.046875
1665673764473,-0.19018555,-0.86798096,-0.43341064,0.953125,-0.9375,-0.34375
1665673764520,-0.1862793,-0.86602783,-0.42974854,0.640625,0.28125,0.5
1665673764565,-0.1887207,-0.8677368,-0.42974854,0.203125,0.125,-0.140625
1665673764593,-0.1875,-0.8718872,-0.4348755,1.046875,-0.5625,-0.078125
1665673764640,-0.18725586,-0.8682251,-0.4229126,0.5,0.03125,-0.09375
1665673764685,-0.19238281,-0.86846924,-0.43536377,0.859375,0.125,0.28125
1665673764714,-0.1862793,-0.8718872,-0.43145752,0.765625,-0.15625,0.015625
1665673764759,-0.19116211,-0.8689575,-0.4360962,-0.03125,0.609375,-0.171875
1665673764807,-0.18896484,-0.8652954,-0.43707275,1.71875,0.09375,0.15625
1665673764834,-0.18774414,-0.8648071,-0.42437744,-0.140625,0.875,-0.296875
1665673764879,-0.18725586,-0.8652954,-0.442688,0.453125,0.0,-0.125
1665673764924,-0.17578125,-0.85162354,-0.4356079,0.8125,-0.328125,0.3125
1665673764955,-0.20507812,-0.8753052,-0.43170166,-0.125,0.78125,0.578125
1665673765001,-0.1784668,-0.85528564,-0.4463501,1.46875,-1.53125,-0.515625
1665673765044,-0.18920898,-0.86431885,-0.43878174,1.234375,-0.109375,0.390625
1665673765074,-0.18115234,-0.86505127,-0.42803955,0.5,-0.140625,0.171875
1665673765120,-0.1784668,-0.85162354,-0.44952393,1.421875,-0.34375,-0.359375
1665673765165,-0.17822266,-0.86138916,-0.44830322,1.84375,-1.484375,0.109375
1665673765194,-0.18237305,-0.8682251,-0.43389893,0.8125,0.859375,0.390625
1665673765241,-0.17944336,-0.85528564,-0.44708252,1.109375,-1.296875,-0.203125
1665673765284,-0.18261719,-0.8587036,-0.4434204,0.03125,-0.328125,0.484375
1665673765313,-0.1862793,-0.8711548,-0.44781494,0.140625,-0.234375,-0.734375
1665673765359,-0.17333984,-0.8477173,-0.4524536,0.671875,-0.484375,0.09375
1665673765389,-0.18798828,-0.864563,-0.44049072,-0.125,0.203125,-0.015625
1665673765437,-0.18139648,-0.85113525,-0.44952393,0.578125,-0.828125,-0.3125
1665673765480,-0.17895508,-0.8584595,-0.45269775,-0.046875,0.28125,-0.390625
1665673765508,-0.18554688,-0.8616333,-0.44610596,0.71875,-0.671875,-0.296875
1665673765555,-0.18115234,-0.85650635,-0.45147705,-0.265625,0.125,-0.453125
1665673765600,-0.18774414,-0.862854,-0.4487915,0.25,0.078125,-0.125
1665673765630,-0.1809082,-0.8640747,-0.4541626,0.03125,0.0625,-0.625
1665673765677,-0.1887207,-0.8587036,-0.44781494,-0.890625,0.53125,0.21875
1665673765720,-0.17797852,-0.8579712,-0.45074463,-0.21875,-0.015625,-0.125
1665673765749,-0.1850586,-0.85357666,-0.4414673,0.28125,0.3125,0.78125
1665673765795,-0.18920898,-0.86724854,-0.4414673,0.03125,0.09375,-0.34375
1665673765840,-0.17407227,-0.8543091,-0.45025635,1.0625,-1.21875,-0.390625
1665673765869,-0.19018555,-0.8616333,-0.4421997,0.109375,0.53125,0.078125
1665673765929,-0.18481445,-0.86138916,-0.4446411,0.28125,-0.703125,-0.078125
1665673765959,-0.18286133,-0.8562622,-0.45269775,-0.28125,0.640625,-0.234375
1665673765989,-0.18798828,-0.86431885,-0.45269775,0.390625,-0.53125,-0.59375
1665673766035,-0.17871094,-0.8533325,-0.44049072,1.15625,0.0,-0.484375
1665673766080,-0.18164062,-0.8604126,-0.4451294,-0.09375,-0.84375,-0.484375
1665673766108,-0.19018555,-0.8569946,-0.4512329,-0.390625,0.390625,-0.625
1665673766154,-0.18408203,-0.85723877,-0.44976807,0.1875,0.578125,-0.6875
1665673766200,-0.1809082,-0.84942627,-0.44805908,-0.28125,0.0625,-0.21875
1665673766229,-0.19238281,-0.8665161,-0.4421997,-1.25,1.28125,0.046875
1665673766275,-0.18432617,-0.850647,-0.45635986,-0.609375,-0.1875,-0.34375
1665673766320,-0.1899414,-0.848938,-0.44610596,0.15625,0.0625,0.359375
1665673766348,-0.19067383,-0.85943604,-0.44659424,-0.5625,0.6875,-0.359375
1665673766395,-0.18798828,-0.85821533,-0.44781494,1.171875,-0.625,0.15625
1665673766442,-0.18334961,-0.85235596,-0.44366455,-0.734375,0.03125,-0.28125
1665673766468,-0.18847656,-0.8657837,-0.44805908,0.46875,-0.09375,0.328125
1665673766516,-0.18798828,-0.85235596,-0.44610596,-0.328125,-0.25,0.296875
1665673766543,-0.17993164,-0.85235596,-0.44683838,0.0625,0.3125,-0.03125
1665673766590,-0.18945312,-0.86383057,-0.4421997,-0.015625,-0.21875,-0.078125
1665673766650,-0.17358398,-0.8545532,-0.45147705,-0.328125,-0.046875,0.1875
1665673766664,-0.19091797,-0.8609009,-0.43756104,0.125,0.25,-0.03125
1665673766712,-0.17919922,-0.85772705,-0.44586182,-0.375,-0.328125,0.265625
1665673766754,-0.18359375,-0.86505127,-0.44488525,-0.5,0.9375,0.203125
1665673766832,-0.18139648,-0.861145,-0.45220947,0.046875,-0.6875,-0.171875
1665673766835,-0.18945312,-0.86798096,-0.43243408,-0.03125,1.09375,0.375
1665673766875,-0.18481445,-0.8609009,-0.44244385,-0.546875,-0.484375,-0.578125
1665673766904,-0.18579102,-0.8587036,-0.43634033,-0.453125,-0.34375,-0.484375
1665673766949,-0.18115234,-0.8591919,-0.4446411,-0.0625,-1.25,-0.671875
1665673766995,-0.17944336,-0.86260986,-0.43927002,-0.78125,0.640625,-0.171875
1665673767024,-0.18188477,-0.86260986,-0.4492798,0.296875,-0.75,-0.09375
1665673767072,-0.18530273,-0.8543091,-0.4414673,-0.390625,0.234375,0.078125
1665673767115,-0.18554688,-0.86065674,-0.4492798,0.15625,0.296875,0.03125
1665673767143,-0.17944336,-0.8633423,-0.43927002,0.046875,0.171875,0.3125
1665673767190,-0.18481445,-0.86309814,-0.44000244,0.203125,0.484375,-0.03125
1665673767235,-0.1821289,-0.8569946,-0.44073486,0.125,-0.234375,0.140625
1665673767265,-0.17675781,-0.86065674,-0.44976807,-0.28125,0.375,-0.125
1665673767310,-0.1809082,-0.86065674,-0.44244385,0.859375,-0.296875,0.234375
1665673767355,-0.1875,-0.87457275,-0.42926025,-0.734375,0.703125,0.21875
1665673767384,-0.17480469,-0.8518677,-0.45611572,0.25,-0.15625,-0.4375
1665673767429,-0.18237305,-0.87164307,-0.43389893,1.265625,0.015625,0.609375
1665673767475,-0.18676758,-0.8584595,-0.44781494,0.1875,0.5,0.34375
1665673767503,-0.17504883,-0.85650635,-0.44854736,0.296875,0.5625,-0.125
1665673767550,-0.17822266,-0.8596802,-0.44561768,0.3125,-0.265625,0.171875
1665673767578,-0.17895508,-0.8599243,-0.43804932,0.734375,1.1875,0.40625
1665673767624,-0.17822266,-0.8604126,-0.4451294,-0.296875,-1.328125,-0.34375
1665673767669,-0.19042969,-0.8562622,-0.44854736,0.234375,0.265625,-0.046875
1665673767699,-0.17822266,-0.8635864,-0.45025635,1.125,0.125,-0.078125
1665673767746,-0.1821289,-0.86016846,-0.44317627,0.46875,0.234375,0.40625
1665673767790,-0.17749023,-0.862854,-0.4463501,0.65625,0.15625,-0.078125
1665673767819,-0.1784668,-0.86016846,-0.4487915,0.296875,-0.296875,0.578125
1665673767865,-0.18261719,-0.86065674,-0.4475708,1.546875,-0.015625,0.0
1665673767910,-0.1772461,-0.8521118,-0.44000244,0.875,0.015625,0.1875
1665673767938,-0.18945312,-0.8621216,-0.4529419,1.671875,-0.390625,0.46875
1665673767985,-0.17358398,-0.8596802,-0.45758057,1.59375,-0.125,-0.125
1665673768032,-0.17773438,-0.85528564,-0.45855713,1.328125,-0.765625,0.25
1665673768059,-0.1784668,-0.8587036,-0.45684814,0.53125,0.015625,0.59375
1665673768107,-0.1772461,-0.85894775,-0.44049072,2.03125,-0.53125,0.484375
1665673768150,-0.17675781,-0.8526001,-0.46514893,0.359375,-0.46875,0.25
1665673768179,-0.17529297,-0.84576416,-0.4607544,2.078125,-0.234375,0.109375
1665673768225,-0.17944336,-0.84552,-0.46002197,4.671875,-1.453125,0.421875
1665673768270,-0.16796875,-0.8477173,-0.46636963,1.15625,-0.421875,0.3125
1665673768299,-0.16674805,-0.8447876,-0.473938,3.484375,-1.21875,-0.015625
1665673768347,-0.16992188,-0.8501587,-0.4944458,1.328125,-0.5,-0.046875
1665673768389,-0.16772461,-0.84747314,-0.46173096,1.8125,-0.21875,0.90625
1665673768419,-0.17700195,-0.8508911,-0.47149658,0.0,-0.296875,-0.046875
1665673768464,-0.1706543,-0.84332275,-0.48150635,1.1875,0.109375,-0.421875
1665673768510,-0.16479492,-0.84161377,-0.4817505,1.53125,-0.34375,-0.46875
1665673768540,-0.1694336,-0.84088135,-0.4763794,0.984375,0.328125,0.46875
1665673768585,-0.16503906,-0.8377075,-0.4837036,1.296875,-0.65625,-0.203125
1665673768632,-0.16430664,-0.8394165,-0.4854126,1.53125,-0.484375,0.125
1665673768658,-0.16796875,-0.8389282,-0.47735596,0.765625,0.296875,0.03125
1665673768705,-0.16210938,-0.83917236,-0.48687744,0.9375,-0.125,-0.203125
1665673768734,-0.16430664,-0.8386841,-0.48492432,1.359375,0.171875,0.375
1665673768780,-0.16674805,-0.83917236,-0.48736572,1.5,-0.328125,0.203125
1665673768825,-0.171875,-0.8377075,-0.4920044,1.421875,-0.453125,0.0625
1665673768854,-0.16503906,-0.8335571,-0.49346924,1.15625,-0.03125,-0.125
1665673768900,-0.15771484,-0.83917236,-0.503479,0.578125,-0.140625,0.578125
1665673768945,-0.16845703,-0.83917236,-0.4883423,1.4375,0.5625,0.796875
1665673769021,-0.17333984,-0.8394165,-0.49127197,-0.140625,-1.171875,-0.546875
1665673769026,-0.1508789,-0.8218384,-0.5083618,1.984375,0.796875,-0.953125
1665673769064,-0.16601562,-0.84698486,-0.4915161,1.671875,0.03125,0.671875
1665673769095,-0.15649414,-0.8230591,-0.50372314,0.140625,-0.28125,-0.375
1665673769139,-0.15771484,-0.83258057,-0.50787354,2.03125,-0.625,0.578125
1665673769185,-0.16967773,-0.83428955,-0.50323486,0.875,0.125,0.34375
1665673769214,-0.16210938,-0.8335571,-0.50177,1.4375,0.328125,0.15625
1665673769260,-0.1586914,-0.82281494,-0.49908447,0.59375,-0.59375,-0.265625
1665673769305,-0.15625,-0.8274536,-0.51104736,1.203125,0.078125,-0.1875
1665673769334,-0.16503906,-0.8296509,-0.5120239,0.40625,0.0625,0.0625
1665673769380,-0.15039062,-0.8284302,-0.5046997,0.40625,-0.140625,0.3125
1665673769426,-0.16015625,-0.8262329,-0.50616455,0.0625,0.4375,-0.078125
1665673769454,-0.16699219,-0.82818604,-0.5076294,1.046875,-0.4375,0.109375
1665673769502,-0.1496582,-0.8218384,-0.5054321,0.671875,0.09375,-0.328125
1665673769544,-0.15893555,-0.8262329,-0.51275635,0.375,0.328125,-0.109375
1665673769573,-0.16064453,-0.8242798,-0.5076294,1.203125,-0.359375,-0.21875
1665673769619,-0.1616211,-0.82818604,-0.51568604,0.265625,0.15625,-0.046875
1665673769665,-0.1574707,-0.8308716,-0.5105591,0.78125,0.140625,-0.125
1665673769695,-0.15649414,-0.8213501,-0.5161743,0.328125,0.421875,0.1875
1665673769739,-0.16040039,-0.8245239,-0.517395,1.25,-0.03125,-0.125
1665673769770,-0.1586914,-0.8242798,-0.50665283,0.609375,-0.015625,0.0625
1665673769817,-0.1496582,-0.81817627,-0.5195923,0.8125,-0.421875,-0.109375
1665673769860,-0.16015625,-0.82769775,-0.51153564,1.625,0.171875,0.703125
1665673769889,-0.15161133,-0.8220825,-0.5095825,0.484375,-1.0625,-0.609375
1665673769935,-0.15673828,-0.81622314,-0.5269165,1.6875,0.390625,-0.265625
1665673769980,-0.14868164,-0.8267212,-0.5161743,0.796875,-0.375,0.234375
1665673770009,-0.1538086,-0.8179321,-0.5210571,0.25,0.21875,0.078125
1665673770055,-0.15649414,-0.82232666,-0.52423096,1.15625,-0.09375,-0.015625
1665673770100,-0.1550293,-0.81207275,-0.5220337,0.40625,0.125,0.015625
1665673770129,-0.15917969,-0.82476807,-0.5178833,0.4375,0.140625,0.703125
1665673770177,-0.15234375,-0.82159424,-0.5198364,-0.234375,0.34375,-0.265625
1665673770220,-0.14233398,-0.8140259,-0.5159302,1.03125,-0.546875,-0.4375
1665673770249,-0.15283203,-0.8179321,-0.5171509,0.234375,0.375,0.15625
1665673770295,-0.15014648,-0.81915283,-0.52056885,-0.0625,0.15625,-0.03125
1665673770343,-0.14819336,-0.81256104,-0.52423096,0.515625,-0.296875,-0.125
1665673770369,-0.15722656,-0.82647705,-0.51446533,-0.03125,0.265625,0.28125
1665673770416,-0.14746094,-0.8093872,-0.5249634,0.671875,-0.375,-0.40625
1665673770460,-0.15063477,-0.81866455,-0.5220337,0.453125,0.296875,0.328125
1665673770489,-0.14990234,-0.81573486,-0.52301025,0.265625,-0.140625,-0.09375
1665673770536,-0.14941406,-0.81866455,-0.5239868,0.59375,0.203125,0.3125
1665673770580,-0.15600586,-0.8184204,-0.5232544,0.28125,0.0625,-0.25
1665673770609,-0.15625,-0.817688,-0.5274048,0.890625,0.296875,0.109375
1665673770655,-0.15722656,-0.81915283,-0.52227783,0.125,0.265625,0.0625
1665673770700,-0.1574707,-0.8086548,-0.5239868,-0.078125,0.1875,-0.125
1665673770729,-0.14892578,-0.8081665,-0.5232544,0.859375,-0.15625,0.078125
1665673770775,-0.15844727,-0.8267212,-0.5137329,-0.125,0.671875,0.0625
1665673770820,-0.14770508,-0.8115845,-0.5264282,0.703125,-1.140625,-0.515625
1665673770850,-0.15625,-0.81866455,-0.52545166,0.71875,0.328125,0.046875
1665673770895,-0.1616211,-0.8140259,-0.5195923,-0.375,0.21875,-0.015625
1665673770925,-0.15014648,-0.81207275,-0.5305786,-0.125,0.28125,0.03125
1665673770970,-0.14575195,-0.81744385,-0.53204346,0.375,-0.484375,-0.015625
1665673771015,-0.15820312,-0.8093872,-0.52227783,1.453125,0.75,1.578125
1665673771044,-0.15014648,-0.8098755,-0.5198364,0.375,-0.703125,0.71875
1665673771090,-0.15283203,-0.8110962,-0.53741455,-0.109375,0.671875,-0.109375
1665673771134,-0.15234375,-0.81573486,-0.5281372,0.4375,0.359375,-0.0625
1665673771209,-0.14013672,-0.8057251,-0.52911377,0.078125,-0.171875,0.03125
1665673771224,-0.14990234,-0.81451416,-0.5261841,-0.171875,0.375,-0.015625
1665673771254,-0.1472168,-0.8101196,-0.5293579,-0.390625,0.625,-0.125
1665673771284,-0.14672852,-0.8093872,-0.53009033,0.25,-0.140625,-0.515625
1665673771330,-0.14379883,-0.81256104,-0.53204346,-0.53125,0.4375,0.09375
1665673771375,-0.1538086,-0.82232666,-0.5310669,0.21875,-0.125,-0.171875
1665673771408,-0.14868164,-0.81378174,-0.5288696,0.5,0.1875,0.15625
1665673771450,-0.14575195,-0.81988525,-0.5293579,0.375,0.5625,0.828125
1665673771497,-0.14770508,-0.8086548,-0.52838135,0.234375,0.046875,0.234375
1665673771540,-0.14697266,-0.8152466,-0.5376587,-0.171875,0.484375,-0.21875
1665673771569,-0.15112305,-0.81573486,-0.52056885,0.609375,0.5625,0.46875
1665673771616,-0.14526367,-0.8098755,-0.53009033,0.109375,0.234375,-0.015625
1665673771644,-0.15405273,-0.8196411,-0.52056885,-0.046875,-0.015625,0.15625
1665673771690,-0.140625,-0.8069458,-0.5342407,0.09375,-0.53125,-0.171875
1665673771735,-0.14892578,-0.8213501,-0.53131104,0.546875,0.203125,-0.015625
1665673771764,-0.15429688,-0.8184204,-0.51812744,-0.546875,-0.015625,-0.171875
1665673771810,-0.14990234,-0.80303955,-0.53863525,-0.453125,0.1875,0.234375
1665673771854,-0.14038086,-0.81256104,-0.5327759,0.875,-0.46875,-0.0625
1665673771884,-0.14746094,-0.81329346,-0.5264282,0.40625,0.109375,0.0625
1665673771930,-0.14819336,-0.8213501,-0.52960205,0.4375,-1.125,-0.328125
1665673771959,-0.14648438,-0.8074341,-0.5359497,0.53125,-0.515625,-0.625
1665673772005,-0.14404297,-0.8167114,-0.534729,0.734375,-0.34375,-0.09375
1665673772049,-0.1430664,-0.8101196,-0.53204346,0.421875,-0.515625,-0.03125
1665673772080,-0.14624023,-0.8118286,-0.5315552,0.875,0.078125,0.3125
1665673772125,-0.1459961,-0.8130493,-0.53692627,3.0,-1.828125,0.390625
1665673772170,-0.13793945,-0.7998657,-0.5359497,3.890625,-3.0625,0.015625
1665673772199,-0.13061523,-0.80474854,-0.54278564,6.453125,-4.46875,0.265625
1665673772247,-0.12841797,-0.79571533,-0.5564575,5.53125,-5.390625,-0.5
1665673772290,-0.12915039,-0.803772,-0.56817627,2.71875,-2.5625,-0.359375
1665673772319,-0.13208008,-0.79400635,-0.5557251,1.109375,-0.9375,0.0625
1665673772365,-0.12988281,-0.7979126,-0.55792236,1.09375,-0.578125,-0.28125
1665673772410,-0.12670898,-0.7998657,-0.56500244,-0.25,-0.09375,-0.03125
1665673772439,-0.12451172,-0.7888794,-0.5647583,2.078125,-1.125,0.34375
1665673772485,-0.13623047,-0.79278564,-0.5564575,-0.625,-0.5,0.046875
1665673772530,-0.11352539,-0.7810669,-0.5679321,1.96875,-1.578125,-0.140625
1665673772559,-0.13134766,-0.7937622,-0.5647583,3.59375,-2.0,0.03125
1665673772607,-0.12426758,-0.7905884,-0.5667114,0.3125,-0.53125,-0.078125
1665673772650,-0.11035156,-0.7817993,-0.5598755,3.125,-0.8125,-0.34375
1665673772679,-0.12573242,-0.7896118,-0.5762329,4.25,-3.125,-0.4375
1665673772725,-0.1159668,-0.77423096,-0.5733032,3.859375,-1.359375,-0.84375
1665673772770,-0.119384766,-0.7920532,-0.5811157,2.921875,-1.515625,-0.53125
1665673772798,-0.11987305,-0.7803345,-0.5762329,2.15625,-1.703125,-0.734375
1665673772845,-0.115722656,-0.7769165,-0.5984497,2.328125,-2.125,-0.234375
1665673772890,-0.11376953,-0.77008057,-0.58721924,2.46875,-1.421875,-0.265625
1665673772920,-0.11425781,-0.7774048,-0.59332275,3.59375,-1.8125,-0.296875
1665673772964,-0.10961914,-0.7576294,-0.5899048,7.921875,-3.171875,-1.25
1665673773011,-0.111328125,-0.7593384,-0.60650635,7.03125,-6.296875,-0.84375
1665673773040,-0.10058594,-0.75738525,-0.6211548,7.5625,-6.484375,-0.71875
1665673773085,-0.104003906,-0.75177,-0.6182251,8.84375,-4.828125,-1.4375
1665673773113,-0.096191406,-0.73687744,-0.6338501,7.40625,-5.40625,-1.375
1665673773159,-0.08618164,-0.7337036,-0.6404419,5.3125,-4.4375,-0.484375
1665673773204,-0.08642578,-0.7234497,-0.63409424,5.9375,-5.71875,-1.328125
1665673773235,-0.07348633,-0.72198486,-0.65509033,8.015625,-5.546875,-1.25
1665673773280,-0.08251953,-0.7112427,-0.6538696,6.546875,-4.125,-0.734375
1665673773325,-0.08081055,-0.7127075,-0.6758423,5.09375,-3.8125,-1.703125
1665673773354,-0.06347656,-0.6958618,-0.66900635,5.4375,-3.6875,-0.796875
1665673773400,-0.08105469,-0.710022,-0.6699829,5.90625,-3.296875,-0.5625
1665673773445,-0.06762695,-0.69244385,-0.6836548,0.6875,-1.234375,-0.046875
1665673773474,-0.06518555,-0.6824341,-0.6799927,2.4375,-1.59375,-0.046875
1665673773520,-0.07055664,-0.6958618,-0.6934204,1.609375,-1.75,-0.25
1665673773568,-0.064697266,-0.6902466,-0.68634033,2.140625,-1.09375,0.375
1665673773594,-0.0625,-0.6917114,-0.68414307,1.0625,-1.09375,-0.28125
1665673773640,-0.059326172,-0.692688,-0.6843872,1.9375,-0.53125,-0.21875
1665673773685,-0.052001953,-0.6878052,-0.6917114,1.859375,-1.171875,-0.203125
1665673773712,-0.05908203,-0.67926025,-0.6897583,0.859375,-0.765625,-0.453125
