# Sensor type: Respeck
# Activity type: Sitting
# Activity code: 0
# Subject id: s1800825
# Notes: z
timestamp,accel_x,accel_y,accel_z,gyro_x,gyro_y,gyro_z
1665673855028,0.023925781,-1.0029907,0.04534912,-1.234375,-0.984375,-0.546875
1665673855075,0.021484375,-0.99884033,0.035095215,-2.78125,-1.578125,-0.265625
1665673855107,0.017089844,-1.000061,0.07562256,1.71875,1.234375,0.015625
1665673855150,0.027832031,-1.0003052,0.03363037,-3.59375,1.3125,-0.421875
1665673855197,0.014404297,-0.99053955,0.059753418,-0.9375,-0.609375,-0.15625
1665673855225,0.044433594,-1.0093384,0.058288574,-0.09375,2.203125,-0.21875
1665673855270,0.020996094,-0.9890747,0.055114746,-1.5,2.046875,0.015625
1665673855315,0.01953125,-0.9944458,0.066101074,0.171875,-0.3125,0.109375
1665673855345,0.03515625,-1.0010376,0.047790527,-0.03125,1.53125,-0.578125
1665673855391,0.021240234,-1.0054321,0.058776855,1.28125,0.8125,0.421875
1665673855420,0.021728516,-0.9949341,0.055114746,-1.4375,0.140625,-0.625
1665673855465,0.013671875,-1.0010376,0.06976318,1.578125,0.96875,-0.375
1665673855510,0.011230469,-1.0078735,0.05999756,0.140625,1.0625,0.484375
1665673855540,0.029052734,-0.99420166,0.058288574,1.28125,1.53125,0.046875
1665673855585,0.01586914,-0.99786377,0.06463623,0.109375,1.640625,-0.0625
1665673855632,0.026367188,-0.99176025,0.051452637,-0.078125,1.15625,0.296875
1665673855660,0.024414062,-0.9985962,0.055847168,1.15625,0.609375,-0.03125
1665673855707,0.021972656,-1.0029907,0.046081543,-0.84375,0.765625,-0.265625
1665673855750,0.022705078,-0.99468994,0.06829834,0.71875,0.921875,0.078125
1665673855780,0.030273438,-1.0054321,0.046081543,-2.296875,-0.65625,-0.78125
1665673855826,0.021728516,-1.0015259,0.06756592,2.90625,1.84375,0.40625
1665673855871,0.029296875,-0.99957275,0.04095459,-3.1875,0.875,-0.984375
1665673855901,0.014892578,-0.98443604,0.0758667,1.46875,0.46875,-0.421875
1665673855946,0.02709961,-1.0176392,0.053894043,-1.640625,1.21875,-0.421875
1665673855991,0.014404297,-0.98028564,0.054382324,0.75,2.5625,0.109375
1665673856020,0.020019531,-1.003479,0.061706543,0.5,0.96875,-0.34375
1665673856066,0.010986328,-1.0010376,0.06414795,0.171875,1.265625,-0.03125
1665673856111,0.021484375,-0.9963989,0.05657959,-0.734375,-0.5,-0.109375
1665673856141,0.013916016,-1.0012817,0.046569824,-0.59375,1.390625,-0.34375
1665673856186,0.015380859,-1.0039673,0.06781006,0.9375,0.734375,0.375
1665673856231,0.02758789,-0.9998169,0.058288574,0.203125,0.140625,-0.1875
1665673856263,0.012207031,-0.9944458,0.055358887,-0.078125,1.515625,0.0
1665673856305,0.018554688,-1.0039673,0.055847168,0.515625,0.5625,0.109375
1665673856351,0.026123047,-0.99713135,0.051208496,-0.328125,0.40625,-0.203125
1665673856380,0.01953125,-0.9883423,0.06707764,0.578125,0.78125,0.1875
1665673856426,0.021728516,-1.005188,0.05706787,0.0625,0.078125,-0.296875
1665673856456,0.01928711,-0.99884033,0.05218506,0.703125,0.71875,0.203125
1665673856501,0.023925781,-0.9973755,0.059020996,0.640625,0.234375,-0.125
1665673856547,0.020507812,-0.9898071,0.06072998,0.3125,0.3125,0.015625
1665673856576,0.020996094,-1.0010376,0.061950684,0.65625,0.015625,0.109375
1665673856621,0.021728516,-0.99053955,0.047302246,-1.96875,-0.5625,-0.390625
1665673856666,0.014160156,-1.0046997,0.066345215,3.609375,-0.0625,0.734375
1665673856696,0.025878906,-0.99786377,0.034118652,-3.34375,0.296875,-0.875
1665673856741,0.0146484375,-0.9956665,0.0848999,3.859375,0.15625,0.1875
1665673856786,0.01977539,-1.0076294,0.038024902,-3.21875,-0.046875,-0.3125
1665673856815,0.014160156,-0.9866333,0.06414795,1.78125,1.296875,0.484375
1665673856861,0.026855469,-1.0149536,0.042419434,-0.625,-0.015625,-0.40625
1665673856906,0.022949219,-0.98443604,0.05731201,0.515625,0.453125,0.109375
1665673856935,0.02734375,-1.0029907,0.04925537,0.46875,-0.0625,-0.015625
1665673856981,0.010498047,-0.9961548,0.053649902,-1.15625,-0.09375,-0.453125
1665673857025,0.015380859,-1.0073853,0.058532715,1.328125,0.765625,0.125
1665673857056,0.016113281,-1.0010376,0.05218506,0.234375,0.921875,0.375
1665673857100,0.022216797,-0.9898071,0.0524292,0.1875,0.015625,-0.125
1665673857146,0.016601562,-1.0061646,0.04901123,0.78125,-0.0625,0.21875
1665673857175,0.030517578,-0.9951782,0.046569824,-0.4375,0.171875,0.21875
1665673857220,0.011962891,-0.9985962,0.0602417,0.625,0.53125,0.0
1665673857266,0.018066406,-0.99835205,0.058776855,0.015625,0.609375,0.421875
1665673857296,0.02709961,-1.0029907,0.046813965,0.78125,-0.5625,-0.203125
1665673857341,0.01586914,-1.0003052,0.059265137,-0.15625,1.40625,0.46875
1665673857385,0.022216797,-0.9932251,0.04559326,0.765625,0.34375,0.15625
1665673857415,0.0146484375,-1.003479,0.055847168,0.71875,0.96875,0.34375
1665673857461,0.020263672,-0.99957275,0.04168701,0.59375,1.484375,0.34375
1665673857506,0.016113281,-1.0012817,0.046081543,1.125,0.734375,0.171875
1665673857536,0.028076172,-1.0044556,0.048034668,0.484375,0.90625,0.28125
1665673857582,0.022460938,-0.9849243,0.053649902,-1.84375,-0.484375,-0.453125
1665673857610,0.023925781,-1.0088501,0.05316162,2.296875,0.359375,0.328125
1665673857656,0.029052734,-0.99298096,0.039978027,-3.265625,0.609375,-0.5625
1665673857702,0.025878906,-1.0005493,0.06829834,4.265625,0.0,-0.09375
1665673857746,0.013427734,-0.99884033,0.04144287,-2.578125,0.21875,-0.328125
1665673857775,0.017333984,-0.9783325,0.059265137,1.953125,0.8125,0.234375
1665673857821,0.030517578,-1.0083618,0.03289795,0.09375,-1.21875,-0.28125
1665673857851,0.0061035156,-0.98931885,0.062194824,0.046875,-1.1875,0.34375
1665673857896,0.032714844,-1.0046997,0.04827881,1.46875,-1.140625,-0.265625
1665673857942,0.0,-1.006897,0.04144287,-1.703125,-1.078125,-0.53125
1665673857971,0.022216797,-0.98883057,0.042419434,-0.078125,0.15625,0.40625
1665673858016,0.03125,-0.99884033,0.039245605,0.421875,-0.296875,-0.28125
1665673858061,0.013671875,-0.98883057,0.042175293,0.296875,-0.34375,0.203125
1665673858091,0.020751953,-1.005188,0.05316162,-0.234375,-0.515625,-0.390625
1665673858137,0.015136719,-1.0029907,0.053649902,0.3125,-0.171875,-0.140625
1665673858181,0.024902344,-0.9976196,0.048034668,0.3125,0.0,0.015625
1665673858211,0.009765625,-1.0003052,0.047302246,0.25,0.203125,-0.046875
1665673858257,0.016357422,-0.9937134,0.048034668,0.578125,0.046875,0.203125
1665673858303,0.024169922,-0.99786377,0.04071045,1.421875,0.1875,-0.03125
1665673858331,0.020751953,-0.99176025,0.04559326,0.296875,0.65625,0.4375
1665673858376,0.018554688,-0.9968872,0.042175293,0.328125,-0.203125,-0.15625
1665673858423,0.018066406,-0.9961548,0.039978027,0.859375,0.078125,0.265625
1665673858450,0.010009766,-0.99591064,0.04510498,0.671875,0.09375,0.015625
1665673858498,0.02368164,-1.00177,0.034362793,-2.421875,-1.28125,-0.4375
1665673858572,0.017822266,-0.98687744,0.054626465,2.140625,1.6875,0.3125
1665673858575,0.023925781,-1.0115356,0.031188965,-3.21875,0.28125,-0.625
1665673858616,0.020507812,-0.9985962,0.06854248,2.421875,-0.28125,0.03125
1665673858661,0.027832031,-0.9981079,0.040222168,-1.125,-0.109375,0.203125
1665673858691,0.010986328,-0.9927368,0.04486084,0.625,-0.03125,-0.15625
1665673858736,0.01928711,-1.0073853,0.042907715,0.0,0.328125,-0.140625
1665673858766,0.025878906,-0.99102783,0.04144287,0.390625,0.0,-0.171875
1665673858811,0.020263672,-1.0027466,0.04144287,-0.75,-0.78125,-0.015625
1665673858856,0.012207031,-0.9932251,0.031188965,-0.609375,0.265625,-0.328125
1665673858884,0.024902344,-1.0061646,0.04827881,0.375,-0.46875,-0.09375
1665673858932,0.018798828,-0.99053955,0.046813965,-0.9375,1.3125,-0.234375
1665673858977,0.009521484,-0.99420166,0.043884277,0.65625,0.609375,-0.171875
1665673859006,0.013427734,-1.008606,0.048034668,0.1875,0.59375,-0.390625
1665673859051,0.008056641,-0.99664307,0.046081543,-0.109375,0.9375,-0.015625
1665673859096,0.017089844,-1.0003052,0.041931152,0.1875,0.46875,0.0
1665673859126,0.016845703,-1.0012817,0.046813965,0.125,0.328125,-0.296875
1665673859186,0.012939453,-1.000061,0.054382324,-0.5,0.859375,0.109375
1665673859217,0.012451172,-1.0005493,0.03704834,0.859375,0.28125,-0.140625
1665673859245,0.016845703,-0.99298096,0.053649902,0.0625,1.046875,0.03125
1665673859291,0.0068359375,-1.006897,0.050476074,-0.25,0.40625,-0.234375
1665673859336,0.017333984,-0.9920044,0.035339355,-1.78125,0.65625,0.140625
1665673859366,0.017089844,-0.99176025,0.06732178,2.953125,1.75,0.265625
1665673859412,0.0126953125,-1.0115356,0.0289917,-1.828125,0.28125,-0.265625
1665673859457,0.008544922,-0.9885864,0.055358887,-0.296875,0.421875,-0.15625
1665673859486,0.028320312,-1.0003052,0.047058105,1.53125,0.40625,0.015625
1665673859532,0.0075683594,-0.9915161,0.039489746,-1.015625,1.734375,0.25
1665673859576,0.020996094,-1.0003052,0.053649902,1.265625,1.5,0.125
1665673859606,0.014160156,-1.0073853,0.031677246,-0.484375,0.4375,-0.046875
1665673859651,0.01928711,-1.0012817,0.05706787,2.390625,1.890625,1.0
1665673859697,0.022949219,-1.0042114,0.04119873,-0.328125,0.203125,-0.5
1665673859725,0.016113281,-0.99346924,0.039978027,1.25,-0.046875,0.0
1665673859771,0.018798828,-1.0025024,0.05731201,-0.140625,1.28125,0.15625
1665673859801,0.012451172,-0.9956665,0.039733887,0.296875,0.28125,0.140625
1665673859847,0.020019531,-0.9973755,0.042663574,0.40625,0.5,-0.203125
1665673859891,0.011474609,-1.0012817,0.050231934,0.09375,1.15625,-0.015625
1665673859921,0.011962891,-0.99957275,0.03778076,0.125,0.765625,0.234375
1665673859968,0.021728516,-0.9937134,0.04168701,0.46875,0.3125,-0.265625
1665673860011,0.010498047,-0.9915161,0.04168701,0.46875,1.28125,0.046875
1665673860040,0.020751953,-0.9998169,0.038269043,0.234375,0.234375,0.0625
1665673860086,0.021484375,-0.9976196,0.049987793,0.8125,1.015625,0.09375
1665673860131,0.008300781,-0.9998169,0.035583496,0.015625,1.1875,0.25
1665673860161,0.022949219,-0.9920044,0.04437256,0.5,0.3125,0.078125
1665673860208,0.005859375,-0.99664307,0.042419434,-1.65625,0.390625,-0.3125
1665673860251,0.013916016,-1.0142212,0.042419434,2.5625,0.671875,0.6875
1665673860280,0.024414062,-0.99957275,0.026062012,-3.59375,0.25,-0.421875
1665673860327,0.0061035156,-0.9883423,0.061706543,2.046875,0.3125,0.046875
1665673860371,0.028076172,-1.0188599,0.039001465,-0.125,0.859375,-0.046875
1665673860401,0.006591797,-0.9793091,0.048034668,-0.9375,1.59375,0.109375
1665673860446,0.011962891,-1.0108032,0.0368042,0.703125,0.875,0.09375
1665673860491,0.014404297,-0.9951782,0.034118652,-0.1875,0.671875,-0.125
1665673860521,0.011962891,-1.0012817,0.036315918,1.375,0.046875,0.546875
1665673860566,0.010498047,-0.99420166,0.039001465,-0.140625,1.265625,-0.109375
1665673860611,0.021972656,-1.0149536,0.04534912,0.765625,-0.28125,-0.15625
1665673860641,0.021728516,-0.9920044,0.042663574,-0.921875,0.59375,0.15625
1665673860686,0.004638672,-0.9998169,0.03656006,0.75,0.71875,0.203125
1665673860763,0.022460938,-1.0042114,0.038269043,-0.34375,-0.328125,-0.15625
1665673860767,0.011474609,-1.0044556,0.04559326,0.078125,0.5,0.03125
1665673860807,0.013183594,-0.99664307,0.041931152,-0.296875,0.984375,0.328125
1665673860851,0.023925781,-1.0022583,0.04168701,0.5,0.3125,-0.28125
1665673860881,0.009277344,-1.0012817,0.04559326,0.390625,1.546875,0.296875
1665673860927,0.02709961,-0.9968872,0.030456543,1.0,1.015625,0.171875
1665673860956,0.017089844,-0.9944458,0.0446167,0.609375,0.8125,0.109375
1665673861002,0.005126953,-0.99713135,0.042175293,-0.453125,1.09375,0.28125
1665673861046,0.028564453,-1.0054321,0.027282715,1.40625,0.859375,0.203125
1665673861076,0.014892578,-0.9776001,0.054138184,-1.203125,0.515625,-0.53125
1665673861120,0.014892578,-1.0088501,0.035339355,1.65625,1.0625,0.421875
1665673861166,0.021728516,-0.9939575,0.027282715,-2.78125,0.234375,-0.71875
1665673861196,0.019042969,-0.99420166,0.055358887,3.1875,1.375,0.34375
1665673861243,0.020263672,-1.0078735,0.024597168,-2.5,0.28125,-0.5625
1665673861286,0.011230469,-0.98638916,0.039245605,1.234375,1.546875,0.3125
1665673861316,0.021728516,-1.0105591,0.041931152,-0.390625,0.25,-0.234375
1665673861361,0.0087890625,-0.9915161,0.051696777,0.140625,0.390625,0.140625
1665673861406,0.019042969,-1.0073853,0.030212402,-0.265625,-0.765625,-0.0625
1665673861435,0.013671875,-0.9937134,0.036315918,0.4375,1.15625,0.171875
1665673861481,0.014404297,-1.0005493,0.036315918,1.0,0.5,0.25
1665673861525,0.01928711,-0.9920044,0.035583496,0.875,-0.046875,0.09375
1665673861556,0.024658203,-0.9837036,0.034606934,3.578125,-0.765625,0.03125
1665673861601,0.020507812,-1.0064087,0.024108887,3.984375,0.875,0.0
1665673861646,0.011474609,-1.0042114,0.029724121,1.015625,0.0625,0.203125
1665673861676,0.015625,-0.9944458,0.023864746,0.609375,-0.390625,0.125
1665673861721,0.0126953125,-0.9990845,0.023620605,1.15625,-0.203125,-0.140625
1665673861767,0.020751953,-1.0005493,0.029968262,1.125,0.515625,0.21875
1665673861796,0.022216797,-0.99664307,0.013122559,-0.25,-0.6875,0.015625
1665673861842,0.021240234,-0.9949341,0.027038574,1.484375,0.265625,0.171875
1665673861916,0.017333984,-1.0037231,0.013366699,1.0,0.265625,0.171875
1665673861920,0.022705078,-0.9871216,0.031921387,0.5625,0.03125,0.15625
1665673861961,0.018066406,-1.0003052,0.008972168,-1.609375,-0.75,-0.109375
1665673861991,0.020019531,-0.9968872,0.02947998,3.34375,-0.1875,0.484375
1665673862036,0.01953125,-0.9998169,-0.0017700195,-2.1875,-0.59375,-0.34375
1665673862081,0.0061035156,-0.99664307,0.03387451,0.578125,-0.375,-0.296875
1665673862110,0.024414062,-0.9993286,0.018981934,-0.328125,-0.1875,0.171875
1665673862156,0.013916016,-0.9800415,0.02142334,-0.296875,0.390625,0.078125
1665673862202,0.022949219,-1.0049438,0.0211792,0.5,-0.859375,0.0
1665673862231,0.014404297,-1.000061,0.01751709,0.359375,-0.046875,0.015625
1665673862276,0.020751953,-0.9981079,0.028015137,1.4375,-0.40625,0.703125
1665673862321,0.020507812,-0.9944458,0.005554199,-0.03125,-0.125,-0.109375
1665673862367,0.025634766,-1.005188,0.02557373,0.453125,-0.421875,-0.03125
1665673862396,0.025146484,-0.9902954,0.014587402,-0.921875,-0.171875,0.265625
1665673862441,0.01977539,-0.9976196,0.019226074,0.109375,-0.703125,-0.359375
1665673862470,0.020263672,-0.99298096,0.023132324,-0.296875,0.140625,0.171875
1665673862517,0.01953125,-1.000061,0.027038574,0.53125,0.53125,0.0
1665673862561,0.024658203,-1.0010376,0.01727295,2.125,0.78125,0.34375
1665673862591,0.01928711,-0.99591064,0.01776123,0.890625,0.9375,0.359375
1665673862638,0.014892578,-1.0020142,0.015075684,1.0,-0.265625,0.078125
1665673862681,0.018798828,-0.9961548,0.014343262,0.078125,0.078125,0.171875
1665673862710,0.021484375,-1.0027466,0.01776123,0.359375,-0.140625,-0.046875
1665673862756,0.020996094,-0.9981079,0.01727295,-0.859375,-0.328125,-0.3125
1665673862800,0.016357422,-0.99786377,0.009216309,-0.75,0.15625,0.46875
1665673862831,0.027832031,-0.9885864,0.038513184,1.5625,0.078125,-0.046875
1665673862876,0.020263672,-1.0046997,0.005554199,-0.921875,0.375,0.296875
1665673862952,0.020751953,-0.9932251,0.02142334,-0.515625,-0.5625,-0.53125
1665673862956,0.02709961,-1.0037231,0.02923584,0.609375,0.515625,0.140625
1665673862996,0.016357422,-0.98443604,0.010681152,-1.96875,0.84375,0.03125
1665673863042,0.017578125,-1.0071411,0.020202637,0.921875,-0.078125,-0.25
1665673863071,0.019042969,-0.9920044,0.013366699,-0.890625,0.921875,-0.03125
1665673863116,0.016601562,-0.9944458,0.039489746,2.125,-0.234375,0.5
1665673863146,0.015380859,-0.99884033,0.023132324,-0.65625,0.734375,-0.15625
1665673863191,0.014892578,-0.9949341,0.024841309,1.390625,0.375,-0.046875
1665673863236,0.029785156,-1.005188,0.020202637,-0.765625,0.171875,-0.234375
1665673863265,0.012207031,-0.98150635,0.022399902,0.703125,0.71875,0.40625
1665673863311,0.01977539,-0.9973755,0.014831543,-0.21875,-0.234375,-0.328125
1665673863356,0.016601562,-0.99468994,0.022155762,-0.6875,0.328125,-0.09375
1665673863386,0.026367188,-0.9973755,0.022399902,0.1875,0.109375,0.015625
1665673863433,0.015625,-0.9951782,0.027038574,0.3125,1.328125,0.125
1665673863476,0.020263672,-0.99542236,0.016052246,0.328125,0.140625,-0.125
1665673863505,0.018310547,-1.0025024,0.028015137,0.359375,0.875,0.21875
1665673863551,0.013916016,-1.0110474,0.013122559,-0.3125,0.078125,-0.21875
1665673863597,0.013916016,-0.9915161,0.02508545,-0.015625,0.875,-0.046875
1665673863626,0.020996094,-1.0037231,0.019470215,0.671875,0.53125,-0.09375
1665673863671,0.028564453,-0.98272705,0.027526855,-1.578125,-0.1875,-0.484375
1665673863717,0.018798828,-1.0071411,0.017028809,1.109375,0.96875,-0.15625
1665673863747,0.021972656,-0.9949341,0.0040893555,-2.703125,0.40625,-0.296875
1665673863793,0.016601562,-0.9961548,0.044128418,1.40625,-0.09375,-0.296875
1665673863837,0.013671875,-1.0025024,0.011169434,-2.09375,1.1875,-0.25
1665673863865,0.013916016,-0.98443604,0.023620605,-0.125,1.109375,0.078125
1665673863911,0.020263672,-1.0090942,0.02142334,0.296875,0.578125,-0.265625
1665673863957,0.011474609,-0.9866333,0.036071777,-0.203125,1.390625,-0.1875
1665673863986,0.017822266,-1.0073853,0.019470215,1.65625,1.0,0.265625
1665673864031,0.013671875,-0.9956665,0.019226074,-1.453125,0.328125,-0.328125
1665673864076,0.018554688,-0.99664307,0.038024902,0.875,1.03125,-0.171875
1665673864106,0.015625,-1.0027466,0.015319824,0.328125,1.140625,0.046875
1665673864151,0.018066406,-0.9890747,0.02947998,0.078125,0.671875,-0.25
1665673864182,0.008544922,-1.00177,0.03778076,0.1875,0.8125,-0.28125
1665673864228,0.017822266,-1.0076294,0.023864746,-1.1875,-0.09375,-0.4375
1665673864271,0.0078125,-0.9890747,0.025817871,-1.515625,0.6875,-0.328125
1665673864301,0.024414062,-0.9939575,0.022155762,-0.65625,-0.078125,-0.59375
1665673864347,0.022460938,-1.0046997,0.03387451,0.09375,0.09375,-0.53125
1665673864391,0.015136719,-1.0081177,0.038757324,-0.34375,0.40625,-0.125
1665673864421,0.013427734,-1.0015259,0.035339355,-0.125,0.484375,-0.1875
1665673864468,0.014404297,-1.0012817,0.0289917,0.109375,0.828125,-0.1875
1665673864511,0.008544922,-0.9902954,0.038757324,-0.40625,1.03125,-0.25
1665673864541,0.008544922,-1.0037231,0.016784668,-1.953125,-0.25,-0.25
1665673864587,0.0056152344,-0.9873657,0.055114746,3.890625,1.625,0.140625
1665673864632,0.010009766,-1.0081177,-5.493164E-4,-2.609375,-0.46875,-0.21875
1665673864661,0.0014648438,-0.99053955,0.055114746,1.09375,0.765625,-0.359375
1665673864706,0.010009766,-1.0195923,0.026794434,0.5,0.796875,0.109375
1665673864751,0.018066406,-0.9734497,0.030212402,-2.28125,1.109375,-0.3125
1665673864782,0.018310547,-1.0056763,0.034118652,1.953125,1.015625,-0.421875
1665673864826,0.011230469,-1.0046997,0.02557373,-1.140625,1.0625,0.34375
1665673864872,0.017089844,-0.9937134,0.046081543,1.59375,-0.046875,-0.046875
1665673864901,0.010009766,-1.0015259,0.038757324,-0.90625,0.578125,-0.125
1665673864946,0.009277344,-0.99420166,0.028503418,-0.5,-0.25,-0.265625
1665673864992,0.015380859,-1.0007935,0.034118652,0.640625,0.5625,-0.046875
1665673865020,-4.8828125E-4,-0.9932251,0.028259277,0.28125,1.390625,0.234375
1665673865067,0.020751953,-0.99224854,0.023376465,0.28125,-0.21875,-0.203125
1665673865111,0.0021972656,-1.0012817,0.039245605,0.765625,1.046875,0.03125
1665673865141,0.010986328,-0.9998169,0.02508545,0.0,0.484375,0.234375
1665673865188,0.018066406,-1.00177,0.026306152,0.890625,0.171875,-0.28125
1665673865233,0.0126953125,-0.9985962,0.035827637,-0.125,0.984375,0.203125
1665673865260,0.011474609,-0.9963989,0.02532959,0.5,0.40625,0.0625
1665673865307,0.010986328,-0.99786377,0.023864746,0.359375,0.078125,-0.125
1665673865335,0.01171875,-0.99591064,0.038757324,0.484375,1.21875,0.171875
1665673865381,0.004638672,-1.0039673,0.020446777,0.796875,-0.046875,0.0
1665673865427,0.012451172,-0.99420166,0.016784668,0.8125,1.25,-0.171875
1665673865456,0.0048828125,-1.000061,0.024597168,0.078125,0.140625,-0.21875
1665673865504,0.01586914,-1.003479,0.008972168,-0.625,0.046875,-0.15625
1665673865546,0.009765625,-0.9834595,0.061950684,1.875,1.171875,-0.046875
1665673865576,0.010498047,-1.0081177,0.007507324,-0.46875,-0.515625,-0.28125
1665673865622,-0.0041503906,-0.99468994,0.0289917,-1.0625,1.25,-0.53125
1665673865667,0.0075683594,-1.0054321,0.048034668,1.5,0.578125,0.140625
1665673865695,9.765625E-4,-0.9849243,0.013122559,-1.65625,0.6875,-0.03125
1665673865742,0.0029296875,-0.99542236,0.031677246,1.65625,0.21875,-0.28125
1665673865787,0.010009766,-0.99835205,0.03265381,-0.640625,0.375,-0.140625
1665673865816,0.007080078,-0.9951782,0.030456543,0.921875,-0.046875,-0.09375
1665673865864,0.013671875,-1.0022583,0.020202637,-0.953125,-0.8125,-0.03125
1665673865907,-7.324219E-4,-1.0010376,0.0138549805,0.625,0.15625,0.109375
1665673865935,0.01586914,-1.0044556,0.024841309,0.484375,0.03125,0.203125
1665673865981,0.005859375,-0.9949341,0.028015137,-0.09375,0.703125,0.40625
1665673866027,0.0063476562,-0.9963989,0.024597168,0.03125,-0.1875,0.15625
1665673866056,0.010253906,-0.99786377,0.01776123,0.453125,-0.171875,0.140625
1665673866101,0.0031738281,-0.98638916,0.038757324,0.390625,0.8125,0.515625
1665673866146,0.0056152344,-1.0046997,0.012390137,0.5625,0.296875,0.265625
1665673866176,0.015136719,-0.9849243,0.024597168,0.9375,0.046875,0.171875
1665673866223,0.005859375,-1.0108032,0.018005371,1.6875,0.6875,0.5625
1665673866267,0.0075683594,-0.9924927,0.018981934,0.703125,0.375,0.28125
1665673866295,0.017822266,-0.9927368,0.026794434,1.84375,-0.046875,0.8125
1665673866341,0.0056152344,-0.9981079,0.008483887,3.234375,1.28125,0.640625
1665673866370,0.0107421875,-0.9998169,0.011413574,1.046875,1.59375,0.203125
1665673866417,0.010009766,-0.99713135,0.0211792,1.421875,1.78125,0.3125
1665673866461,0.0107421875,-0.99053955,0.01361084,0.21875,0.5625,-0.03125
1665673866490,0.018554688,-1.0012817,0.015563965,1.203125,0.046875,0.375
1665673866537,0.013671875,-0.99420166,-0.008850098,-2.1875,-0.21875,0.015625
1665673866582,0.013671875,-1.0073853,0.030944824,1.671875,-1.828125,0.046875
1665673866611,0.010253906,-1.0078735,0.012145996,-2.1875,0.046875,0.1875
1665673866656,0.0021972656,-0.97906494,0.01751709,0.796875,1.109375,0.515625
1665673866702,0.032958984,-1.0108032,-0.0022583008,0.0,-1.046875,-0.3125
1665673866731,0.005859375,-0.9924927,0.014099121,0.171875,0.8125,0.53125
1665673866777,0.010986328,-1.00177,0.010925293,0.0625,-0.546875,0.609375
1665673866823,0.017822266,-0.9939575,0.0072631836,-1.109375,0.15625,-0.546875
1665673866850,0.01171875,-1.0093384,0.01776123,1.015625,0.0625,0.046875
1665673866896,0.018310547,-0.99102783,0.014831543,-1.078125,0.234375,0.359375
1665673866942,0.011230469,-0.9990845,0.008483887,1.21875,0.03125,-0.09375
1665673866970,0.01928711,-0.9968872,0.020446777,-0.34375,0.234375,0.078125
1665673867017,0.015380859,-0.9981079,0.010925293,-0.109375,-0.140625,0.109375
1665673867062,0.022216797,-0.9976196,0.013366699,-0.953125,-0.8125,0.0
1665673867091,0.013183594,-0.9932251,0.019226074,0.75,0.5,-0.078125
1665673867137,0.0075683594,-1.0098267,0.018493652,-0.375,-0.34375,0.0
1665673867181,0.01928711,-0.9834595,0.008972168,-0.640625,-0.3125,-0.3125
1665673867210,0.012207031,-1.0044556,0.026062012,0.65625,0.0625,-0.171875
1665673867256,0.013916016,-0.9961548,0.016052246,0.234375,0.34375,0.34375
1665673867301,0.01953125,-0.9939575,0.014831543,-0.75,-0.46875,-0.390625
1665673867331,0.010253906,-1.0025024,-0.0032348633,-0.21875,-0.140625,0.109375
1665673867376,0.012939453,-0.99542236,0.046569824,1.359375,0.921875,0.53125
1665673867421,0.014160156,-1.0064087,-0.011291504,-0.65625,0.09375,-0.125
1665673867451,0.014160156,-0.9883423,0.034851074,-0.265625,-0.546875,-0.359375
1665673867497,0.012451172,-1.0076294,0.016296387,-0.328125,-0.203125,-0.015625
1665673867525,0.01977539,-0.9841919,0.021911621,-2.640625,0.453125,0.15625
1665673867571,0.0075683594,-1.0144653,0.01727295,1.65625,-0.140625,-0.328125
1665673867616,0.026123047,-0.9985962,0.011657715,-1.625,0.546875,0.171875
1665673867647,0.018066406,-0.9956665,0.042175293,1.734375,0.625,0.0625
1665673867691,0.013916016,-0.9985962,0.020446777,-0.90625,0.1875,-0.078125
1665673867737,0.024414062,-1.0005493,0.023620605,0.796875,-0.671875,-0.28125
1665673867812,0.011230469,-0.99835205,0.018493652,-1.078125,-0.5,-0.234375
1665673867817,0.0012207031,-0.9871216,0.028503418,1.25,1.265625,0.359375
1665673867856,0.025390625,-0.9963989,0.015563965,-0.6875,-0.5,-0.5
1665673867886,0.012939453,-0.9981079,0.031921387,0.453125,0.515625,-0.09375
1665673867931,0.016357422,-1.0020142,0.022644043,0.34375,0.640625,-0.046875
1665673867977,0.022949219,-0.9907837,0.023864746,-0.671875,0.046875,0.0
1665673868006,-9.765625E-4,-1.0046997,0.024841309,0.6875,0.53125,-0.140625
1665673868051,0.018554688,-0.98883057,0.01727295,-0.28125,0.25,0.328125
1665673868097,0.0063476562,-0.9993286,0.018981934,0.703125,0.296875,-0.28125
1665673868126,0.017822266,-1.0020142,0.020446777,0.484375,0.875,0.203125
1665673868172,0.018554688,-0.9932251,0.013122559,4.140625,1.59375,-0.1875
1665673868218,0.010009766,-1.0142212,0.0040893555,0.75,1.609375,-0.0625
1665673868246,0.017822266,-0.9885864,0.028503418,2.84375,1.40625,0.03125
1665673868293,0.013671875,-1.0005493,0.0045776367,0.671875,1.5625,0.03125
1665673868337,0.0061035156,-1.000061,0.0211792,-0.3125,0.265625,-0.703125
1665673868366,0.0126953125,-1.00177,0.017028809,2.015625,1.03125,0.0
1665673868412,0.020019531,-0.99346924,-0.0025024414,-1.203125,1.046875,0.046875
1665673868457,0.010009766,-1.005188,0.01361084,1.28125,0.71875,-0.421875
1665673868486,0.012939453,-1.0005493,9.1552734E-4,-1.1875,0.296875,0.0625
1665673868532,0.014404297,-0.99102783,0.02532959,1.015625,0.875,-0.140625
1665673868561,0.009765625,-1.003479,0.0045776367,-1.46875,0.1875,0.125
1665673868607,0.0126953125,-0.98760986,0.017028809,0.390625,0.625,-0.25
1665673868651,0.020263672,-1.0098267,0.010681152,-0.109375,0.109375,0.03125
1665673868681,0.009277344,-0.9812622,0.004333496,0.390625,1.03125,0.234375
1665673868726,0.013427734,-0.9976196,0.011169434,-0.0625,0.171875,-0.296875
1665673868771,0.018798828,-0.9998169,0.007751465,0.734375,0.515625,-0.265625
1665673868800,0.008300781,-0.9968872,0.0138549805,-0.53125,0.34375,-0.265625
1665673868846,0.010009766,-0.99346924,0.00970459,0.28125,0.9375,-0.265625
1665673868892,0.011962891,-0.9998169,0.0138549805,0.546875,0.390625,-0.28125
1665673868921,0.0126953125,-1.0003052,0.0033569336,0.40625,0.421875,-0.0625
1665673868967,0.011962891,-0.99224854,0.012878418,-1.046875,0.875,0.140625
1665673869011,0.012939453,-1.00177,0.003112793,1.53125,0.671875,0.0
1665673869042,0.009521484,-0.99786377,0.0072631836,-0.703125,0.203125,-0.078125
1665673869088,0.011962891,-0.9907837,0.027038574,-0.40625,0.390625,-0.046875
1665673869131,0.010253906,-0.9968872,0.0040893555,-1.609375,0.0625,-0.15625
1665673869160,0.012207031,-0.9990845,0.016784668,2.5625,0.8125,0.40625
1665673869206,0.019042969,-0.99664307,-0.0134887695,-2.234375,0.6875,-0.203125
1665673869252,0.0029296875,-1.0003052,0.02923584,1.796875,0.34375,-0.28125
1665673869281,0.029541016,-0.99835205,0.010192871,-1.0,1.015625,0.140625
1665673869329,9.765625E-4,-0.9939575,0.0119018555,0.46875,1.921875,0.125
1665673869371,0.017089844,-1.0061646,0.0072631836,-0.96875,-0.625,0.0
1665673869400,0.0068359375,-0.99298096,0.007751465,0.328125,0.859375,-0.328125
1665673869447,0.00390625,-0.9968872,0.031921387,0.671875,1.125,0.59375
1665673869491,0.029785156,-0.99664307,0.001159668,-1.6875,-0.734375,-0.375
1665673869521,0.0026855469,-0.9927368,0.034118652,0.90625,0.46875,-0.140625
1665673869567,0.011474609,-1.0078735,0.016784668,-0.03125,0.328125,0.109375
1665673869612,0.0107421875,-0.9898071,0.007751465,0.46875,0.1875,0.15625
1665673869641,0.0063476562,-1.0046997,0.022644043,0.1875,0.421875,-0.03125
1665673869686,0.0126953125,-1.0037231,0.005554199,0.234375,-0.140625,0.0625
1665673869715,0.0024414062,-0.99176025,0.009460449,-0.28125,0.296875,0.0625
1665673869761,0.009521484,-0.9902954,0.02142334,0.25,0.9375,-0.046875
1665673869807,0.0087890625,-0.9990845,0.004333496,-0.359375,-0.15625,-0.0625
1665673869836,0.011230469,-0.99786377,0.0138549805,-0.21875,0.53125,0.265625
1665673869881,0.0073242188,-0.9990845,0.019470215,0.46875,0.65625,-0.265625
1665673869927,0.0078125,-0.99468994,0.0138549805,0.109375,0.65625,0.171875
1665673870003,0.009277344,-1.0044556,0.016784668,0.3125,0.890625,-0.015625
1665673870007,0.010009766,-0.9873657,0.016052246,-2.046875,0.65625,0.1875
1665673870046,0.008544922,-1.0039673,0.018005371,3.0,0.71875,0.71875
1665673870076,0.01953125,-0.9976196,-0.0017700195,-2.609375,0.078125,-0.234375
1665673870123,-0.0053710938,-0.9990845,0.031677246,1.671875,0.96875,0.03125
1665673870167,0.014892578,-1.0095825,0.0048217773,-0.328125,-0.03125,0.109375
1665673870195,0.0068359375,-0.9819946,0.024353027,0.046875,1.4375,-0.03125
1665673870240,0.009765625,-1.0064087,0.01727295,1.0625,0.375,-0.1875
1665673870287,0.012207031,-0.99713135,6.713867E-4,0.171875,0.21875,0.15625
1665673870316,0.008544922,-0.9951782,0.03338623,1.078125,0.578125,0.359375
1665673870362,0.010986328,-1.0012817,0.00970459,-0.375,0.828125,-0.234375
1665673870409,0.009277344,-0.9949341,0.02166748,0.03125,-0.34375,-0.21875
1665673870436,0.013183594,-0.9998169,0.0053100586,0.28125,0.234375,0.171875
1665673870481,0.010009766,-0.9951782,0.010925293,1.21875,0.359375,0.09375
1665673870527,0.009521484,-1.0022583,0.023376465,0.015625,0.28125,-0.21875
1665673870555,0.015380859,-1.0025024,0.0048217773,0.09375,-0.546875,-0.046875
1665673870601,0.009033203,-0.9920044,0.014587402,-0.109375,0.578125,0.1875
1665673870647,0.009765625,-1.0010376,0.0053100586,1.03125,-0.40625,-0.15625
1665673870676,0.009765625,-0.9890747,0.010925293,1.390625,0.765625,0.25
1665673870722,0.012207031,-0.9985962,0.003112793,1.40625,0.03125,-0.15625
1665673870751,0.0034179688,-1.000061,0.010437012,-0.046875,0.78125,0.09375
1665673870797,0.0075683594,-0.9937134,-0.0015258789,1.828125,0.265625,-0.03125
1665673870841,0.020019531,-1.0090942,0.0079956055,0.0,0.703125,0.0625
1665673870871,0.0,-0.98638916,0.02508545,0.359375,0.359375,-0.03125
1665673870916,0.020507812,-0.99713135,-0.0020141602,0.390625,0.171875,0.34375
1665673870962,0.015136719,-0.99957275,-6.1035156E-5,-1.390625,0.109375,-0.84375
1665673870991,0.01953125,-0.99664307,0.019470215,2.453125,-0.84375,0.046875
1665673871037,-0.0021972656,-0.98760986,0.010925293,-1.921875,1.203125,0.109375
1665673871082,0.0087890625,-1.00177,0.0026245117,2.3125,0.125,0.0625
1665673871111,0.012207031,-1.0032349,0.0033569336,-0.765625,0.859375,-0.25
1665673871158,0.0078125,-0.9915161,0.0053100586,1.453125,0.1875,0.328125
1665673871202,0.018066406,-0.9924927,-0.008850098,-0.3125,-0.046875,0.65625
1665673871231,0.0021972656,-0.9963989,0.005065918,-0.828125,1.296875,0.171875
1665673871277,0.0126953125,-1.003479,-0.004699707,0.765625,-0.578125,0.296875
1665673871322,0.014892578,-0.989563,0.0072631836,0.375,1.03125,0.28125
1665673871350,-0.0012207031,-0.99835205,0.005065918,-0.046875,-0.046875,0.09375
1665673871396,0.011962891,-1.0007935,-5.493164E-4,-1.0,-0.578125,-0.078125
1665673871442,0.012451172,-0.9990845,9.1552734E-4,-0.828125,-0.4375,0.0
1665673871470,0.009033203,-0.98809814,0.012390137,-0.75,-0.640625,-0.09375
1665673871517,0.012939453,-0.9985962,0.011413574,0.453125,-0.203125,0.375
1665673871564,0.009277344,-1.0090942,-0.003479004,-0.09375,-0.046875,0.078125
1665673871591,0.0126953125,-0.9849243,0.014587402,0.046875,-0.109375,0.3125
1665673871636,0.013671875,-1.006897,0.008239746,1.171875,0.296875,0.125
1665673871682,0.018554688,-0.9819946,-3.0517578E-4,-2.0,-0.359375,-0.109375
1665673871710,0.015380859,-1.006897,0.013366699,0.96875,0.171875,-0.0625
1665673871757,0.01953125,-0.9932251,-0.009338379,-2.796875,-0.015625,-0.25
1665673871801,9.765625E-4,-0.99346924,0.020935059,1.015625,0.296875,-0.140625
1665673871830,0.021240234,-1.0007935,0.0048217773,-1.65625,0.359375,-0.28125
1665673871877,0.0036621094,-0.9859009,0.027526855,0.828125,1.078125,0.03125
1665673871907,0.0126953125,-1.0154419,0.0038452148,-0.796875,-0.34375,-0.1875
1665673871951,0.013183594,-0.97906494,0.022644043,-1.0,0.3125,-0.140625
1665673871997,0.0034179688,-1.013977,-0.0012817383,0.984375,-0.109375,0.0625
1665673872027,0.008056641,-0.98931885,0.0067749023,-1.28125,0.515625,-0.328125
1665673872072,0.016845703,-1.0083618,0.026794434,0.875,0.25,0.015625
1665673872117,0.010009766,-0.9985962,0.010437012,-0.828125,0.265625,-0.109375
1665673872145,0.010986328,-0.9963989,0.012145996,-0.03125,0.71875,0.09375
1665673872194,0.012939453,-1.0015259,0.0079956055,-0.296875,0.78125,-0.25
1665673872237,0.016113281,-0.99005127,0.024597168,-1.3125,0.65625,0.125
1665673872266,0.007080078,-1.0005493,0.018249512,-0.09375,0.921875,-0.078125
1665673872312,0.009765625,-1.0020142,0.018005371,-0.03125,0.953125,0.125
1665673872357,4.8828125E-4,-1.0022583,0.01727295,0.21875,0.890625,0.15625
1665673872386,0.013427734,-0.9939575,0.01361084,0.328125,1.0,0.34375
1665673872431,0.0073242188,-0.9968872,0.015075684,0.0,0.1875,-0.203125
1665673872476,0.013916016,-1.0044556,0.0065307617,-1.421875,0.53125,0.296875
1665673872506,0.011474609,-0.9907837,0.042419434,2.265625,0.78125,-0.125
1665673872551,0.016845703,-1.0059204,-0.00982666,-1.25,-0.3125,0.140625
1665673872597,0.0061035156,-0.9920044,0.03656006,-0.828125,1.578125,-0.484375
1665673872625,0.009765625,-1.0100708,0.028259277,2.640625,0.703125,0.28125
1665673872672,0.0075683594,-0.99346924,0.012634277,-2.46875,0.765625,-0.140625
1665673872716,0.0073242188,-0.9956665,0.027770996,1.65625,1.34375,0.15625
1665673872747,0.013183594,-1.0088501,0.0036010742,-0.546875,0.25,0.015625
1665673872793,0.006591797,-0.9883423,0.039489746,1.734375,1.09375,0.296875
1665673872837,0.010986328,-1.0022583,0.014831543,-0.859375,-0.015625,0.09375
1665673872865,0.0056152344,-1.0003052,0.019226074,0.59375,0.453125,-0.0625
1665673872912,0.0053710938,-1.0029907,0.019226074,-0.390625,0.671875,0.140625
1665673872941,0.0107421875,-0.9866333,0.0119018555,0.4375,0.40625,0.171875
1665673872986,0.013427734,-0.9961548,0.023132324,-0.390625,1.109375,-0.109375
1665673873031,0.009277344,-1.000061,0.014343262,0.203125,0.390625,-0.0625
1665673873061,0.012207031,-0.99786377,0.018981934,0.1875,0.6875,-0.046875
1665673873107,0.010009766,-1.0037231,0.018493652,0.296875,0.90625,0.015625
1665673873151,0.0043945312,-0.9976196,0.021911621,0.359375,0.6875,-0.046875
1665673873181,0.013916016,-1.0005493,0.021911621,0.609375,1.046875,-0.046875
1665673873226,0.0078125,-0.9973755,0.0119018555,0.328125,0.625,0.03125
1665673873272,0.010498047,-0.99713135,0.019714355,0.390625,1.015625,-0.15625
1665673873301,0.0075683594,-0.99591064,0.019470215,-0.0625,0.21875,-0.015625
1665673873349,0.012207031,-1.0044556,0.003112793,-0.71875,0.828125,-0.015625
1665673873391,0.0073242188,-0.9976196,0.039001465,3.359375,0.5,0.171875
1665673873421,0.011230469,-1.0020142,-0.0068969727,-1.734375,-0.09375,-0.015625
1665673873467,4.8828125E-4,-0.9961548,0.019714355,0.921875,1.78125,-0.421875
1665673873511,0.018066406,-1.0073853,0.00970459,0.734375,-0.15625,-0.0625
1665673873541,0.005859375,-0.97906494,0.020690918,-1.046875,2.171875,0.234375
1665673873589,0.01171875,-1.0112915,0.012634277,0.4375,-0.09375,-0.21875
1665673873632,0.013183594,-0.99298096,0.016784668,-0.453125,0.515625,0.09375
1665673873661,0.0036621094,-1.0005493,0.029724121,1.9375,0.328125,0.375
1665673873707,0.012207031,-0.99420166,0.012878418,-1.03125,0.125,-0.15625
1665673873752,0.013916016,-0.9932251,0.016052246,0.3125,-0.625,-0.265625
1665673873781,0.010986328,-1.005188,0.02142334,0.25,0.21875,0.15625
1665673873826,0.0078125,-0.9973755,0.0053100586,0.59375,0.421875,0.21875
1665673873871,0.014160156,-1.0005493,0.013366699,0.40625,-0.078125,-0.25
1665673873901,0.005859375,-0.99298096,0.01361084,0.5,0.921875,0.171875
1665673873945,0.007080078,-0.9963989,0.01776123,-0.15625,0.046875,-0.03125
1665673873991,0.00390625,-0.9961548,0.013366699,0.859375,0.53125,0.09375
1665673874023,0.019042969,-1.0042114,0.014587402,0.0,0.5,0.09375
1665673874065,0.008544922,-0.99591064,0.0119018555,0.890625,0.453125,0.125
1665673874095,0.014892578,-1.0012817,0.012390137,1.203125,0.234375,0.0625
1665673874140,0.010498047,-0.99664307,0.010681152,0.6875,0.328125,-0.140625
1665673874186,0.0024414062,-1.0112915,-0.003967285,-0.4375,0.546875,0.171875
1665673874218,0.016601562,-0.9771118,0.030212402,2.171875,0.453125,0.0
1665673874260,0.011474609,-1.0054321,-0.003479004,0.53125,0.125,0.078125
1665673874306,0.010986328,-1.0003052,0.0026245117,-0.28125,0.78125,-0.140625
1665673874337,0.018310547,-0.99591064,0.019958496,2.265625,0.0625,0.0
1665673874381,4.8828125E-4,-0.9927368,-6.1035156E-5,-0.984375,0.453125,0.03125
1665673874426,0.010253906,-1.0010376,0.004333496,1.609375,0.375,0.265625
1665673874456,0.012939453,-1.0066528,-0.007385254,-0.296875,0.015625,0.046875
1665673874501,0.007080078,-0.99346924,0.019958496,1.765625,0.484375,0.375
1665673874546,0.015625,-0.9951782,-0.002746582,-0.390625,-0.75,0.078125
1665673874575,0.013183594,-0.98809814,4.272461E-4,1.5625,-0.25,-0.234375
1665673874620,0.0068359375,-1.0046997,0.0033569336,1.203125,0.6875,0.4375
1665673874665,0.013671875,-0.99176025,-0.008850098,0.765625,-0.46875,0.15625
1665673874695,0.0034179688,-1.0012817,-0.004211426,1.8125,0.4375,-0.15625
1665673874741,0.010498047,-1.0012817,-0.010314941,-0.078125,-0.140625,0.3125
1665673874786,0.011230469,-0.99420166,-0.0095825195,0.71875,-0.296875,-0.046875
1665673874817,0.008300781,-1.0020142,0.010681152,0.578125,0.265625,0.140625
1665673874860,0.015625,-0.9937134,-0.0076293945,-0.171875,-0.3125,0.25
1665673874905,0.013671875,-1.0007935,-0.007873535,0.46875,-0.03125,0.046875
1665673874936,0.009765625,-1.0032349,0.0026245117,0.671875,0.375,0.03125
1665673874982,0.010009766,-0.9985962,-0.012756348,0.6875,0.046875,0.203125
1665673875025,0.0061035156,-1.0025024,-0.0076293945,1.421875,0.359375,0.078125
1665673875056,0.01586914,-0.9819946,-0.015930176,-0.859375,-0.453125,-0.125
1665673875101,0.0107421875,-0.99835205,-0.0012817383,1.265625,0.125,0.46875
1665673875130,0.012939453,-0.9981079,-0.032043457,-1.765625,0.0625,-0.359375
1665673875175,0.0061035156,-0.99591064,0.012878418,1.34375,-0.328125,-0.109375
1665673875221,0.017578125,-0.9993286,-0.008361816,-1.703125,0.828125,0.140625
1665673875250,0.013427734,-0.9890747,-0.0064086914,0.671875,0.6875,0.1875
1665673875296,0.022460938,-1.015686,-0.010803223,-0.71875,-0.3125,-0.28125
1665673875341,0.0107421875,-0.987854,-5.493164E-4,-0.609375,0.65625,0.046875
1665673875370,0.015625,-1.0020142,-0.023986816,0.3125,0.3125,0.25
1665673875416,0.00390625,-0.989563,-0.01373291,-1.4375,1.125,0.375
1665673875461,0.013916016,-1.0112915,9.1552734E-4,0.5625,1.171875,0.421875
1665673875492,0.009765625,-0.9932251,-0.0051879883,-0.203125,0.765625,0.21875
1665673875535,0.011230469,-0.9932251,-0.0017700195,0.28125,1.171875,0.328125
1665673875581,0.012939453,-1.005188,-0.013977051,0.140625,0.3125,0.203125
1665673875612,0.008544922,-0.99224854,-0.002746582,-0.5625,0.78125,0.28125
1665673875657,0.011962891,-0.9976196,-0.008361816,-0.34375,-0.75,-0.125
1665673875702,0.020751953,-0.9976196,0.002380371,-0.828125,0.296875,0.140625
1665673875730,0.0048828125,-1.0010376,-0.019348145,-0.78125,0.96875,0.21875
1665673875777,0.017822266,-0.9939575,0.0065307617,-0.09375,0.734375,0.0625
1665673875822,0.010009766,-0.99664307,-0.0012817383,0.0,0.53125,-0.125
1665673875851,0.015625,-0.9951782,0.0028686523,-0.046875,0.96875,0.25
1665673875897,0.0234375,-0.9956665,-0.015197754,-2.265625,-0.453125,0.03125
1665673875942,0.008544922,-0.9939575,0.017028809,2.234375,0.78125,0.0625
1665673875972,0.018798828,-0.9956665,-0.03253174,-1.734375,-0.21875,-0.21875
1665673876016,0.008056641,-0.9944458,0.024353027,-0.015625,0.28125,-0.34375
1665673876062,0.018310547,-1.0115356,-0.006652832,-0.203125,0.421875,0.140625
1665673876091,0.014404297,-0.9829712,0.0026245117,-0.984375,0.953125,0.015625
1665673876136,0.01171875,-1.0149536,-6.1035156E-5,0.515625,0.375,-0.109375
1665673876182,0.012207031,-0.9968872,-5.493164E-4,-0.875,0.21875,0.046875
1665673876211,0.009033203,-0.9981079,0.013122559,1.78125,1.015625,0.671875
1665673876272,0.020751953,-0.9956665,-6.1035156E-5,-0.875,0.015625,-0.1875
1665673876285,0.01171875,-0.99664307,0.007751465,1.59375,0.546875,0.25
1665673876332,0.018554688,-0.99591064,0.0045776367,-0.296875,0.90625,0.359375
1665673876377,0.022216797,-0.98809814,-0.003479004,0.859375,0.4375,0.09375
1665673876422,0.017089844,-0.9981079,0.00970459,-0.375,0.5,-0.125
1665673876452,0.013183594,-0.99884033,0.005065918,0.078125,0.234375,-0.0625
1665673876497,0.020751953,-0.99053955,0.0067749023,-0.46875,0.484375,0.109375
1665673876525,0.009521484,-1.0015259,0.0067749023,0.015625,-0.078125,-0.375
1665673876571,0.01586914,-0.99786377,0.0067749023,0.0,0.71875,0.0
1665673876616,0.014892578,-0.99713135,-0.003967285,-0.390625,0.21875,-0.015625
1665673876645,0.008544922,-1.0007935,0.0021362305,0.484375,0.546875,-0.171875
1665673876693,0.013671875,-1.0022583,0.010925293,-0.09375,0.53125,0.21875
1665673876737,0.013671875,-0.986145,-0.0029907227,-1.53125,0.578125,-0.34375
1665673876766,0.0087890625,-1.0059204,0.008239746,1.1875,0.75,0.421875
1665673876812,0.022216797,-0.9873657,-0.013977051,-2.046875,0.015625,-0.375
1665673876871,0.009033203,-0.99664307,0.031433105,1.40625,1.09375,-0.078125
1665673876885,0.018310547,-1.0027466,-0.00592041,-0.75,0.640625,0.1875
1665673876932,0.019042969,-0.98150635,0.024108887,-0.265625,1.390625,0.09375
1665673876977,0.017089844,-1.015686,-0.0044555664,0.609375,0.421875,-0.0625
1665673877006,0.0126953125,-0.9949341,0.0045776367,-0.859375,0.421875,-0.03125
1665673877051,0.004638672,-0.9985962,0.016784668,1.234375,0.5625,0.390625
1665673877112,0.0029296875,-0.99786377,0.0036010742,-0.625,1.78125,0.28125
1665673877126,0.017822266,-1.0022583,0.009460449,1.03125,0.65625,0.0
1665673877171,0.01953125,-0.9932251,-0.0032348633,0.03125,1.21875,0.46875
1665673877247,0.013183594,-0.9961548,0.0053100586,0.96875,0.09375,-0.09375
1665673877252,0.016357422,-0.9993286,0.0038452148,0.25,0.203125,-0.0625
1665673877291,0.023925781,-1.0012817,0.00579834,-0.28125,0.6875,0.25
1665673877336,0.020019531,-0.9890747,0.008239746,0.015625,0.921875,0.109375
1665673877367,0.020751953,-1.00177,0.005554199,0.71875,0.375,-0.203125
1665673877413,0.012451172,-0.9963989,9.1552734E-4,-0.0625,0.71875,0.03125
1665673877441,0.016845703,-0.9927368,0.011413574,0.109375,0.65625,-0.03125
1665673877488,0.017822266,-1.0015259,-5.493164E-4,0.640625,-0.015625,-0.21875
1665673877531,0.0053710938,-0.9883423,0.0045776367,-0.3125,0.46875,-0.140625
1665673877562,0.017333984,-1.0010376,0.0021362305,-0.234375,0.609375,-0.03125
1665673877607,0.010498047,-0.99713135,0.027282715,2.359375,0.40625,-0.203125
1665673877653,0.009033203,-1.0078735,-0.02154541,-0.734375,-0.171875,0.25
1665673877681,0.019042969,-0.99664307,0.017028809,-0.890625,1.0,-0.734375
1665673877727,7.324219E-4,-1.0046997,0.011657715,1.78125,0.125,0.0625
1665673877772,0.025146484,-0.986145,-3.0517578E-4,-1.75,0.953125,0.171875
1665673877801,0.0048828125,-1.0046997,-0.0051879883,2.640625,0.109375,-0.34375
1665673877846,0.01953125,-0.99053955,0.0033569336,0.0,0.6875,0.078125
1665673877891,0.014404297,-0.99420166,0.014831543,2.78125,0.234375,0.125
1665673877920,0.021240234,-1.0015259,-0.011779785,-0.5,-0.5625,0.09375
1665673877965,0.0043945312,-0.9976196,1.8310547E-4,1.109375,0.203125,0.140625
1665673878013,0.022949219,-1.0012817,-0.0071411133,0.34375,-0.09375,0.21875
1665673878039,0.008300781,-0.9883423,-0.006164551,1.484375,0.671875,0.140625
1665673878088,0.018554688,-1.0015259,-0.0095825195,1.1875,0.0,0.015625
1665673878131,0.014404297,-0.9944458,-0.0134887695,0.65625,0.203125,-0.0625
1665673878161,0.0146484375,-1.0022583,-0.011047363,2.140625,0.9375,0.125
1665673878209,0.017578125,-0.9968872,-0.0049438477,1.703125,0.21875,-0.078125
1665673878251,0.014892578,-1.000061,-0.0071411133,1.65625,0.109375,0.0625
1665673878279,0.015625,-0.9920044,-0.0154418945,1.4375,0.0625,-0.171875
1665673878327,0.0043945312,-0.99957275,-0.010803223,0.171875,-0.0625,-0.125
1665673878371,0.014160156,-0.9990845,-0.023986816,1.234375,0.1875,0.1875
1665673878400,0.015380859,-0.99176025,-0.00982666,-0.0625,0.328125,-0.03125
1665673878446,0.010986328,-1.0005493,-0.02178955,-1.203125,-0.28125,-0.140625
1665673878476,0.016601562,-0.99664307,-0.0044555664,1.703125,-0.09375,0.34375
1665673878522,0.010498047,-0.99346924,-0.035705566,-0.703125,0.28125,0.21875
1665673878566,0.0061035156,-0.99786377,-0.006652832,0.8125,-0.1875,-0.703125
1665673878596,0.016357422,-1.0020142,-0.012512207,0.546875,-0.171875,0.453125
1665673878641,0.009277344,-0.9819946,-0.014465332,-0.109375,1.140625,-0.015625
1665673878701,0.01928711,-1.0132446,-0.019348145,0.375,-0.578125,-0.140625
1665673878716,0.017578125,-0.9915161,-0.018859863,0.125,0.578125,0.296875
1665673878763,0.006591797,-0.99884033,-6.1035156E-5,1.734375,0.03125,0.84375
1665673878807,0.022216797,-0.9927368,-0.024230957,-1.671875,-0.234375,-0.265625
1665673878835,0.008300781,-1.000061,9.1552734E-4,1.078125,-0.46875,0.046875
1665673878880,0.014404297,-0.9990845,-0.031311035,-0.828125,-0.234375,0.625
1665673878925,0.017333984,-0.98223877,-0.013244629,0.171875,0.203125,0.15625
1665673878955,0.018554688,-1.0098267,-0.013977051,0.15625,0.234375,-0.03125
1665673879000,0.013671875,-0.99053955,-0.02130127,-0.375,-0.671875,0.203125
1665673879046,0.013916016,-0.9902954,-0.014709473,0.46875,0.3125,0.015625
1665673879075,0.015625,-1.0007935,-0.010803223,-0.234375,0.40625,0.21875
1665673879120,0.017333984,-0.9956665,-0.020080566,0.796875,0.53125,0.421875
1665673879165,0.022216797,-0.99835205,-0.022766113,1.0,1.15625,0.265625
1665673879195,0.0078125,-0.98809814,-0.011047363,0.6875,0.578125,0.21875
1665673879240,0.016601562,-0.9961548,-0.02130127,-0.015625,0.21875,0.234375
1665673879285,0.014160156,-0.99176025,-0.0256958,0.296875,0.015625,0.109375
1665673879315,0.01586914,-1.0029907,-0.024230957,-0.953125,-0.84375,-0.140625
1665673879361,0.016113281,-0.9898071,-0.0010375977,1.796875,0.296875,0.296875
1665673879435,0.022460938,-1.0042114,-0.04107666,-0.375,-0.546875,0.15625
1665673879439,0.017578125,-0.98565674,9.1552734E-4,-0.921875,-0.53125,-0.421875
1665673879481,0.020996094,-1.0083618,-0.018859863,1.0,0.109375,0.25
1665673879525,0.020751953,-0.9812622,-0.019592285,-0.46875,1.0,0.296875
1665673879555,0.006591797,-1.0029907,-0.014221191,1.015625,0.15625,-0.015625
1665673879600,0.028564453,-0.9976196,-0.027160645,-0.453125,0.0625,0.359375
1665673879630,0.014892578,-0.98883057,0.0021362305,1.53125,1.125,0.5
1665673879677,0.020996094,-1.0007935,-0.020568848,-0.15625,0.859375,0.3125
1665673879720,0.022705078,-0.99664307,-0.0012817383,1.28125,-0.09375,0.109375
1665673879750,0.025634766,-0.99176025,-0.032287598,-0.21875,0.125,0.34375
1665673879796,0.012451172,-0.9951782,-0.010070801,1.015625,0.421875,0.125
1665673879841,0.013671875,-0.9968872,-0.02178955,0.140625,-0.59375,-0.0625
1665673879872,0.020996094,-1.0037231,-0.020812988,-0.484375,-1.046875,0.03125
1665673879916,0.013671875,-0.9924927,-0.019592285,-0.453125,0.28125,0.140625
1665673879960,0.020019531,-1.0007935,-0.02130127,0.140625,-0.4375,-0.15625
1665673879990,0.023925781,-0.9976196,-0.013977051,-0.375,0.46875,0.203125
1665673880051,0.01171875,-0.9927368,-0.020568848,1.484375,1.40625,0.4375
1665673880080,0.026855469,-0.9956665,-0.02545166,0.140625,0.03125,0.0
1665673880113,0.013916016,-0.9937134,-0.0025024414,0.328125,0.234375,0.046875
1665673880157,0.021728516,-1.003479,-0.021057129,-0.046875,-0.484375,0.234375
1665673880202,0.032470703,-0.9837036,-0.023254395,-1.1875,-0.671875,-0.40625
1665673880232,0.01928711,-1.0054321,-0.023498535,-0.109375,0.5625,-0.046875
1665673880279,0.026611328,-0.9968872,-0.034240723,-2.5,0.40625,-0.140625
1665673880322,0.013671875,-0.99884033,-0.0056762695,1.875,-0.140625,-0.25
1665673880350,0.02709961,-0.99468994,-0.012756348,-2.40625,1.71875,0.15625
1665673880411,0.018066406,-0.98272705,-0.00982666,0.9375,0.453125,-0.4375
1665673880441,0.024902344,-1.0078735,-0.018859863,-1.5,0.609375,-0.296875
1665673880472,0.018554688,-0.99005127,-0.015686035,-0.71875,1.5,-0.109375
1665673880517,0.024658203,-1.0115356,-0.012512207,1.265625,0.375,0.0625
1665673880593,0.018066406,-0.9951782,-0.014709473,-1.71875,1.140625,-0.34375
1665673880597,0.022949219,-0.9963989,1.8310547E-4,0.96875,0.640625,-0.234375
1665673880636,0.021240234,-0.99884033,-0.019104004,-0.625,-0.234375,0.046875
1665673880666,0.020019531,-0.9834595,-0.0134887695,0.265625,1.234375,0.015625
1665673880713,0.01977539,-1.0064087,-0.0115356445,0.4375,0.875,-0.125
1665673880757,0.013916016,-0.99176025,-0.010559082,-0.5625,0.609375,0.171875
1665673880786,0.016113281,-0.991272,-0.010559082,-0.0625,0.5625,-0.453125
1665673880832,0.013916016,-0.9990845,-0.00592041,-0.203125,0.828125,-0.0625
1665673880877,0.020996094,-0.9902954,-0.0134887695,0.34375,0.5625,0.171875
1665673880906,0.024169922,-0.99884033,-0.0071411133,0.15625,0.828125,-0.125
1665673880953,0.010498047,-0.9951782,-0.0017700195,0.15625,1.28125,-0.125
1665673880996,0.020751953,-0.99102783,-0.011047363,1.296875,0.609375,0.28125
1665673881044,0.019042969,-0.98638916,-0.013244629,-1.1875,0.640625,-0.46875
1665673881070,0.012451172,-1.0032349,-0.016174316,0.8125,1.0,0.15625
1665673881116,0.020507812,-1.000061,-0.023986816,-1.296875,0.875,-0.15625
1665673881149,0.008056641,-1.0010376,-0.0071411133,1.453125,0.828125,-0.34375
1665673881191,0.021484375,-1.0020142,-0.008850098,-0.8125,1.984375,0.078125
1665673881239,0.007080078,-0.98565674,-0.013977051,1.234375,1.453125,0.09375
1665673881266,0.021728516,-1.0039673,-0.0178833,-0.796875,0.53125,-0.3125
1665673881312,0.010498047,-0.99298096,-0.014465332,1.484375,1.640625,0.265625
1665673881356,0.011474609,-0.99835205,0.0016479492,0.8125,0.796875,0.484375
1665673881385,0.022460938,-0.9885864,-0.016662598,-1.21875,0.609375,-0.625
1665673881432,0.0107421875,-1.0007935,6.713867E-4,0.796875,0.46875,-0.328125
1665673881479,0.017578125,-0.99542236,-0.011291504,-0.3125,0.8125,-0.125
1665673881506,0.016601562,-0.99298096,-0.0064086914,1.21875,1.046875,0.171875
1665673881552,0.022460938,-0.9985962,-0.013244629,0.515625,0.578125,-0.171875
1665673881597,0.016845703,-0.99957275,-0.011779785,0.25,0.078125,0.03125
1665673881627,0.015136719,-0.99224854,-0.014465332,0.03125,0.90625,0.03125
1665673881672,0.020507812,-1.0010376,-0.009094238,0.828125,0.625,-0.203125
1665673881717,0.01953125,-1.0007935,-0.019348145,1.0625,0.5625,-0.03125
1665673881745,0.017578125,-0.98883057,-0.0154418945,0.6875,0.75,-0.234375
1665673881792,0.016357422,-1.00177,-0.018371582,0.875,0.78125,-0.09375
1665673881821,0.011474609,-0.99102783,-0.010803223,0.390625,0.53125,0.109375
1665673881866,0.009521484,-1.0083618,-0.024230957,0.640625,0.96875,0.296875
1665673881912,0.022705078,-0.9800415,-0.0051879883,-0.6875,0.3125,-0.25
1665673881941,0.015380859,-1.0064087,-0.026916504,1.53125,1.015625,0.390625
1665673881986,0.029785156,-1.0005493,-0.03302002,-1.875,0.484375,-0.34375
1665673882030,0.0041503906,-0.9951782,0.007751465,3.515625,1.46875,-0.015625
1665673882062,0.011962891,-1.0003052,-0.03765869,-1.265625,1.015625,0.265625
1665673882107,0.020019531,-0.98150635,-0.0178833,1.609375,0.890625,0.0625
1665673882152,0.014160156,-1.0108032,-0.023254395,-0.28125,0.8125,-0.21875
1665673882180,0.012207031,-0.99176025,-0.022033691,-0.5625,0.625,0.25
1665673882226,0.014892578,-0.9949341,-0.013977051,2.34375,0.15625,0.328125
1665673882274,0.01977539,-0.9993286,-0.034240723,-0.625,1.109375,0.0
1665673882300,0.012451172,-0.9973755,-0.018371582,1.515625,-0.125,-0.015625
1665673882349,0.021728516,-0.99884033,-0.025939941,-0.234375,0.859375,0.203125
1665673882392,0.009765625,-0.98931885,-0.02178955,0.4375,0.34375,-0.015625
1665673882421,0.020996094,-1.0081177,-0.023254395,0.484375,0.609375,-0.359375
1665673882467,0.010498047,-0.99102783,-0.032287598,0.015625,0.1875,0.15625
1665673882511,0.020263672,-0.989563,-0.024230957,2.390625,1.25,0.046875
1665673882541,0.017089844,-1.0122681,-0.03253174,0.453125,0.3125,-0.390625
1665673882587,0.016113281,-0.9939575,-0.026428223,0.421875,0.390625,0.375
1665673882631,0.017333984,-0.991272,-0.024719238,0.96875,-0.109375,-0.203125
1665673882661,0.011962891,-0.9993286,-0.03643799,0.875,-0.234375,0.125
1665673882708,0.012451172,-0.99346924,-0.034484863,1.203125,-0.03125,0.015625
1665673882752,0.005126953,-0.9985962,-0.027404785,1.046875,-0.890625,-0.234375
1665673882781,0.014404297,-1.0003052,-0.055480957,-0.609375,-0.1875,0.109375
1665673882827,0.02709961,-0.98394775,-0.016174316,3.328125,-0.703125,-0.046875
1665673882856,0.014160156,-1.0046997,-0.042541504,-0.46875,-0.203125,0.09375
1665673882904,0.01977539,-0.98931885,-0.039123535,-1.125,0.078125,-0.203125
1665673882947,0.02368164,-1.0037231,-0.020568848,2.03125,-0.296875,0.171875
1665673882977,0.010009766,-0.9805298,-0.039367676,-2.15625,0.390625,0.171875
1665673883022,0.009521484,-1.0076294,-0.034484863,1.453125,-0.984375,-0.375
1665673883067,0.011474609,-1.00177,-0.03643799,-0.65625,-0.421875,0.15625
1665673883097,0.016357422,-0.9915161,-0.030822754,-0.015625,-0.421875,0.5
1665673883143,0.024902344,-0.9973755,-0.05328369,-1.6875,-1.390625,-0.140625
1665673883186,0.009521484,-0.98931885,-0.026672363,-0.46875,0.046875,-0.3125
1665673883219,0.021972656,-1.005188,-0.031066895,1.21875,0.25,0.09375
1665673883262,0.020263672,-0.9915161,-0.032043457,0.609375,0.40625,0.046875
1665673883306,0.009765625,-0.99468994,-0.021057129,0.09375,-0.140625,-0.171875
1665673883336,0.016845703,-0.9990845,-0.03717041,-1.21875,-1.078125,0.046875
1665673883381,0.018798828,-0.9937134,-0.038635254,-0.421875,-0.171875,0.109375
1665673883426,0.012451172,-1.0015259,-0.03375244,0.171875,0.0,-0.15625
1665673883456,0.01586914,-0.9932251,-0.027648926,-0.84375,-0.640625,0.109375
1665673883501,0.015625,-0.9951782,-0.035705566,0.40625,0.078125,0.171875
1665673883547,0.016357422,-0.9981079,-0.02545166,-0.234375,-0.640625,-0.03125
1665673883576,0.020263672,-0.9944458,-0.02545166,-1.0625,-0.390625,0.15625
1665673883621,0.014892578,-0.99884033,-0.027893066,-0.921875,-0.25,-0.125
1665673883667,0.026367188,-0.989563,-0.033996582,-0.375,-0.625,0.109375
1665673883696,0.012451172,-0.98809814,-0.012268066,0.375,0.3125,0.015625
1665673883744,0.011962891,-0.9939575,-0.024719238,-0.1875,0.59375,0.328125
1665673883787,0.023925781,-0.9949341,-0.039611816,-2.359375,-0.921875,-0.515625
1665673883816,0.013183594,-1.0078735,-0.005432129,0.921875,-0.859375,0.015625
1665673883862,0.017822266,-0.9846802,-0.030822754,-1.28125,0.578125,0.3125
1665673883908,0.025390625,-0.99957275,-0.022521973,1.125,-0.171875,-0.09375
1665673883937,0.021972656,-0.99664307,-0.024963379,-1.078125,0.453125,0.1875
1665673883982,0.010009766,-0.98760986,-0.016906738,-0.015625,-0.1875,-0.125
1665673884011,0.01928711,-0.9998169,-0.035217285,-1.046875,-0.28125,0.21875
1665673884057,0.011474609,-0.9998169,-0.024719238,-1.28125,-0.6875,-0.28125
1665673884102,0.020507812,-0.9993286,-0.024230957,-0.6875,0.21875,0.21875
1665673884131,0.01977539,-0.9927368,-0.020568848,-0.46875,-0.15625,-0.03125
1665673884177,0.018798828,-0.99542236,-0.0154418945,-0.84375,0.078125,-0.109375
1665673884237,0.013916016,-1.00177,-0.016174316,-0.1875,0.109375,0.046875
1665673884251,0.020751953,-0.99102783,-0.02935791,-0.28125,0.265625,0.15625
1665673884298,0.021240234,-0.9973755,-0.009094238,0.015625,0.765625,-0.078125
1665673884344,0.017822266,-0.99468994,-0.016662598,0.078125,1.484375,0.28125
1665673884372,0.016357422,-1.0007935,-0.014953613,-0.28125,-0.078125,-0.203125
1665673884417,0.016113281,-0.9932251,-0.012512207,0.0,0.703125,0.171875
1665673884462,0.018798828,-1.000061,-0.018371582,-0.6875,-0.109375,-0.15625
1665673884490,0.016845703,-0.9985962,-0.023742676,0.296875,0.296875,0.171875
1665673884551,0.02368164,-0.98443604,0.010925293,0.03125,-0.171875,0.03125
1665673884582,0.016357422,-0.98638916,-0.015930176,0.296875,0.578125,0.015625
1665673884612,0.0087890625,-1.0032349,-0.017150879,-1.828125,-0.765625,-0.5
1665673884672,0.017333984,-1.0005493,-0.010070801,0.640625,0.28125,0.390625
1665673884701,0.018554688,-0.986145,-0.012268066,-1.171875,0.515625,-0.421875
1665673884731,0.01977539,-1.00177,-0.015930176,0.828125,0.15625,0.21875
1665673884779,0.025390625,-0.9920044,-0.0154418945,-1.171875,-0.3125,-0.296875
1665673884822,0.017089844,-0.9927368,-0.0029907227,0.53125,0.5,0.0625
1665673884850,0.014404297,-0.99835205,-0.034484863,-1.359375,0.03125,-0.078125
1665673884897,0.015380859,-0.99591064,-6.1035156E-5,-0.1875,0.265625,-0.15625
1665673884942,0.011474609,-1.0007935,-0.014465332,0.21875,-0.015625,-0.21875
1665673884970,0.021240234,-0.9939575,-0.010559082,-0.0625,0.4375,0.109375
1665673885017,0.02319336,-0.99053955,-0.0071411133,-0.359375,0.296875,-0.0625
1665673885046,0.016357422,-0.99957275,-0.012756348,-0.390625,-0.1875,-0.046875
1665673885091,0.0107421875,-0.991272,-0.0115356445,-0.40625,0.5,-0.015625
1665673885139,0.0146484375,-1.0003052,-0.0095825195,0.21875,-0.046875,-0.109375
1665673885165,0.018066406,-0.9939575,-0.0012817383,-0.375,0.15625,-0.09375
1665673885214,0.012207031,-1.0098267,-0.011047363,0.546875,0.25,0.03125
1665673885257,0.016113281,-0.99713135,-0.008117676,-0.5,-0.015625,0.234375
1665673885286,0.016113281,-0.98931885,-0.004699707,0.59375,-0.046875,-0.109375
1665673885334,0.018554688,-1.000061,-0.014953613,-1.59375,-0.71875,-0.234375
1665673885378,0.019042969,-1.00177,-0.008605957,0.65625,1.046875,0.03125
1665673885405,0.021484375,-1.000061,-0.02178955,-1.890625,0.15625,0.109375
1665673885452,0.010498047,-0.99224854,0.013122559,1.125,-0.4375,-0.0625
1665673885497,0.020507812,-1.008606,-0.019348145,-1.65625,0.859375,0.265625
1665673885526,0.013183594,-0.9729614,0.011169434,-0.09375,0.78125,-0.078125
1665673885572,0.01171875,-1.0110474,-0.015197754,-0.09375,0.359375,-0.046875
1665673885617,0.020263672,-0.99420166,-0.0020141602,-0.671875,0.625,-0.046875
1665673885646,0.015136719,-0.9993286,0.022888184,1.546875,0.734375,0.40625
1665673885692,0.02319336,-1.0027466,-0.007385254,-1.453125,0.578125,-0.28125
1665673885737,0.018066406,-0.99884033,0.006286621,0.453125,-0.0625,-0.140625
1665673885766,0.020019531,-1.0005493,-0.0076293945,0.40625,0.578125,-0.078125
1665673885811,0.008544922,-0.9939575,-0.006164551,-0.0625,0.359375,0.03125
1665673885857,0.015136719,-0.9981079,0.0065307617,-0.25,0.734375,-0.28125
1665673885887,0.0126953125,-1.005188,-0.0115356445,0.03125,0.25,-0.078125
1665673885932,0.015380859,-0.9846802,0.007751465,0.015625,0.796875,0.09375
1665673885977,0.008544922,-1.0020142,0.0036010742,0.140625,0.609375,-0.234375
1665673886005,0.017333984,-0.9963989,0.010192871,-0.125,0.421875,0.359375
1665673886050,0.012939453,-1.0003052,-6.1035156E-5,0.21875,0.015625,-0.078125
1665673886097,0.016357422,-0.99835205,0.0060424805,-0.65625,-0.6875,-0.015625
1665673886126,0.0234375,-0.9968872,-0.0029907227,0.921875,1.734375,0.3125
1665673886172,0.020019531,-0.9907837,0.0079956055,-0.53125,-0.953125,-0.5
1665673886201,0.01586914,-1.0022583,0.00579834,-0.28125,1.5625,0.25
1665673886247,0.013427734,-0.9963989,-0.016418457,-2.34375,0.0,-0.578125
1665673886292,0.0107421875,-1.0015259,0.015319824,2.078125,0.453125,0.15625
1665673886321,0.0087890625,-1.0025024,-0.0095825195,-1.234375,1.21875,-0.03125
1665673886369,0.016357422,-0.9890747,0.0079956055,0.546875,0.703125,-0.09375
1665673886412,0.01977539,-1.0064087,0.0036010742,-0.59375,0.28125,-0.34375
1665673886487,0.013427734,-0.99420166,-0.0029907227,-0.03125,0.515625,0.078125
1665673886491,0.016357422,-1.0015259,0.008728027,1.203125,0.609375,0.328125
1665673886531,0.010498047,-0.9961548,0.0014038086,-1.5,1.34375,-0.296875
1665673886561,0.020263672,-1.0020142,0.015319824,1.078125,-0.0625,-0.15625
1665673886607,0.025146484,-0.98809814,-0.0022583008,-0.46875,0.921875,0.28125
1665673886652,0.012939453,-0.9927368,-3.0517578E-4,0.78125,1.15625,0.046875
1665673886680,0.015625,-1.0071411,0.0040893555,0.21875,0.09375,-0.234375
1665673886727,0.016845703,-0.9973755,-3.0517578E-4,0.015625,0.921875,0.109375
1665673886773,0.009521484,-1.0005493,0.0036010742,0.265625,0.46875,0.078125
1665673886801,0.011962891,-0.99957275,0.008972168,0.078125,0.59375,0.046875
1665673886847,0.013427734,-0.9951782,-0.0015258789,-0.0625,0.75,0.03125
1665673886892,0.017089844,-0.9998169,0.012145996,0.765625,0.703125,-0.078125
1665673886922,0.017089844,-1.000061,-5.493164E-4,-0.25,0.59375,-0.03125
1665673886969,0.010986328,-0.99346924,0.0048217773,0.421875,0.28125,-0.015625
1665673887011,0.0087890625,-1.0046997,-0.008850098,-0.59375,1.15625,0.171875
1665673887041,0.015380859,-0.9898071,0.02532959,2.171875,0.265625,0.03125
1665673887087,0.01977539,-1.0027466,-0.019836426,-1.078125,0.578125,-0.09375
1665673887131,0.009033203,-0.9998169,0.0016479492,-0.984375,1.484375,-0.546875
1665673887162,0.020263672,-1.003479,0.016296387,1.625,0.203125,0.234375
1665673887209,0.017333984,-0.98760986,-0.0025024414,-1.078125,1.890625,0.03125
1665673887236,0.0061035156,-1.0066528,0.001159668,1.140625,0.625,0.03125
1665673887282,0.016601562,-0.9976196,0.0048217773,-0.40625,1.1875,0.046875
1665673887327,0.0107421875,-0.9968872,0.0099487305,0.984375,0.578125,0.03125
1665673887356,0.014892578,-1.0005493,-0.0095825195,-0.078125,-0.515625,0.1875
1665673887402,0.01586914,-0.9949341,-0.004211426,0.09375,0.703125,-0.328125
1665673887447,0.012939453,-1.013977,-0.0017700195,0.59375,0.4375,0.21875
1665673887477,0.014160156,-0.97906494,0.005554199,-0.359375,0.28125,0.296875
1665673887522,0.013183594,-0.9907837,-3.0517578E-4,0.6875,0.6875,-0.09375
1665673887582,0.012207031,-1.0142212,-0.004211426,-0.171875,0.046875,-0.09375
1665673887612,0.018554688,-0.98394775,0.0028686523,0.890625,0.75,0.171875
1665673887641,0.015136719,-1.0046997,0.0014038086,0.484375,0.359375,-0.25
1665673887687,0.0126953125,-0.9956665,0.004333496,0.328125,0.453125,0.1875
1665673887716,0.020996094,-0.99957275,-0.008361816,1.40625,0.671875,-0.140625
1665673887777,0.014404297,-0.9981079,-0.005432129,0.265625,0.0625,0.015625
1665673887807,0.008544922,-0.99176025,0.0038452148,2.265625,0.5625,0.09375
1665673887837,0.018798828,-1.0039673,-0.015197754,1.875,0.921875,0.140625
1665673887882,0.0068359375,-0.9961548,-0.006164551,0.625,-0.296875,0.015625
1665673887927,0.016357422,-0.99713135,-0.02960205,1.078125,0.671875,0.015625
1665673887957,0.021240234,-0.99420166,0.00970459,4.859375,-0.765625,1.125
1665673888004,0.009521484,-1.0037231,-0.037902832,0.40625,0.65625,0.109375
1665673888047,0.011230469,-0.991272,-0.009094238,0.03125,0.203125,-0.546875
1665673888076,0.016113281,-1.0071411,-0.009094238,1.703125,0.375,0.203125
1665673888122,0.008056641,-0.9817505,-0.020568848,-0.4375,0.90625,0.125
1665673888167,0.0126953125,-1.0132446,-0.020324707,0.90625,-0.125,-0.46875
1665673888196,0.009521484,-0.9915161,-0.020324707,-0.0625,0.5625,0.140625
1665673888242,0.020996094,-0.99468994,-0.0064086914,0.734375,-0.390625,-0.109375
1665673888286,0.0075683594,-1.0020142,-0.034729004,-0.796875,-0.84375,0.0
1665673888317,0.013671875,-0.99005127,-0.013977051,0.390625,-0.046875,-0.328125
1665673888362,0.0126953125,-1.0073853,-0.014709473,-0.546875,-0.296875,0.40625
1665673888391,0.018554688,-0.9783325,-0.023498535,0.171875,0.046875,0.203125
1665673888437,0.013671875,-1.005188,-0.015197754,0.46875,-0.015625,-0.25
1665673888482,0.005859375,-0.9932251,-0.02130127,-0.296875,-0.4375,0.234375
1665673888511,0.012939453,-0.99664307,-0.0071411133,-1.078125,-1.3125,-0.359375
1665673888557,0.013671875,-0.9885864,-0.014709473,0.640625,0.125,0.203125
1665673888604,0.021728516,-1.0059204,-0.0134887695,-0.453125,-0.453125,-0.234375
1665673888630,0.016113281,-0.9927368,-0.012756348,-0.375,-0.453125,0.234375
1665673888676,0.018066406,-0.9927368,-0.012512207,0.359375,0.015625,0.203125
1665673888723,0.0146484375,-1.0066528,-0.011291504,-0.03125,0.546875,0.078125
1665673888750,0.010986328,-0.99420166,-0.02154541,-0.40625,0.078125,0.390625
1665673888797,0.016601562,-1.0032349,-0.0154418945,0.140625,-0.296875,-0.3125
1665673888842,0.010498047,-1.0044556,-0.027893066,-1.140625,0.140625,0.09375
1665673888871,0.011962891,-0.9849243,0.008239746,1.5625,-1.03125,0.09375
1665673888917,0.017822266,-0.9902954,-0.023254395,-1.171875,0.453125,0.328125
1665673888962,0.015136719,-0.99346924,-0.0068969727,-0.875,-1.140625,-0.5
1665673888992,0.019042969,-0.9939575,0.0040893555,-0.078125,1.171875,0.140625
1665673889036,0.0063476562,-0.9949341,-0.010070801,-0.71875,0.921875,0.15625
1665673889082,0.011230469,-0.9993286,6.713867E-4,0.96875,0.171875,0.140625
1665673889110,0.01928711,-0.9927368,-0.010314941,-0.203125,0.78125,0.09375
1665673889157,0.010009766,-0.98394775,4.272461E-4,0.203125,0.546875,0.25
1665673889202,0.010009766,-0.99713135,-0.01373291,-0.90625,-0.203125,0.015625
1665673889233,0.012451172,-0.99176025,-3.0517578E-4,0.875,0.328125,-0.140625
1665673889277,0.020507812,-1.0088501,-0.014465332,-0.453125,0.515625,0.03125
1665673889322,0.0075683594,-0.99224854,-0.0037231445,0.9375,1.46875,0.34375
1665673889351,0.021972656,-0.99957275,-0.009094238,0.28125,0.375,-0.046875
1665673889397,0.021240234,-0.99957275,-0.018127441,-0.046875,0.640625,-0.171875
1665673889425,0.015136719,-0.99346924,-0.0029907227,0.796875,0.453125,0.171875
1665673889472,0.017089844,-0.99664307,-0.010314941,0.0625,0.15625,0.078125
1665673889517,0.015625,-1.0032349,-0.007385254,-0.296875,-0.109375,0.234375
1665673889546,0.015136719,-0.9907837,-0.004699707,0.4375,0.828125,0.0625
1665673889592,0.015136719,-1.0020142,-0.013000488,1.078125,0.3125,0.046875
1665673889653,0.020507812,-0.99664307,-0.006652832,-0.203125,0.375,0.25
1665673889665,0.009521484,-0.9985962,-0.0115356445,0.5625,0.765625,0.0
1665673889712,0.02368164,-1.0059204,-0.031066895,-0.65625,0.3125,-0.109375
1665673889757,0.020751953,-0.97979736,0.019958496,0.9375,1.484375,0.203125
1665673889786,0.0146484375,-0.9985962,-0.02130127,0.5,1.140625,0.25
1665673889834,0.015380859,-1.0032349,-0.010314941,-1.6875,0.15625,-0.765625
1665673889877,0.012451172,-1.0022583,0.0018920898,2.03125,1.828125,0.421875
1665673889924,0.019042969,-0.9873657,-0.019836426,-1.046875,0.59375,0.21875
1665673889951,0.009033203,-0.98809814,-0.006164551,1.703125,0.8125,-0.296875
1665673889997,0.017578125,-1.0073853,-0.015197754,-0.484375,0.53125,0.21875
1665673890027,0.020019531,-0.9837036,-0.004211426,0.5625,-0.09375,0.03125
1665673890072,0.004638672,-0.9990845,-0.02935791,-0.5625,0.046875,0.0
1665673890117,0.017822266,-0.98883057,-0.007873535,0.15625,-0.796875,-0.1875
1665673890146,0.020507812,-1.0044556,-0.012023926,0.1875,0.25,0.125
1665673890192,0.016845703,-0.9949341,-0.016662598,0.265625,-0.265625,0.25
1665673890238,0.018798828,-0.9951782,-0.0051879883,0.15625,0.453125,0.078125
1665673890267,0.016601562,-0.9973755,-0.022277832,0.609375,0.375,0.015625
1665673890311,0.02368164,-0.99176025,-0.010803223,-0.828125,0.25,0.046875
1665673890359,0.014160156,-0.99542236,-0.012268066,0.328125,0.828125,0.046875
1665673890402,0.020507812,-1.0056763,-0.012756348,-0.40625,-0.328125,0.0
1665673890432,0.016601562,-0.987854,-0.005432129,0.21875,0.390625,-0.046875
1665673890477,0.020019531,-1.006897,-0.014953613,-0.03125,0.328125,-0.078125
1665673890507,0.019042969,-0.9937134,-0.010559082,-0.484375,0.015625,-0.03125
1665673890552,0.018554688,-0.9973755,-0.008361816,0.84375,0.046875,0.203125
1665673890581,0.025634766,-0.98101807,-0.0071411133,-1.578125,-0.234375,-0.375
1665673890627,0.0126953125,-1.0130005,-0.02130127,-0.15625,0.421875,-0.125
1665673890673,0.022705078,-0.99176025,-0.024230957,-2.59375,0.90625,-0.203125
1665673890701,0.013427734,-1.0100708,0.0053100586,2.078125,-0.4375,-0.28125
1665673890747,0.020019531,-0.9944458,-0.019836426,-2.109375,1.34375,0.3125
1665673890792,0.017089844,-0.9885864,-0.0015258789,0.3125,0.109375,-0.515625
1665673890822,0.01977539,-1.0049438,-0.0064086914,-0.953125,0.375,0.171875
1665673890867,0.021484375,-0.99298096,-0.00982666,-0.375,-0.421875,-0.046875
1665673890912,0.013671875,-0.9927368,0.009460449,1.03125,0.40625,0.3125
1665673890940,0.018066406,-1.0081177,-0.008605957,-1.296875,-0.671875,-0.453125
1665673890987,0.017578125,-0.9932251,-0.006652832,0.015625,0.265625,0.171875
1665673891032,0.019042969,-1.0042114,-0.0020141602,0.25,0.328125,0.0
1665673891061,0.013916016,-0.98809814,-0.0015258789,-0.375,0.078125,0.109375
1665673891107,0.012207031,-0.9998169,-0.0056762695,0.484375,0.71875,-0.25
1665673891152,0.014892578,-1.0012817,-0.004699707,-0.234375,0.203125,0.0625
1665673891181,0.0107421875,-0.9937134,-0.0037231445,-0.203125,0.515625,0.046875
1665673891227,0.021728516,-0.99591064,0.0021362305,-0.171875,-0.1875,-0.15625
1665673891272,0.010009766,-0.9976196,-0.006652832,0.015625,0.671875,0.171875
1665673891301,0.011230469,-1.000061,-0.0025024414,0.265625,0.3125,0.09375
1665673891347,0.022949219,-0.99957275,-7.9345703E-4,-0.8125,0.296875,0.171875
1665673891392,0.017578125,-0.9937134,-0.02130127,-0.28125,0.453125,0.09375
1665673891421,0.022460938,-0.99224854,0.02557373,1.625,0.65625,0.1875
1665673891467,0.016113281,-0.99786377,-0.008361816,-0.84375,0.78125,0.203125
1665673891512,0.015625,-0.9937134,0.004333496,-1.5,0.71875,-0.5
1665673891542,0.011474609,-1.013977,0.009216309,2.28125,0.828125,0.15625
1665673891586,0.021972656,-0.9846802,-0.0032348633,-1.875,0.875,0.09375
1665673891616,0.011230469,-0.9993286,-7.9345703E-4,1.484375,1.015625,-0.203125
1665673891663,0.020263672,-1.0020142,0.001159668,-1.109375,0.3125,0.265625
1665673891708,0.013671875,-0.9871216,0.0099487305,0.34375,0.734375,-0.1875
1665673891736,0.009277344,-1.0042114,-0.013000488,0.046875,0.15625,0.328125
1665673891782,0.018554688,-0.98565674,0.004333496,-0.59375,1.0625,-0.078125
1665673891827,0.018310547,-1.0081177,-0.0010375977,1.09375,0.1875,0.015625
1665673891856,0.012207031,-0.99102783,0.0048217773,-0.75,0.859375,0.328125
1665673891904,0.021972656,-0.987854,0.0028686523,0.765625,0.671875,0.015625
1665673891947,0.015380859,-1.0076294,0.005554199,-0.234375,0.3125,-0.0625
1665673891976,0.010498047,-0.99346924,-0.003967285,-0.359375,0.34375,0.03125
1665673892022,0.021484375,-0.99005127,0.0072631836,-0.25,0.5625,0.03125
1665673892067,0.01171875,-0.9985962,0.0021362305,0.640625,0.796875,-0.15625
1665673892112,0.016113281,-0.99591064,0.011169434,0.0,0.125,0.078125
1665673892142,0.0146484375,-1.0054321,0.00579834,0.234375,0.609375,0.03125
1665673892187,0.019042969,-0.9963989,0.0016479492,-0.53125,-0.21875,0.0625
1665673892217,0.021484375,-0.9937134,-0.015686035,-0.171875,0.59375,0.21875
1665673892259,0.013916016,-0.9944458,0.03289795,1.828125,0.078125,-0.203125
