# Sensor type: Respeck
# Activity type: Walking at normal speed
# Activity code: 1
# Subject id: s1800825
# Notes: 
timestamp,accel_x,accel_y,accel_z,gyro_x,gyro_y,gyro_z
1664567237475,0.005859375,-1.3008423,0.117126465,-5.078125,-10.171875,-8.984375
1664567237522,0.32006836,-0.9085083,0.06365967,16.234375,4.125,8.140625
1664567237551,0.18725586,-0.75079346,0.25531006,7.671875,-9.625,9.265625
1664567237596,-0.15527344,-1.2061157,0.29486084,-8.234375,-18.125,2.28125
1664567237642,0.13012695,-1.0569458,0.17669678,0.59375,-12.5625,10.515625
1664567237672,0.12426758,-0.73883057,0.18792725,6.296875,-1.03125,4.5
1664567237717,0.028320312,-0.7144165,0.25628662,11.921875,-1.078125,10.4375
1664567237763,0.057128906,-0.7871704,0.21429443,10.0,-6.140625,10.046875
1664567237791,0.007080078,-0.9055786,0.27923584,3.296875,-1.609375,6.859375
1664567237839,-0.032470703,-0.9758911,0.23822021,6.296875,4.078125,2.265625
1664567237880,0.0073242188,-0.93927,0.2477417,12.546875,13.109375,0.328125
1664567237910,0.10839844,-1.0288696,0.2321167,10.328125,15.359375,4.6875
1664567237955,0.22290039,-1.3677368,0.41253662,2.46875,6.9375,-0.09375
1664567238001,-0.2121582,-1.3806763,0.2838745,-5.375,9.609375,-18.65625
1664567238031,0.3137207,-1.519104,0.18109131,-9.421875,-3.640625,-9.875
1664567238061,0.2758789,-1.2861938,0.089538574,3.921875,1.640625,-12.703125
1664567238120,-0.09643555,-0.6651001,-0.17584229,-2.484375,14.796875,0.859375
1664567238150,0.4404297,-0.7608032,-0.30718994,-12.546875,25.46875,2.25
1664567238181,0.29614258,-1.2102661,-0.037902832,12.9375,14.125,-0.625
1664567238241,0.036865234,-0.9133911,6.713867E-4,7.296875,17.96875,-0.28125
1664567238271,0.20654297,-0.6963501,0.046325684,17.203125,21.859375,1.078125
1664567238301,0.08276367,-0.73565674,0.027282715,7.65625,8.703125,7.53125
1664567238362,0.014404297,-0.8088989,0.019958496,5.078125,0.984375,8.921875
1664567238376,0.1418457,-0.78204346,0.04144287,7.421875,-7.515625,8.21875
1664567238421,0.0048828125,-0.81915283,0.030456543,3.3125,-8.640625,6.390625
1664567238482,0.091552734,-0.8557739,0.031188965,-0.484375,-11.296875,8.40625
1664567238495,0.048339844,-0.9651489,-0.04425049,-0.1875,-22.28125,6.578125
1664567238542,-0.0073242188,-1.4031372,0.10809326,-6.734375,-11.859375,-2.78125
1664567238601,-0.083984375,-1.598938,0.2994995,-21.375,3.09375,-5.84375
1664567238616,0.27294922,-1.7537231,0.19769287,-60.328125,-7.65625,-4.46875
1664567238661,0.34423828,-0.85772705,-0.30914307,-14.03125,3.59375,4.9375
1664567238692,0.80615234,-0.41705322,-0.09942627,13.828125,7.640625,5.515625
1664567238735,0.33544922,-1.3621216,0.16253662,-11.234375,-19.921875,-24.484375
1664567238782,-0.18481445,-1.3208618,-0.20855713,44.296875,-19.046875,0.078125
1664567238811,0.45654297,-0.57232666,0.101257324,10.3125,18.9375,-2.453125
1664567238857,0.0031738281,-0.71881104,-0.034973145,4.140625,10.71875,-2.8125
1664567238901,0.08618164,-0.5552368,0.11224365,8.140625,13.03125,1.375
1664567238931,0.2277832,-0.519104,0.121520996,0.421875,-3.046875,0.203125
1664567238977,0.09863281,-0.6868286,0.13885498,-2.75,2.0,-5.390625
1664567239051,0.01953125,-0.8579712,0.26287842,-3.734375,-5.65625,-9.0
1664567239054,-0.08618164,-0.99224854,0.17669678,-10.984375,-9.78125,-11.796875
1664567239097,0.21044922,-1.2495728,0.2411499,-9.65625,-3.75,-4.546875
1664567239141,0.33984375,-1.7297974,0.6508179,-4.71875,-20.015625,-7.03125
1664567239171,-0.8457031,-1.671936,0.23065186,-27.609375,2.1875,-38.90625
1664567239216,0.54174805,-1.060852,-0.047668457,19.90625,9.390625,9.90625
1664567239260,0.689209,-0.6177368,-0.28790283,-17.140625,8.765625,17.140625
1664567239292,0.47998047,-1.3289185,-0.1194458,8.78125,-6.578125,6.359375
1664567239336,-0.1159668,-1.4028931,0.387146,-4.21875,-6.390625,-7.046875
1664567239382,0.009765625,-0.5730591,-0.074035645,24.203125,25.734375,15.1875
1664567239411,0.3708496,-0.41656494,-0.0803833,20.453125,-9.390625,13.734375
1664567239441,0.028564453,-0.75323486,0.023132324,13.671875,-12.3125,7.875
1664567239501,-0.055419922,-0.7180786,-0.0068969727,17.34375,-8.140625,7.640625
1664567239531,0.07006836,-0.6670532,0.01776123,6.015625,0.78125,5.28125
1664567239560,0.019042969,-0.88067627,0.062927246,3.921875,-5.171875,0.609375
1664567239621,0.06323242,-1.1138306,0.1786499,-2.625,-10.25,-3.796875
1664567239651,0.055664062,-1.3394165,0.101501465,-4.890625,-11.140625,-3.15625
1664567239683,-0.036621094,-1.4880981,0.28460693,2.078125,15.1875,-6.390625
1664567239741,0.1574707,-1.6526489,0.1852417,-31.34375,-20.6875,1.828125
1664567239771,0.5744629,-0.43414307,-0.62823486,4.6875,0.21875,24.265625
1664567239801,0.92993164,-0.9026489,-6.1035156E-5,11.546875,-17.21875,-8.5625
1664567239860,0.014160156,-1.8027954,0.17547607,1.328125,-30.359375,-26.6875
1664567239875,-0.0048828125,-0.87213135,-0.31915283,26.921875,-6.296875,4.84375
1664567239921,0.28027344,-0.7390747,0.117614746,12.734375,13.203125,-1.765625
1664567239981,-0.13208008,-0.579895,-0.049865723,1.984375,-4.0,-1.625
1664567239996,0.05810547,-0.44439697,0.03265381,7.34375,-2.890625,2.84375
1664567240041,0.25463867,-0.58599854,0.09686279,5.1875,1.3125,3.40625
1664567240102,0.10546875,-0.7366333,0.1762085,4.828125,5.421875,0.53125
1664567240116,-0.056396484,-0.86968994,0.27288818,1.359375,-4.34375,-5.171875
1664567240160,-0.09033203,-1.0203247,-0.01373291,-11.6875,-1.265625,-6.71875
1664567240190,0.5432129,-1.6167603,0.38104248,-10.015625,-8.71875,-2.9375
1664567240236,-0.24121094,-1.7944946,0.3336792,-13.3125,0.296875,-16.296875
1664567240282,-0.203125,-1.5161743,-0.1519165,-24.875,10.109375,-5.15625
1664567240311,0.9008789,-0.46832275,-0.27008057,-6.59375,29.5,22.09375
1664567240356,0.05883789,-1.1167603,-0.24737549,-7.21875,10.46875,-2.203125
1664567240402,0.18530273,-1.645813,0.13372803,12.09375,0.484375,6.75
1664567240431,0.22094727,-0.723938,-0.012023926,9.90625,37.765625,9.8125
1664567240476,0.0,-0.43121338,-5.493164E-4,9.90625,24.015625,6.9375
1664567240521,0.19384766,-0.5708618,-0.054260254,1.328125,3.6875,8.71875
1664567240551,0.01171875,-0.67559814,-7.9345703E-4,8.78125,2.859375,4.96875
1664567240596,0.06542969,-0.69317627,-0.049621582,3.09375,-7.234375,5.9375
1664567240641,0.043701172,-0.8880005,0.026550293,0.625,-7.484375,-1.40625
1664567240671,0.03540039,-1.0601196,0.078308105,0.25,-6.34375,1.234375
1664567240717,0.10083008,-1.3526001,0.082458496,6.53125,-16.21875,5.578125
1664567240761,-0.020019531,-1.5786743,0.30413818,-16.375,1.453125,-2.796875
1664567240791,0.18237305,-1.6948853,0.07342529,-49.40625,-10.953125,-6.1875
1664567240881,0.42626953,-0.5484009,-0.39801025,8.125,21.84375,9.390625
1664567240885,0.9975586,-0.5215454,-0.081604004,6.078125,-9.34375,11.359375
1664567240911,0.16113281,-1.7180786,0.1630249,-26.578125,-54.296875,-36.171875
1664567240942,-0.0063476562,-1.2068481,-0.19952393,46.6875,-3.328125,13.71875
1664567241001,0.36279297,-0.5623169,0.109069824,9.90625,18.65625,-13.21875
1664567241031,-0.16357422,-0.6326294,0.020935059,13.125,1.265625,-0.71875
1664567241062,-0.008544922,-0.60284424,0.038269043,5.65625,9.28125,-0.734375
1664567241121,0.28466797,-0.6231079,0.11859131,-3.875,10.96875,-3.078125
1664567241153,0.12060547,-0.66900635,0.21453857,-3.6875,6.9375,0.78125
1664567241182,-0.15551758,-0.8987427,0.20819092,-11.5,2.609375,-9.984375
1664567241242,-0.006591797,-1.0266724,0.16107178,-9.734375,1.375,-13.953125
1664567241256,0.33154297,-1.3132935,0.24749756,-15.265625,-7.359375,-3.75
1664567241301,0.34277344,-1.7297974,0.5001831,-3.734375,-22.6875,-11.40625
1664567241361,-0.66796875,-1.6279907,0.12054443,-1.796875,9.390625,-15.234375
1664567241376,0.55444336,-0.848938,-0.16070557,-10.71875,34.640625,12.328125
1664567241422,0.37231445,-0.7954712,-0.30255127,-20.34375,33.3125,-1.296875
1664567241468,0.10424805,-1.5420532,0.09710693,12.125,12.484375,7.3125
1664567241495,0.24609375,-0.9985962,0.17449951,12.921875,12.921875,6.59375
1664567241542,0.10131836,-0.4673462,0.018005371,19.96875,37.21875,16.09375
1664567241601,0.13500977,-0.4524536,-0.20587158,16.859375,-2.59375,15.0625
1664567241616,0.15185547,-0.6682739,-0.039367676,15.234375,-14.28125,10.671875
1664567241662,-0.055419922,-0.8792114,0.04534912,10.671875,1.484375,1.875
1664567241737,-0.011474609,-0.88409424,0.019714355,9.140625,3.171875,5.046875
1664567241741,0.061035156,-1.0025024,0.10638428,1.90625,2.25,-4.59375
1664567241781,0.12133789,-1.2732544,0.07928467,-13.296875,-17.703125,6.015625
1664567241812,-0.05102539,-1.5178833,0.2296753,-7.4375,10.625,-8.671875
1664567241856,0.13671875,-1.7151489,-6.1035156E-5,-30.84375,-18.265625,-5.359375
1664567241902,0.56884766,-0.64801025,-0.28326416,3.515625,28.3125,12.65625
1664567241931,0.90771484,-0.6043091,-0.1807251,5.8125,-16.40625,1.046875
1664567241976,0.13916016,-1.7886353,0.16253662,-12.1875,-50.96875,-44.4375
1664567242022,-0.09765625,-1.0559692,-0.25006104,28.390625,18.65625,6.875
1664567242052,0.31030273,-0.6929321,0.062927246,9.578125,15.59375,-6.71875
1664567242096,-0.13012695,-0.6668091,0.005065918,2.59375,9.046875,-0.28125
1664567242142,0.088378906,-0.48199463,-0.030578613,-1.84375,3.625,0.703125
1664567242171,0.28564453,-0.51812744,0.09539795,2.671875,-2.234375,-1.578125
1664567242216,0.11669922,-0.77301025,0.15008545,-6.234375,0.625,-0.0625
1664567242262,-0.030517578,-0.9546509,0.31048584,-3.96875,-3.5,-6.859375
1664567242291,-0.048583984,-1.0662231,0.12982178,-5.90625,-7.375,-9.296875
1664567242321,0.28149414,-1.366272,0.2880249,-12.890625,-4.9375,0.3125
1664567242382,0.06567383,-1.6260376,0.60369873,-3.8125,-9.15625,-17.59375
1664567242412,-0.7963867,-1.6680298,0.030700684,-10.3125,3.328125,-25.171875
1664567242443,0.6904297,-0.71343994,-0.26641846,-17.390625,49.546875,17.0
1664567242501,0.5251465,-0.81695557,-0.3406372,-6.953125,21.671875,6.3125
1664567242531,0.14111328,-1.5098267,0.06048584,19.015625,-7.078125,5.625
1664567242561,0.11669922,-1.1682739,0.18011475,13.734375,12.46875,5.203125
1664567242623,0.14086914,-0.6074829,-0.0064086914,7.265625,33.65625,10.484375
1664567242651,0.15820312,-0.47540283,-0.06109619,4.515625,-0.546875,13.5625
1664567242681,0.045654297,-0.6651001,0.0072631836,7.53125,-9.59375,10.265625
1664567242741,-0.005859375,-0.61260986,0.02142334,3.8125,-7.140625,5.328125
1664567242756,0.06225586,-0.7756958,-0.035949707,0.125,-5.515625,7.796875
1664567242801,0.14404297,-0.9536743,0.08343506,-0.375,-16.671875,0.6875
1664567242862,-0.032226562,-1.4292603,0.2111206,2.546875,-22.796875,3.140625
1664567242876,-0.09277344,-1.5635376,0.3060913,-14.25,7.875,-1.59375
1664567242921,0.064208984,-1.6026001,0.10443115,-27.84375,-1.84375,-9.71875
1664567242983,0.42114258,-1.0132446,0.020690918,-0.3125,37.328125,-7.21875
1664567242996,0.66845703,-0.5076294,-0.28448486,9.171875,24.515625,17.28125
1664567243041,0.4104004,-1.2527466,0.0692749,-12.796875,-36.0,-33.609375
1664567243071,-0.041259766,-1.5020142,-0.097229004,32.1875,-8.71875,-1.0625
1664567243116,0.4716797,-0.57110596,0.04437256,11.0625,7.875,-2.28125
1664567243162,-0.119628906,-0.56451416,0.018981934,3.578125,10.09375,-4.453125
1664567243190,-0.068359375,-0.61138916,0.046081543,12.21875,6.015625,-2.734375
1664567243237,0.3178711,-0.65216064,0.109069824,5.140625,0.34375,3.4375
1664567243282,0.14941406,-0.76031494,0.17279053,-0.875,6.390625,0.046875
1664567243312,-0.064697266,-0.8118286,0.29241943,4.046875,-3.375,0.34375
1664567243356,-0.1003418,-0.98809814,0.16595459,-9.59375,-14.046875,-9.453125
1664567243401,0.23535156,-1.1997681,0.21209717,-4.953125,-7.59375,-3.140625
1664567243431,0.44335938,-1.6651001,0.5031128,-1.21875,-19.03125,-5.171875
1664567243476,-0.63793945,-1.6463013,0.26800537,-16.9375,0.875,-26.203125
1664567243522,0.22827148,-1.0794067,-0.15045166,0.453125,18.453125,11.34375
1664567243552,0.623291,-0.5117798,-0.26739502,-3.578125,17.328125,11.5
1664567243596,0.38061523,-1.4744263,-0.2288208,-0.625,6.0625,3.171875
1664567243642,0.10424805,-1.3516235,0.25775146,13.5625,-8.203125,6.859375
1664567243672,0.07446289,-0.7251587,0.010681152,6.96875,22.609375,7.71875
1664567243717,0.20581055,-0.5371704,-0.07330322,11.140625,-0.671875,12.015625
1664567243763,0.19726562,-0.5510864,-0.0017700195,12.03125,-9.671875,14.0
1664567243792,-0.10473633,-0.65826416,-0.02545166,13.765625,-8.40625,6.703125
1664567243821,0.08935547,-0.6958618,-0.041809082,11.359375,-2.34375,9.0625
1664567243881,0.09301758,-0.8364868,0.07244873,3.1875,-9.265625,2.875
1664567243912,0.03930664,-1.1299438,0.10638428,7.90625,-6.859375,-2.859375
1664567243941,0.05493164,-1.4558716,0.074401855,-4.703125,-8.796875,4.671875
1664567244001,0.06542969,-1.5593872,0.17791748,-12.5,2.328125,-8.03125
1664567244031,0.30859375,-1.5559692,0.21942139,-24.25,0.0625,-7.125
1664567244062,0.4350586,-0.4619751,-0.43756104,4.875,22.625,16.640625
1664567244121,0.6308594,-0.7085571,-0.054016113,-0.421875,-15.9375,-6.4375
1664567244136,0.19750977,-1.633606,0.15179443,-8.828125,-31.828125,-29.15625
1664567244185,0.20922852,-0.92144775,-0.15460205,26.796875,4.546875,6.796875
1664567244242,0.23803711,-0.7246704,0.040222168,7.328125,1.421875,-2.078125
1664567244256,-0.095703125,-0.65289307,0.047790527,9.890625,2.78125,-3.625
1664567244302,0.14575195,-0.5935669,0.08905029,4.921875,-5.203125,1.5
1664567244361,0.17602539,-0.62286377,0.11053467,-1.625,-3.34375,-2.578125
1664567244376,0.053222656,-0.7263794,0.1630249,1.890625,-3.03125,-1.765625
1664567244421,0.020507812,-0.8792114,0.23504639,-3.109375,-6.8125,-9.65625
1664567244497,0.11816406,-1.041565,0.097839355,-7.953125,-10.0,-10.046875
1664567244500,0.23925781,-1.5220337,0.3624878,-11.921875,-7.203125,-6.34375
1664567244543,0.024169922,-1.6287231,0.34466553,-2.40625,-4.21875,-12.5625
1664567244572,-0.28125,-1.5513306,0.06878662,-10.59375,-6.109375,-14.28125
1664567244618,0.4753418,-0.663147,-0.23736572,-7.875,30.515625,16.578125
1664567244661,0.3544922,-0.91778564,-0.35064697,-12.8125,22.609375,-0.28125
1664567244692,0.28027344,-1.5059204,0.038757324,15.75,-4.8125,11.734375
1664567244737,0.12109375,-0.8838501,0.13665771,10.59375,12.078125,2.6875
1664567244781,0.0048828125,-0.60113525,-0.031799316,1.09375,16.09375,9.765625
1664567244811,0.29956055,-0.536438,-0.022766113,5.78125,-13.0,13.28125
1664567244857,9.765625E-4,-0.66973877,0.03338623,5.71875,0.765625,8.109375
1664567244902,-0.091552734,-0.6231079,0.028747559,6.8125,7.6875,10.375
1664567244931,0.060058594,-0.85162354,0.046813965,-1.015625,-2.4375,5.671875
1664567244977,0.19091797,-0.90167236,0.070495605,1.578125,-9.40625,4.0
1664567245021,0.06274414,-1.3093872,0.11541748,-4.359375,-13.59375,1.328125
1664567245051,0.009033203,-1.5515747,0.262146,-13.71875,-6.984375,-0.640625
1664567245097,0.025634766,-1.7581177,0.29022217,-37.0,-1.53125,-17.21875
1664567245143,0.36767578,-1.1826782,-0.26983643,-32.390625,9.484375,-7.125
1664567245172,0.77978516,-0.53790283,-0.12359619,19.59375,27.9375,17.515625
1664567245262,0.41479492,-1.1707153,0.08880615,-0.21875,-25.796875,-30.546875
1664567245265,-0.09057617,-1.2783813,-0.043029785,35.578125,-5.265625,-4.6875
1664567245291,0.43701172,-0.72320557,-6.1035156E-5,27.890625,6.9375,4.109375
1664567245323,0.0053710938,-0.75177,0.043395996,18.109375,8.0625,-0.703125
1664567245382,-0.115722656,-0.6355591,0.101989746,20.453125,7.03125,-2.5
1664567245414,0.1418457,-0.45440674,0.06976318,7.703125,-1.390625,7.53125
1664567245441,0.076416016,-0.645813,0.057800293,0.734375,3.078125,-0.734375
1664567245501,0.099853516,-0.9143677,0.16693115,0.578125,-0.125,-2.859375
1664567245531,0.06738281,-1.0564575,0.109558105,-2.890625,-10.640625,-6.359375
1664567245562,0.12670898,-1.3013306,0.121032715,-14.875,-1.515625,-0.953125
1664567245621,0.27783203,-1.7490845,0.6022339,4.625,-8.21875,-14.59375
1664567245637,-0.63500977,-1.6931763,-0.18609619,0.046875,-8.109375,-26.140625
1664567245682,0.65234375,-0.77716064,-0.25787354,-8.265625,46.90625,12.96875
1664567245741,0.4260254,-0.8076782,-0.40826416,-15.21875,18.375,7.578125
1664567245755,0.44702148,-1.5491333,0.031433105,9.453125,-18.046875,5.6875
1664567245803,0.18139648,-1.1443481,0.12640381,9.921875,-7.53125,6.84375
1664567245865,-0.07861328,-0.56622314,-0.11114502,0.46875,16.21875,8.859375
1664567245875,0.33422852,-0.30010986,-0.06109619,-3.703125,-9.234375,13.015625
1664567245922,-0.001953125,-0.7305298,-0.07623291,9.453125,-9.578125,4.84375
1664567245982,-0.044677734,-0.5598755,-0.10723877,12.3125,2.875,3.171875
1664567245996,0.047607422,-0.7041626,0.055358887,3.34375,18.078125,-4.515625
1664567246040,0.064453125,-1.0322876,0.06365967,5.828125,0.578125,-3.359375
1664567246072,0.09106445,-1.4404907,0.081970215,-2.84375,-19.34375,0.171875
1664567246117,0.19262695,-1.4893188,0.048034668,8.9375,4.625,8.9375
1664567246162,-0.056396484,-1.545227,0.260437,-14.734375,-5.734375,-6.9375
1664567246195,0.3215332,-1.0413208,0.036071777,-21.9375,8.640625,0.421875
1664567246236,0.8195801,-0.44854736,-0.7503052,15.921875,-8.984375,18.078125
1664567246281,0.5698242,-1.3704224,0.17303467,7.890625,-43.796875,-33.46875
1664567246311,-0.30151367,-1.2988892,-0.22271729,26.484375,-19.234375,0.546875
1664567246356,0.4296875,-0.8098755,-0.12823486,19.6875,-5.4375,2.375
1664567246401,-0.022460938,-0.7630005,0.07537842,4.0625,13.234375,2.9375
1664567246432,-0.25097656,-0.49591064,-0.044006348,-1.59375,-3.125,-4.6875
1664567246476,0.20361328,-0.50177,-0.019104004,-7.203125,-6.453125,0.03125
1664567246521,0.25610352,-0.64923096,0.061950684,-4.0625,9.078125,-2.953125
1664567246555,0.12060547,-0.86309814,0.20892334,-2.375,2.84375,-1.6875
1664567246596,-0.1484375,-1.0222778,0.19378662,-6.21875,-4.21875,-7.4375
1664567246642,-0.0048828125,-1.336731,0.07098389,-11.1875,-4.109375,-13.390625
1664567246671,0.45141602,-1.593811,0.418396,-1.40625,-10.71875,-2.9375
1664567246702,-0.4716797,-1.6997681,0.1251831,-36.1875,-1.75,-21.8125
1664567246762,0.1159668,-1.1355591,-0.2156372,-2.640625,34.625,11.9375
1664567246791,0.5510254,-0.51934814,-0.4019165,-13.453125,38.578125,6.96875
1664567246822,0.1940918,-1.472229,-0.0647583,6.296875,1.875,4.109375
1664567246881,0.21484375,-1.2376099,0.11566162,32.921875,4.921875,7.734375
1664567246912,0.10644531,-0.6304321,0.02947998,9.03125,24.265625,12.171875
1664567246942,0.099609375,-0.46051025,-0.105285645,-0.140625,5.421875,15.828125
1664567247001,0.2084961,-0.5327759,-0.08477783,1.734375,-11.28125,9.796875
1664567247031,-0.033935547,-0.72369385,-0.03277588,11.21875,-5.75,3.625
1664567247062,-0.072021484,-0.77008057,-0.0017700195,2.546875,0.421875,6.953125
1664567247121,-2.4414062E-4,-0.9336548,-0.022766113,-7.9375,-9.78125,2.40625
1664567247137,0.13500977,-1.2630005,0.10076904,-3.78125,-13.171875,1.3125
1664567247181,0.11303711,-1.5281372,0.2531128,-0.65625,4.828125,5.953125
1664567247241,-0.12866211,-1.6848755,0.18060303,-35.21875,3.796875,-14.015625
1664567247256,0.42333984,-1.1751099,-0.18951416,-31.046875,11.484375,1.453125
1664567247305,1.0629883,-0.48492432,-0.29718018,14.125,16.90625,34.828125
1664567247361,0.5048828,-1.2276001,0.016784668,-6.5,-63.421875,-43.828125
1664567247376,-0.38720703,-1.5442505,0.029968262,43.171875,5.328125,2.640625
1664567247422,0.45922852,-0.65582275,-0.07476807,29.53125,-0.328125,0.171875
1664567247452,0.16186523,-0.63726807,0.07220459,6.703125,5.078125,-8.09375
1664567247497,-0.16674805,-0.65338135,0.055114746,11.015625,-0.75,-3.4375
1664567247543,0.15185547,-0.4710083,0.09051514,5.53125,-0.96875,5.5
1664567247571,0.064941406,-0.59625244,0.10467529,-4.984375,6.203125,-1.390625
1664567247616,-0.04296875,-0.84454346,0.1449585,3.390625,8.0625,-5.046875
1664567247665,-0.034423828,-1.0752563,0.15667725,-8.078125,-0.6875,-12.484375
1664567247691,0.3166504,-1.4597778,0.20306396,-21.546875,-2.53125,-3.546875
1664567247737,0.30664062,-1.6712036,0.4701538,19.078125,-9.40625,-8.8125
1664567247781,-0.62597656,-1.7151489,-0.028869629,-15.203125,7.140625,-21.078125
1664567247811,0.5991211,-0.79815674,-0.2131958,-7.359375,45.078125,15.140625
1664567247857,0.3544922,-0.7852173,-0.48321533,-11.5,25.609375,0.171875
1664567247904,0.21972656,-1.5349731,0.051696777,23.8125,-2.484375,11.0625
1664567247932,0.21508789,-0.96588135,0.12347412,28.859375,13.375,7.84375
1664567247976,-0.052490234,-0.5654907,-0.031311035,5.984375,17.265625,16.03125
1664567248020,0.28344727,-0.35943604,-0.14483643,7.15625,-4.6875,11.734375
1664567248052,0.06274414,-0.7107544,-0.06451416,13.9375,-6.921875,6.0
1664567248098,-0.1315918,-0.7163696,-0.07476807,12.171875,-0.234375,2.171875
1664567248141,0.11621094,-0.7901001,-0.093566895,-4.6875,-2.703125,2.9375
1664567248171,0.19897461,-1.114563,0.04046631,-1.734375,-14.671875,-3.1875
1664567248201,0.056396484,-1.4714966,0.04095459,17.265625,-6.84375,3.4375
1664567248262,-0.20825195,-1.4639282,0.059509277,-14.703125,12.15625,0.171875
1664567248292,0.40942383,-1.5745239,-0.18927002,-38.890625,-20.71875,-8.125
1664567248321,0.6945801,-0.616272,-0.38482666,-17.53125,15.96875,16.359375
1664567248383,0.66625977,-0.77349854,-0.17462158,4.25,-17.296875,-5.796875
1664567248412,0.19189453,-1.5220337,-0.004211426,4.578125,-48.125,-30.125
1664567248441,0.021972656,-1.0647583,-0.16729736,33.65625,5.125,0.109375
1664567248502,0.29907227,-0.6880493,-0.020568848,10.015625,1.40625,-5.125
1664567248516,-0.013427734,-0.56622314,-0.012512207,5.984375,3.53125,-0.71875
1664567248562,0.024169922,-0.47052002,0.044128418,4.640625,-5.875,3.40625
1664567248622,0.1352539,-0.6026001,0.04144287,-5.78125,-8.6875,2.640625
1664567248636,0.111083984,-0.75006104,0.14031982,-0.3125,-2.859375,-2.609375
1664567248683,0.048828125,-0.9771118,0.14154053,-13.21875,-11.53125,-7.09375
1664567248742,0.071777344,-1.1633911,0.062194824,-14.453125,-11.90625,-11.75
1664567248756,0.33398438,-1.6904907,0.37371826,1.328125,-15.296875,-0.953125
1664567248802,-0.16235352,-1.6624146,0.26434326,-28.609375,-13.671875,-18.8125
1664567248863,-0.0036621094,-1.310852,-0.17388916,-16.546875,18.109375,-5.984375
1664567248877,0.41552734,-0.48931885,-0.38848877,-3.5,41.234375,17.5
1664567248922,0.2980957,-1.1099243,-0.24371338,4.234375,-3.6875,5.640625
1664567248951,0.34399414,-1.4707642,0.13153076,14.15625,-10.796875,7.953125
1664567248996,0.14794922,-0.77301025,-0.0335083,9.5,24.453125,14.75
1664567249042,0.032714844,-0.43634033,-0.034484863,1.421875,12.84375,15.75
1664567249071,0.20874023,-0.5796509,-0.09210205,0.203125,-12.421875,6.921875
1664567249116,-0.025878906,-0.71221924,0.020202637,9.203125,4.109375,0.46875
1664567249161,-0.032226562,-0.63116455,0.02142334,4.3125,10.0,8.09375
1664567249191,0.1899414,-0.8479614,0.038024902,-8.828125,-12.4375,4.734375
1664567249236,0.13720703,-1.2539673,0.086364746,6.09375,-13.046875,5.078125
1664567249281,-0.111328125,-1.5845337,0.2658081,-1.15625,2.34375,1.09375
1664567249311,0.11401367,-1.6470337,0.14031982,-41.140625,9.453125,-6.625
1664567249356,0.5529785,-1.0674438,-0.12677002,-20.359375,10.5,5.328125
1664567249401,0.91430664,-0.5425415,-0.34405518,7.9375,-1.890625,18.734375
1664567249431,0.5498047,-1.236145,0.0040893555,-3.390625,-62.875,-36.671875
1664567249476,-0.15893555,-1.4920044,-0.003479004,33.53125,-6.484375,-4.546875
1664567249522,0.35253906,-0.6602173,-0.04815674,33.21875,2.78125,-9.578125
1664567249551,0.07836914,-0.611145,0.07147217,-7.03125,0.203125,-6.578125
1664567249597,-0.099365234,-0.5371704,0.040222168,-10.140625,-5.046875,-1.59375
1664567249641,0.22460938,-0.45635986,0.11004639,-14.203125,-9.5,1.03125
1664567249671,0.057861328,-0.6765747,0.13739014,-7.78125,3.296875,-9.765625
1664567249702,0.0017089844,-0.87750244,0.29144287,-7.078125,5.0625,-7.0
1664567249761,-0.024902344,-0.9981079,0.29364014,-2.6875,4.265625,-13.375
1664567249791,0.14477539,-1.4216919,0.2843628,-10.390625,7.28125,-7.6875
1664567249824,0.4128418,-1.7600708,0.6635132,4.875,-11.796875,-8.171875
1664567249881,-0.6394043,-1.805481,0.074401855,-1.109375,0.046875,-21.96875
1664567249911,0.58496094,-0.76226807,-0.20831299,-9.46875,43.171875,21.421875
1664567249942,0.3684082,-0.78253174,-0.35479736,-9.0625,19.890625,-2.5625
1664567250001,0.2446289,-1.5171509,0.15692139,19.671875,-3.1875,6.40625
1664567250016,0.046142578,-0.90997314,0.061462402,27.5,12.390625,13.703125
1664567250063,0.052001953,-0.47906494,-0.07354736,12.34375,9.796875,16.390625
1664567250121,0.31201172,-0.5252075,-0.128479,8.4375,-8.109375,14.796875
1664567250138,-0.0949707,-0.7293091,0.005065918,10.21875,-5.609375,9.125
1664567250183,-0.06347656,-0.7288208,-0.04425049,-1.421875,-2.234375,10.359375
1664567250241,0.12792969,-0.71343994,0.010192871,-2.921875,-4.65625,6.03125
1664567250256,0.0625,-1.1106567,0.11907959,-5.375,-14.71875,-3.75
1664567250302,0.033935547,-1.3606567,0.14056396,2.546875,-3.203125,0.953125
1664567250331,0.016113281,-1.4473267,0.23699951,-21.515625,12.765625,-6.171875
1664567250377,0.3100586,-1.6553345,0.25775146,-27.953125,3.703125,-9.46875
1664567250423,0.484375,-0.7144165,-0.41046143,2.125,11.328125,14.65625
1664567250451,1.0048828,-0.60357666,-0.016174316,9.796875,-22.703125,5.453125
1664567250496,0.13720703,-1.8225708,0.0692749,-11.125,-48.171875,-37.34375
1664567250541,-0.19189453,-1.0276489,-0.0713501,43.125,-4.203125,9.71875
1664567250572,0.35058594,-0.522522,-0.022277832,6.921875,6.4375,-4.34375
1664567250620,-0.07421875,-0.6199341,0.012878418,6.609375,10.65625,-0.28125
1664567250662,0.08325195,-0.49371338,0.14471436,7.015625,1.65625,4.46875
1664567250691,0.24584961,-0.5120239,0.116882324,0.078125,-6.140625,4.265625
1664567250736,0.11645508,-0.73883057,0.1293335,0.53125,-9.90625,-2.640625
1664567250781,-0.029541016,-1.0183716,0.26068115,1.171875,-9.21875,-12.34375
1664567250812,0.09643555,-1.2070923,0.16668701,-2.15625,-5.53125,-2.046875
1664567250856,0.18823242,-1.7310181,0.5153198,4.5625,-19.484375,-6.609375
1664567250901,-0.46166992,-1.8904419,0.04901123,-3.59375,-13.21875,-18.109375
1664567250932,0.33666992,-1.1362915,-0.057678223,-13.046875,37.625,-5.15625
1664567250976,0.38989258,-0.61602783,-0.2564087,-16.484375,41.6875,7.359375
1664567251022,0.5,-1.154602,-0.17803955,6.140625,4.40625,10.71875
1664567251051,0.41552734,-1.2991333,0.13543701,9.46875,6.375,7.578125
1664567251082,0.0146484375,-0.6553345,0.012878418,8.796875,33.625,14.0
1664567251142,0.0,-0.42803955,-0.06549072,-0.15625,19.140625,8.390625
1664567251171,0.1352539,-0.56866455,-0.012268066,5.0,5.0625,9.921875
1664567251201,-0.03857422,-0.7022095,-0.0134887695,1.609375,-4.328125,4.546875
1664567251262,0.025390625,-0.72540283,0.018005371,-3.9375,7.59375,9.53125
1664567251291,0.18896484,-0.9067993,0.08709717,-4.484375,-4.546875,-0.34375
1664567251322,0.18896484,-1.3032837,0.29510498,-2.625,-14.28125,1.890625
1664567251381,-0.083984375,-1.6177368,0.31756592,-13.578125,-7.03125,-2.890625
1664567251411,0.009521484,-1.5100708,0.17596436,-17.859375,8.53125,-7.859375
1664567251442,0.6875,-0.8579712,0.10076904,-16.15625,7.484375,4.5
1664567251501,0.7651367,-0.37677002,-0.4434204,26.25,4.875,28.890625
1664567251516,0.41870117,-1.4710083,0.055358887,-1.515625,-67.03125,-38.171875
1664567251561,0.1652832,-1.4453735,-0.05596924,16.3125,-19.671875,1.328125
1664567251622,0.26220703,-0.8218384,-0.0134887695,32.546875,-3.8125,-14.3125
1664567251636,-0.12939453,-0.70977783,0.020446777,-3.53125,8.375,-14.1875
1664567251681,-0.09082031,-0.40826416,-0.0881958,1.078125,-1.453125,-5.90625
1664567251743,0.25048828,-0.42559814,0.13568115,-10.4375,16.046875,-1.703125
1664567251756,0.17285156,-0.6748657,0.19671631,-2.171875,8.046875,-10.484375
1664567251802,0.063964844,-0.76934814,0.33099365,-2.828125,-1.859375,-9.734375
1664567251831,-0.15234375,-1.0899048,0.06585693,-14.265625,-9.46875,-19.75
1664567251877,0.36010742,-1.6694946,0.43426514,-4.953125,-8.265625,5.390625
1664567251924,-0.2614746,-1.7583618,0.43988037,1.71875,-2.4375,-25.46875
1664567251951,-0.15039062,-1.4797974,0.1071167,-8.90625,15.28125,-3.046875
1664567252000,0.5593262,-0.48150635,-0.35333252,-13.078125,37.1875,16.15625
1664567252041,0.3005371,-1.1189575,-0.44903564,1.765625,12.421875,3.78125
1664567252071,0.36889648,-1.6062622,0.21429443,38.234375,-12.25,12.015625
1664567252117,0.111816406,-0.72320557,0.048034668,26.125,22.03125,19.15625
1664567252164,-0.0925293,-0.3562622,-0.09893799,-1.703125,22.15625,9.09375
1664567252192,0.27661133,-0.5203247,-0.05645752,11.4375,-9.234375,12.984375
1664567252236,-0.063964844,-0.70880127,0.00970459,11.078125,-12.0625,7.859375
1664567252282,-0.041015625,-0.6609497,-0.08013916,4.4375,-1.90625,7.984375
1664567252312,0.16235352,-0.87091064,-0.019104004,-1.015625,-10.28125,4.5625
1664567252356,0.080078125,-1.3252563,0.10809326,4.28125,-15.90625,2.359375
1664567252402,0.08154297,-1.5437622,0.17962646,-3.703125,-14.03125,4.03125
1664567252432,-0.061035156,-1.5789185,0.27313232,-27.890625,6.140625,-6.015625
1664567252476,0.44311523,-1.2883911,0.0038452148,-47.4375,-7.390625,4.125
1664567252525,0.6123047,-0.3184204,-0.4968872,10.453125,10.28125,18.8125
1664567252551,0.66064453,-1.1294556,0.06390381,-13.65625,-61.40625,-26.265625
1664567252583,0.0068359375,-1.628479,0.070495605,12.40625,-30.90625,-19.28125
1664567252642,0.23608398,-0.86065674,-0.09210205,38.8125,-3.0625,-5.078125
1664567252671,0.08935547,-0.64019775,0.07733154,4.265625,2.078125,-8.71875
1664567252701,-0.15966797,-0.47711182,0.06756592,0.125,-3.203125,-3.1875
1664567252764,0.26757812,-0.5120239,0.062927246,-3.828125,-8.15625,-5.0
1664567252791,0.14135742,-0.59820557,0.22039795,-11.109375,3.796875,-6.40625
1664567252822,-0.07080078,-0.80841064,0.23773193,-11.8125,-15.109375,-2.09375
1664567252881,-0.12646484,-0.98028564,0.27020264,-11.578125,-2.59375,-12.234375
1664567252897,0.103515625,-1.348938,0.293396,-14.15625,5.0,1.390625
1664567252944,0.25390625,-1.7232056,0.7653198,-3.90625,-19.34375,-3.578125
1664567253002,-0.5793457,-1.7041626,0.07318115,-2.921875,-6.203125,-20.15625
1664567253016,0.4284668,-0.95513916,-0.16363525,4.484375,44.046875,4.671875
1664567253061,0.6142578,-0.7666626,-0.33062744,-11.375,32.109375,13.640625
1664567253121,0.2446289,-1.4507446,0.06048584,36.359375,-2.65625,13.46875
1664567253136,0.044677734,-1.310852,0.28094482,-5.515625,11.6875,5.890625
1664567253182,-0.059814453,-0.5413208,-0.14215088,25.0625,30.578125,17.65625
1664567253242,0.35107422,-0.25006104,-0.005432129,27.65625,8.53125,15.34375
1664567253256,0.16015625,-0.72857666,-0.0064086914,6.0625,-13.109375,15.4375
1664567253302,-0.1899414,-0.7774048,-7.9345703E-4,19.90625,4.671875,8.28125
1664567253331,0.011962891,-0.6572876,-0.08306885,3.046875,3.578125,5.5
1664567253376,0.025390625,-1.0134888,0.09637451,-8.171875,-5.609375,-0.546875
1664567253421,0.17407227,-1.3960571,0.0836792,-17.765625,-22.734375,2.046875
1664567253451,0.13500977,-1.5349731,0.23065186,-2.671875,8.453125,2.09375
1664567253496,-0.0041503906,-1.6812134,0.09442139,-36.9375,-11.9375,-1.75
1664567253542,0.5373535,-0.5899048,-0.023254395,16.15625,26.328125,8.1875
1664567253572,0.91845703,-0.4932251,-0.3604126,-8.453125,-7.703125,9.34375
1664567253618,0.36669922,-1.770813,0.1942749,-15.71875,-64.859375,-51.109375
1664567253661,-0.22607422,-1.2688599,-0.20269775,51.546875,31.0625,1.15625
1664567253692,0.27368164,-0.6213989,-0.007385254,8.203125,37.9375,-14.171875
1664567253736,0.02368164,-0.5195923,0.07562256,-1.125,16.921875,0.9375
1664567253782,-0.05053711,-0.46832275,0.03753662,-2.75,-1.4375,2.90625
1664567253811,0.2626953,-0.62628174,0.06536865,-3.421875,-3.265625,-0.640625
1664567253857,0.23901367,-0.6904907,0.24432373,5.46875,2.390625,1.65625
1664567253901,-0.1027832,-0.95684814,0.19329834,-8.671875,-11.671875,-8.296875
1664567253931,-0.20727539,-1.1226196,0.11077881,-11.453125,1.09375,-14.203125
1664567253976,0.48535156,-1.4212036,0.4257202,-16.1875,-15.4375,4.0
1664567254021,-0.1953125,-1.74469,0.30413818,-12.875,-2.5625,-27.421875
1664567254051,-0.5361328,-1.4653931,-0.08673096,-4.125,37.09375,-11.28125
1664567254083,0.67456055,-0.46099854,-0.2444458,-21.71875,49.359375,13.5625
1664567254143,0.47045898,-1.2700806,-0.2498169,-15.96875,23.640625,3.671875
1664567254171,0.22436523,-1.5796509,0.20526123,36.59375,-1.03125,5.015625
1664567254201,0.11401367,-0.7058716,0.109069824,26.75,29.515625,8.53125
1664567254263,0.08081055,-0.43707275,-0.020080566,3.71875,13.984375,13.90625
1664567254291,0.12036133,-0.5010376,-0.101379395,3.265625,-11.546875,13.234375
1664567254322,-0.1184082,-0.67144775,0.0067749023,6.375,3.734375,1.578125
1664567254381,-0.005859375,-0.6958618,-0.002746582,-2.703125,11.53125,8.203125
1664567254396,0.21459961,-0.88067627,0.0036010742,-6.953125,-1.734375,6.859375
1664567254442,0.1237793,-1.2449341,0.1317749,6.578125,-10.6875,7.328125
1664567254501,-0.052734375,-1.5862427,0.19696045,-7.1875,-5.046875,2.71875
1664567254517,-0.049316406,-1.5305786,0.29364014,-24.96875,11.25,-1.046875
1664567254562,0.47558594,-1.1751099,0.051940918,-32.828125,5.953125,-2.609375
1664567254621,0.7089844,-0.46514893,-0.36553955,10.515625,18.203125,16.640625
1664567254637,0.579834,-1.0906372,-0.008117676,-13.921875,-56.3125,-38.875
1664567254682,-0.2619629,-1.7571411,0.05340576,31.671875,-4.71875,-23.78125
1664567254711,0.32226562,-0.7251587,-0.07501221,30.859375,18.25,1.96875
1664567254757,0.20239258,-0.40216064,0.066101074,0.03125,13.21875,-14.328125
1664567254802,-0.12817383,-0.6243286,0.066101074,2.296875,1.671875,-0.28125
1664567254831,0.23852539,-0.565979,0.12567139,3.375,-9.421875,1.75
1664567254876,0.12719727,-0.57476807,0.117370605,-11.84375,-13.171875,-2.859375
1664567254922,-0.07373047,-0.861145,0.22161865,-6.3125,-6.8125,-6.359375
1664567254952,-0.16455078,-1.1170044,0.35150146,-2.640625,-0.484375,-15.390625
1664567254996,0.1171875,-1.3167114,0.23358154,-15.65625,-5.3125,-2.484375
1664567255042,0.3190918,-1.6362915,0.4376831,8.203125,-16.71875,-3.78125
1664567255072,-0.7019043,-1.7617798,0.1876831,-18.265625,12.234375,-21.546875
1664567255117,0.32543945,-0.84625244,-0.21099854,2.578125,30.828125,16.28125
1664567255162,0.64990234,-0.6709595,-0.3418579,-13.765625,12.953125,15.984375
1664567255194,0.4255371,-1.6936646,0.08001709,1.984375,18.0625,-4.9375
1664567255236,-0.006591797,-1.010315,0.24920654,46.515625,5.015625,11.359375
1664567255282,0.12866211,-0.36798096,0.0060424805,18.671875,4.890625,13.71875
1664567255312,0.20532227,-0.4685669,-0.051574707,7.0,-6.90625,16.203125
1664567255357,-0.09301758,-0.725647,-0.023498535,19.359375,-1.5,7.53125
1664567255403,-0.0637207,-0.61383057,-0.047668457,9.578125,7.3125,8.8125
1664567255431,0.16040039,-0.7996216,-0.036193848,-8.625,-3.09375,3.0
1664567255462,0.17163086,-1.1104126,0.08392334,-8.84375,-9.390625,-1.46875
1664567255522,-0.01171875,-1.3059692,0.05633545,12.359375,-14.1875,4.125
1664567255551,-0.1484375,-1.5645142,0.2333374,-2.40625,8.3125,-0.734375
1664567255582,0.21679688,-1.7981567,0.04876709,-36.1875,-19.125,-7.390625
1664567255642,0.70166016,-0.503479,-0.5039673,-4.78125,10.59375,29.03125
1664567255672,0.90771484,-0.6939087,-0.07574463,12.015625,-26.625,-9.171875
1664567255704,-0.18457031,-1.8877563,0.13739014,-9.765625,-39.421875,-42.546875
1664567255762,-0.01953125,-1.0730591,-0.2144165,50.34375,19.34375,3.15625
1664567255791,0.43164062,-0.4241333,0.008728027,3.984375,16.4375,-6.921875
1664567255821,-0.06958008,-0.6333618,0.066345215,-6.921875,3.390625,-4.203125
1664567255882,0.10449219,-0.55059814,0.04071045,-5.296875,-5.40625,0.421875
1664567255896,0.18774414,-0.5315552,0.13006592,-4.34375,-4.234375,0.484375
1664567255943,0.036132812,-0.73809814,0.16229248,-2.84375,-8.78125,-1.671875
1664567256002,-0.17651367,-1.0269165,0.24871826,-13.109375,-0.53125,-11.375
1664567256017,0.08276367,-1.1594849,0.12908936,-22.796875,-6.359375,-12.4375
1664567256062,0.35424805,-1.6052856,0.5126343,-16.09375,-13.09375,-3.140625
1664567256122,-0.43286133,-1.6033325,0.26190186,-19.59375,7.25,-27.796875
1664567256136,-0.064941406,-1.2722778,-0.03717041,1.546875,21.53125,-2.671875
1664567256182,0.5749512,-0.54522705,-0.2876587,-27.703125,38.3125,9.578125
1664567256211,0.47387695,-1.3279419,-0.13970947,1.703125,16.296875,4.84375
1664567256257,0.080322266,-1.3901978,0.28729248,17.15625,-0.78125,1.046875
1664567256303,0.13256836,-0.6773071,0.1005249,17.53125,24.03125,9.171875
1664567256332,0.051757812,-0.41485596,-0.062316895,9.40625,13.921875,13.96875
1664567256376,0.19702148,-0.505188,-0.015686035,9.234375,-5.09375,12.0
1664567256421,0.034423828,-0.7288208,0.0079956055,12.390625,-15.296875,7.421875
1664567256451,-0.099609375,-0.76568604,0.039733887,4.078125,-1.203125,5.609375
1664567256496,-0.033935547,-0.95562744,0.07952881,-2.421875,-7.265625,6.203125
1664567256542,0.051513672,-1.3218384,0.21697998,-4.390625,-11.3125,0.140625
1664567256572,0.057373047,-1.5098267,0.23797607,-11.640625,0.90625,3.53125
1664567256617,-0.03930664,-1.5244751,0.24969482,-24.78125,5.875,-9.921875
1664567256661,0.3798828,-1.1419067,0.03314209,-23.34375,9.03125,-5.921875
1664567256691,0.8535156,-0.47369385,-0.21002197,21.0,22.59375,28.546875
1664567256737,0.74438477,-1.1973267,0.042175293,-18.640625,-67.46875,-34.75
1664567256781,-0.5427246,-1.6338501,0.17840576,11.421875,0.875,-17.0
1664567256812,0.40283203,-0.63409424,-0.057434082,34.6875,3.4375,9.296875
1664567256901,0.07324219,-0.44952393,0.11077881,8.03125,21.0625,-12.6875
1664567256904,-0.08569336,-0.59576416,0.06439209,10.390625,5.984375,2.984375
1664567256931,0.29833984,-0.6411743,0.20111084,5.3125,-4.234375,0.40625
1664567256961,0.15649414,-0.69537354,0.2333374,-2.5625,-11.4375,-2.34375
1664567257023,-0.045410156,-0.8184204,0.28070068,-6.125,-11.078125,-6.3125
1664567257051,-0.115234375,-0.9932251,0.27044678,-15.90625,-15.109375,-19.0625
1664567257082,0.13378906,-1.359436,0.30169678,-19.265625,-14.0,-10.359375
1664567257141,0.23657227,-1.6729126,0.6034546,7.328125,-6.796875,-5.90625
1664567257172,-0.5974121,-1.7283325,0.10858154,-4.609375,3.296875,-20.375
1664567257202,0.4777832,-0.72662354,-0.13287354,-5.875,37.84375,8.390625
1664567257261,0.25024414,-0.739563,-0.22467041,-7.40625,30.25,3.546875
1664567257276,0.21069336,-1.7244263,-0.035217285,4.28125,4.171875,-2.859375
1664567257322,0.3581543,-1.0779419,0.307312,34.9375,3.546875,14.984375
1664567257382,-0.08154297,-0.5840454,0.11126709,21.0625,24.078125,7.15625
1664567257397,0.09472656,-0.5108032,-0.061828613,15.109375,-11.5625,15.28125
1664567257445,0.16870117,-0.6050415,-0.026916504,21.234375,-15.859375,7.984375
1664567257502,-0.1640625,-0.7012329,-0.025939941,19.296875,6.5,6.0
1664567257517,-0.033203125,-0.77423096,-0.035705566,4.21875,-3.640625,7.0625
1664567257562,0.11669922,-0.9768677,0.070251465,-4.09375,-12.765625,4.671875
1664567257622,0.01928711,-1.3406372,0.098083496,-8.21875,-23.671875,0.09375
1664567257636,-0.11010742,-1.4700317,0.1630249,-8.796875,0.703125,-0.0625
1664567257684,0.06640625,-1.7029419,0.13616943,-36.625,1.75,-8.859375
1664567257711,0.45043945,-0.9649048,0.019226074,-9.03125,17.125,14.453125
1664567257756,0.717041,-0.44976807,-0.31695557,20.75,-18.390625,23.453125
1664567257802,0.45532227,-1.3027954,0.10394287,-6.09375,-53.734375,-36.609375
1664567257832,-0.1586914,-1.4627075,-0.044006348,27.625,-18.546875,0.4375
1664567257877,0.3076172,-0.74468994,0.01361084,20.640625,2.1875,2.78125
1664567257922,0.005859375,-0.6487427,0.07171631,1.96875,3.9375,-5.90625
1664567257951,-0.07080078,-0.6133423,0.038513184,1.390625,-0.109375,0.859375
1664567257997,0.19946289,-0.6272583,0.11956787,3.171875,-0.0625,-0.28125
1664567258041,0.14697266,-0.6819458,0.18011475,0.9375,-3.1875,1.90625
1664567258072,-0.03930664,-0.8323364,0.23284912,-4.421875,-6.5,-1.546875
1664567258117,-0.15185547,-1.0112915,0.22698975,-6.484375,-7.71875,-11.28125
1664567258163,0.14819336,-1.2842407,0.16546631,-2.34375,-7.421875,-5.734375
1664567258191,0.35717773,-1.6245728,0.46453857,-4.578125,-5.5625,-3.09375
1664567258237,-0.5695801,-1.6746216,0.08343506,-27.5625,-5.171875,-24.171875
1664567258282,0.36547852,-1.0940552,-0.15679932,-9.015625,39.640625,8.578125
1664567258311,0.47460938,-0.55010986,-0.3513794,-14.34375,23.765625,12.328125
1664567258342,0.27539062,-1.4700317,-0.003479004,8.359375,-6.421875,10.265625
1664567258402,0.29345703,-1.270813,0.16619873,-1.6875,4.671875,3.171875
1664567258431,-0.03491211,-0.56988525,0.04852295,23.484375,29.0,7.265625
1664567258462,0.16992188,-0.34381104,-0.027893066,7.4375,-2.234375,12.484375
1664567258522,0.15820312,-0.628479,0.017028809,2.34375,-10.5625,10.734375
1664567258553,-0.11328125,-0.78619385,0.023132324,10.59375,-8.578125,5.953125
1664567258582,-0.083740234,-0.72857666,0.06781006,5.515625,-1.046875,8.546875
1664567258626,0.05102539,-0.97613525,0.07757568,-5.53125,-6.375,4.484375
1664567258671,0.061767578,-1.3286743,0.19281006,-8.4375,-12.53125,7.84375
1664567258701,0.022216797,-1.5515747,0.22796631,-13.171875,3.765625,3.640625
1664567258761,0.09106445,-1.6860962,0.11419678,-30.734375,11.015625,-10.0
1664567258776,0.4934082,-1.0403442,-0.097717285,-1.703125,16.703125,6.34375
1664567258822,0.76904297,-0.48883057,-0.19952393,21.90625,18.203125,16.1875
1664567258881,0.4597168,-1.2815552,0.0053100586,-5.734375,-41.546875,-29.8125
1664567258897,0.11816406,-1.3809204,0.10101318,26.34375,-9.265625,0.25
1664567258942,0.18579102,-0.6375122,-0.058166504,30.65625,6.734375,-4.265625
1664567259002,0.036865234,-0.53082275,0.016296387,21.984375,13.640625,-5.953125
1664567259016,0.072509766,-0.6428833,0.043151855,10.859375,6.796875,1.46875
1664567259061,0.13330078,-0.59625244,0.10809326,-3.8125,1.25,2.859375
1664567259092,0.022949219,-0.70269775,0.12567139,-5.796875,1.5625,1.859375
1664567259137,-0.0053710938,-0.96539307,0.21502686,-5.671875,3.0,-8.734375
1664567259181,0.063964844,-1.0991821,0.109069824,-6.75,-0.5,-13.484375
1664567259212,0.5720215,-1.4246216,0.36029053,-13.75,-11.8125,-1.34375
1664567259256,7.324219E-4,-1.7485962,0.3307495,13.328125,-8.375,-23.671875
1664567259302,-0.30200195,-1.3482056,-0.13360596,3.796875,28.484375,-5.671875
1664567259332,0.5344238,-0.5198364,-0.24810791,-2.53125,30.75,13.796875
1664567259377,0.31860352,-1.180481,-0.35113525,-1.328125,0.9375,13.203125
1664567259451,0.29516602,-1.427063,0.11175537,22.21875,-12.09375,5.53125
1664567259454,0.23022461,-0.7317505,0.018249512,29.4375,17.375,7.09375
1664567259497,-0.0068359375,-0.57037354,-0.055236816,-0.359375,4.703125,7.78125
1664567259542,0.21875,-0.48590088,-0.062805176,7.59375,-19.984375,7.65625
1664567259572,-0.001953125,-0.66290283,-0.09454346,10.40625,-9.046875,1.65625
1664567259616,-0.0068359375,-0.6799927,-0.046691895,5.75,2.703125,5.796875
1664567259662,0.09106445,-0.8701782,4.272461E-4,-3.4375,-13.109375,-1.78125
1664567259691,0.14331055,-1.2805786,0.027770996,3.890625,-22.453125,3.15625
1664567259737,-0.07739258,-1.6016235,0.11077881,-9.140625,-15.6875,0.65625
1664567259781,-0.042236328,-1.579895,0.018493652,-32.6875,-0.984375,-6.671875
1664567259812,0.57177734,-0.90216064,-0.11846924,-26.578125,18.578125,5.0625
1664567259841,1.0317383,-0.5474243,-0.3242798,6.671875,-3.546875,23.65625
1664567259903,0.18139648,-1.5745239,0.11224365,-15.515625,-61.0,-47.484375
1664567259931,-0.27563477,-1.2307739,-0.101135254,35.71875,9.21875,-1.640625
1664567259977,0.5366211,-0.5786743,-0.082336426,20.421875,9.0625,-6.890625
1664567260021,0.04638672,-0.64727783,0.05731201,-6.4375,7.4375,-3.984375
1664567260052,-0.024414062,-0.62042236,0.010192871,-4.5,0.484375,-2.359375
1664567260081,0.24389648,-0.5623169,0.086120605,-1.59375,-6.3125,4.625
1664567260141,0.0637207,-0.68634033,0.13543701,-3.40625,6.40625,-0.875
1664567260172,-0.10253906,-0.8723755,0.1906128,-4.875,1.546875,-5.515625
1664567260202,-0.02758789,-1.0986938,0.116882324,-20.8125,-10.859375,-8.0625
1664567260261,0.33642578,-1.4920044,0.40447998,-27.796875,-10.15625,-8.46875
1664567260277,-0.040039062,-1.6084595,0.45819092,-6.859375,6.6875,-13.53125
1664567260322,-0.44018555,-1.6367798,-0.032287598,-19.390625,10.859375,-19.296875
1664567260381,0.65063477,-0.49835205,-0.3081665,-7.71875,49.625,17.65625
1664567260396,0.46289062,-1.013977,-0.25421143,-0.0625,15.25,4.953125
1664567260444,0.28076172,-1.6226196,0.24017334,27.0,-12.21875,17.984375
1664567260501,0.23950195,-0.82940674,0.02923584,21.609375,6.671875,6.421875
1664567260516,0.008056641,-0.48931885,0.00970459,19.359375,12.875,17.984375
1664567260562,0.18725586,-0.6038208,-0.05206299,7.75,-10.703125,19.390625
1664567260598,-0.118896484,-0.73883057,0.011657715,15.78125,5.671875,3.125
1664567260637,-0.011474609,-0.6409302,-0.07623291,6.703125,11.6875,9.28125
1664567260682,0.15283203,-0.8621216,0.06488037,-3.8125,-0.140625,5.546875
1664567260713,0.16577148,-1.0645142,0.031433105,13.25,-4.21875,7.9375
1664567260756,0.15356445,-1.4043579,0.11468506,10.40625,-4.890625,-0.625
1664567260803,-0.13452148,-1.4766235,0.1593628,-14.296875,8.203125,-10.40625
1664567260832,0.41601562,-1.4334106,0.15228271,-37.796875,4.03125,-8.734375
1664567260876,0.56274414,-0.46929932,-0.677063,7.4375,7.453125,23.5625
1664567260922,0.8112793,-1.2217407,-0.019836426,-11.109375,-45.125,-27.140625
1664567260951,0.06689453,-1.406311,-0.113342285,19.21875,-27.5625,-17.65625
1664567260996,0.11206055,-0.90753174,-0.2119751,28.90625,5.78125,-8.3125
1664567261044,0.25854492,-0.74102783,0.03704834,16.9375,9.484375,-9.09375
1664567261071,-0.083496094,-0.5706177,-0.022766113,9.046875,-1.0625,-7.359375
1664567261117,0.14648438,-0.51763916,0.013366699,-10.484375,0.78125,-0.125
1664567261163,0.16967773,-0.5327759,0.117614746,-4.71875,3.15625,-1.5625
1664567261192,0.030029297,-0.7061157,0.082214355,-5.34375,-4.328125,-4.703125
1664567261237,-0.05444336,-0.9907837,0.13348389,-11.0625,-10.0625,-10.90625
1664567261266,0.26123047,-1.3967896,0.13519287,-15.859375,-12.671875,-2.15625
1664567261313,0.012207031,-1.6350708,0.46453857,-5.046875,-1.4375,-12.09375
1664567261341,-0.532959,-1.6450806,0.10687256,-18.515625,0.40625,-21.953125
1664567261402,0.35083008,-1.085022,-0.059143066,-8.75,28.078125,-0.921875
1664567261432,0.45629883,-0.5198364,-0.51641846,-13.984375,9.765625,16.03125
1664567261461,0.55566406,-1.3921509,-0.12945557,4.0,1.453125,2.953125
1664567261522,0.10620117,-1.4092407,0.29974365,14.125,-5.28125,4.65625
1664567261552,-0.18579102,-0.6878052,-0.06060791,7.28125,38.703125,10.0625
1664567261581,0.30639648,-0.43145752,-0.113342285,11.921875,16.828125,13.65625
1664567261642,0.23388672,-0.6235962,0.086364746,9.4375,1.0,8.9375
1664567261656,-0.19360352,-0.7761841,0.00579834,-0.328125,-4.453125,3.578125
1664567261702,-0.005126953,-0.6878052,0.019958496,0.140625,5.40625,7.953125
1664567261763,0.17895508,-0.90411377,-5.493164E-4,-7.34375,-14.390625,5.390625
1664567261777,0.033691406,-1.2896118,0.09222412,1.671875,-11.640625,-1.71875
1664567261821,0.014404297,-1.5276489,0.2267456,-7.28125,2.1875,1.09375
1664567261882,-0.061279297,-1.4529419,0.15228271,-23.734375,3.421875,-9.625
1664567261897,0.41577148,-1.1831665,0.050720215,-9.359375,11.265625,-0.65625
1664567261942,0.751709,-0.4258423,-0.34088135,9.703125,5.265625,24.78125
1664567262002,0.97753906,-1.0432739,-5.493164E-4,-5.515625,-65.53125,-16.296875
1664567262016,-0.2709961,-1.7192993,0.20428467,7.703125,-41.859375,-11.28125
1664567262062,0.04272461,-0.81866455,-0.12994385,42.359375,-5.640625,0.625
1664567262094,0.26000977,-0.5261841,0.08123779,13.640625,12.078125,-13.546875
1664567262137,-0.052246094,-0.642395,0.043151855,1.078125,-2.453125,0.625
1664567262182,0.15185547,-0.553772,0.101501465,5.90625,2.40625,0.5
1664567262211,0.17919922,-0.6370239,0.14813232,0.234375,-0.546875,0.15625
1664567262257,0.044677734,-0.8184204,0.260437,-3.75,-3.84375,-5.015625
1664567262302,-0.07055664,-1.0215454,0.22821045,-8.140625,-18.28125,-13.859375
1664567262332,0.09790039,-1.3230591,0.2086792,-11.6875,-8.53125,-10.015625
1664567262376,0.14282227,-1.6340942,0.5639038,4.6875,-7.109375,-8.15625
1664567262422,-0.36523438,-1.6724243,0.13226318,-18.921875,-8.171875,-17.703125
1664567262451,0.39453125,-1.0154419,-0.08648682,10.796875,28.015625,4.515625
1664567262497,0.3317871,-0.6489868,-0.35455322,-2.03125,27.09375,12.328125
1664567262541,0.3425293,-1.5227661,-0.016662598,5.0625,-6.671875,4.8125
1664567262572,0.24169922,-1.1343384,0.21331787,3.28125,3.25,5.546875
1664567262618,-0.1953125,-0.62579346,-0.10015869,13.921875,25.203125,7.234375
1664567262662,0.24853516,-0.4072876,-0.055725098,12.34375,-3.296875,5.453125
1664567262693,0.23608398,-0.7029419,0.030944824,8.40625,-22.0,9.796875
1664567262721,-0.12060547,-0.67681885,-0.04937744,3.796875,-13.265625,3.890625
1664567262783,-0.038330078,-0.7542114,-0.05303955,7.265625,-3.03125,1.46875
1664567262812,0.09082031,-1.0303345,0.06707764,-0.046875,-4.375,1.359375
1664567262842,-0.060058594,-1.3010864,0.11468506,6.953125,-20.328125,-3.078125
1664567262901,-0.15185547,-1.4622192,0.124938965,-10.96875,5.890625,-0.828125
1664567262932,-0.0107421875,-1.5134888,0.13909912,-25.71875,0.609375,-10.375
1664567262962,0.34375,-1.0928345,0.19036865,-14.390625,21.015625,-3.328125
1664567263022,0.6220703,-0.39898682,-0.49273682,10.359375,-3.3125,32.796875
1664567263081,0.8347168,-1.477356,0.10687256,-8.03125,-45.25,-17.21875
1664567263083,-0.11328125,-1.4204712,0.047302246,24.328125,-16.609375,2.875
1664567263142,-0.03491211,-0.6682739,-0.2949829,36.828125,-1.53125,-0.96875
1664567263156,0.023925781,-0.552063,0.027282715,8.359375,31.015625,3.375
1664567263203,-0.040283203,-0.57598877,0.0038452148,-1.484375,11.5625,2.890625
1664567263261,0.27124023,-0.6460571,0.10467529,-6.125,-0.1875,0.53125
1664567263277,0.2626953,-0.7217407,0.17816162,-7.375,-0.78125,1.28125
1664567263322,0.008056641,-0.79888916,0.23358154,-5.5,-8.390625,-2.390625
1664567263383,-0.05029297,-1.0269165,0.06585693,-9.9375,-22.46875,-16.078125
1664567263396,0.2529297,-1.3894653,0.30950928,-5.8125,-14.875,-0.640625
1664567263443,-0.0715332,-1.7869263,0.5741577,-14.5625,2.8125,-10.234375
1664567263472,-0.62646484,-1.3804321,0.07147217,-14.078125,-0.484375,-26.75
1664567263517,0.5930176,-0.87677,-0.022521973,-14.71875,17.78125,5.125
1664567263564,0.64038086,-0.8587036,-0.46002197,-38.328125,32.03125,17.96875
1664567263592,0.20361328,-1.4060669,-0.1260376,31.875,-0.3125,3.015625
1664567263636,0.1706543,-1.2368774,0.37908936,4.03125,-5.90625,-2.15625
1664567263681,0.087646484,-0.78570557,0.02142334,-2.9375,37.484375,6.328125
1664567263712,0.14501953,-0.33087158,-0.13311768,12.21875,13.1875,17.3125
1664567263757,0.1887207,-0.54107666,0.036071777,13.328125,-13.828125,8.234375
1664567263803,-0.16259766,-0.8069458,0.039978027,18.34375,-2.21875,5.15625
1664567263831,-0.061279297,-0.786438,0.03729248,8.625,10.828125,12.734375
1664567263876,0.1730957,-0.9522095,0.07269287,5.125,-9.375,6.65625
1664567263922,0.028564453,-1.2820435,0.16766357,-0.5625,-18.859375,7.5
1664567263951,-0.10888672,-1.4163208,0.22210693,-2.734375,2.140625,2.5
1664567263997,0.017333984,-1.6069946,0.12908936,-36.09375,12.015625,-12.453125
1664567264042,0.57714844,-1.0261841,-0.035461426,-12.359375,31.109375,-0.78125
1664567264073,0.8215332,-0.49517822,-0.32305908,18.09375,29.4375,30.59375
1664567264117,0.45922852,-1.4048462,-0.07550049,-4.390625,-72.890625,-36.078125
1664567264162,-0.041503906,-1.361145,0.02142334,30.421875,-11.296875,-9.0
1664567264192,0.28833008,-0.8435669,-0.12896729,25.75,-1.546875,-3.84375
1664567264221,0.0390625,-0.69366455,0.04901123,-2.203125,7.6875,-8.28125
1664567264283,-0.10620117,-0.54400635,0.0048217773,2.015625,11.90625,-0.140625
1664567264312,0.28710938,-0.52960205,0.09320068,2.46875,7.0625,0.8125
1664567264342,0.10571289,-0.6345825,0.14715576,-1.828125,-0.515625,3.625
1664567264404,-0.025390625,-0.8711548,0.18939209,1.90625,-2.0625,-2.484375
1664567264432,-0.10205078,-1.0759888,0.078308105,-2.84375,-6.796875,-11.578125
1664567264462,0.18945312,-1.2844849,0.2020874,-15.84375,6.765625,-0.5
1664567264521,0.39086914,-1.6726685,0.3937378,6.78125,-6.421875,-8.125
1664567264552,-0.7141113,-1.7219849,0.05633545,-33.59375,0.84375,-21.6875
1664567264582,0.5722656,-0.89801025,-0.1651001,-24.578125,44.46875,11.4375
1664567264642,0.36914062,-0.58721924,-0.27520752,-2.09375,25.15625,0.640625
1664567264657,0.23046875,-1.7080688,-0.014953613,1.5,4.359375,6.640625
1664567264702,0.33911133,-1.0064087,0.18255615,22.78125,5.03125,8.765625
1664567264762,-0.0107421875,-0.56378174,0.014099121,-5.1875,26.609375,3.4375
1664567264777,0.08081055,-0.49664307,-0.057922363,1.75,-1.03125,4.84375
1664567264822,0.047607422,-0.64263916,0.038024902,4.34375,-6.5,6.8125
1664567264882,0.03491211,-0.5947876,0.0048217773,2.984375,-7.90625,5.796875
1664567264897,0.09326172,-0.78302,-0.0335083,5.328125,-9.265625,1.671875
1664567264943,0.11206055,-0.9920044,0.038269043,0.875,-17.515625,2.4375
1664567264974,0.04321289,-1.4605103,0.20111084,0.53125,-26.59375,3.1875
1664567265017,-0.21142578,-1.6079712,0.49578857,-8.703125,-3.640625,-7.28125
1664567265062,-0.06274414,-1.663147,0.08660889,-34.65625,-13.640625,-17.671875
1664567265091,0.60717773,-0.75323486,-0.19561768,-2.234375,11.75,7.40625
1664567265138,0.9411621,-0.5745239,-0.04107666,15.078125,3.34375,19.0625
1664567265181,0.13427734,-1.6133423,0.22454834,-18.5625,-46.890625,-46.3125
1664567265211,-0.21435547,-1.2832642,-0.053771973,40.609375,2.84375,12.5
1664567265257,0.48120117,-0.565979,0.057556152,17.09375,16.109375,-1.71875
1664567265302,-0.107910156,-0.57354736,0.07611084,11.359375,14.78125,-1.28125
1664567265331,-0.04248047,-0.4902954,0.059753418,10.9375,13.265625,5.75
1664567265377,0.30737305,-0.5828247,0.14056396,2.0625,1.1875,2.828125
1664567265421,0.10668945,-0.7815552,0.21478271,-1.328125,-4.765625,-4.3125
1664567265453,-0.09643555,-0.92755127,0.2518921,-1.578125,-0.96875,-7.125
1664567265497,-0.09326172,-0.96539307,0.15545654,-1.609375,0.109375,-12.03125
1664567265541,0.25024414,-1.329895,0.26287842,-4.875,-10.234375,-1.640625
1664567265573,0.23071289,-1.9060669,0.57855225,-5.90625,-10.4375,-15.34375
1664567265616,-0.70288086,-1.6812134,-0.020812988,-6.796875,19.53125,-16.390625
1664567265661,0.79125977,-0.67803955,-0.26617432,-10.890625,40.65625,24.453125
1664567265692,0.41430664,-0.81744385,-0.3201294,-14.453125,18.34375,5.0
1664567265722,0.15258789,-1.6882935,0.13323975,7.078125,-6.796875,17.34375
1664567265782,0.47973633,-0.97906494,0.077819824,19.0625,18.375,9.765625
1664567265812,-0.09790039,-0.4727173,0.018981934,15.21875,22.0625,14.921875
1664567265842,0.1472168,-0.42266846,-0.018127441,8.390625,-6.0,8.609375
1664567265902,0.07324219,-0.75616455,-3.0517578E-4,1.78125,-6.765625,4.328125
1664567265932,-0.018310547,-0.6226196,0.0138549805,9.0625,5.703125,6.3125
1664567265962,-0.0061035156,-0.69195557,0.015319824,3.234375,-4.546875,2.703125
1664567266021,0.067871094,-1.0408325,0.11932373,-5.90625,-18.25,0.21875
1664567266036,0.021972656,-1.4146118,0.12615967,6.46875,-18.1875,-1.5625
1664567266084,0.02319336,-1.5620728,0.32806396,7.984375,15.578125,4.703125
1664567266143,0.10083008,-1.7315063,0.1630249,-43.359375,-26.75,-9.765625
1664567266156,0.53466797,-0.78692627,-0.27130127,10.8125,31.546875,4.15625
1664567266202,0.88378906,-0.4138794,-0.40875244,14.671875,-6.3125,20.625
1664567266262,0.35205078,-1.5003052,0.11224365,-10.359375,-47.640625,-51.09375
1664567266277,-0.2397461,-1.2944946,-0.1482544,31.140625,16.375,6.84375
1664567266322,0.32006836,-0.59991455,-0.04473877,0.578125,9.65625,-3.53125
1664567266382,-0.072753906,-0.7210083,0.10736084,-15.84375,14.234375,6.046875
1664567266397,-0.05883789,-0.5750122,0.036315918,-14.171875,4.125,3.578125
1664567266442,0.23754883,-0.5288696,0.11566162,-13.015625,6.453125,-1.875
1664567266517,0.18017578,-0.7005005,0.2772827,-1.328125,6.8125,-1.640625
1664567266522,0.013916016,-0.80963135,0.3024292,8.171875,3.578125,-4.65625
1664567266561,-0.083984375,-1.0671997,0.14813232,3.1875,2.515625,-9.859375
1664567266591,0.4267578,-1.5059204,0.4454956,-10.453125,-16.390625,-0.015625
1664567266636,-0.08105469,-1.5376587,0.590271,4.1875,18.359375,-8.4375
1664567266682,-0.43725586,-1.6553345,-0.0015258789,-24.5,-8.671875,-18.015625
1664567266712,0.6242676,-0.75201416,-0.26519775,-11.5,44.390625,23.4375
1664567266757,0.29125977,-0.83013916,-0.33648682,7.71875,31.140625,5.046875
1664567266802,0.21801758,-1.5039673,0.08026123,4.453125,2.078125,1.234375
1664567266834,0.27563477,-0.9690552,0.15863037,25.6875,18.671875,7.234375
1664567266876,-0.032714844,-0.6099243,-0.015197754,12.65625,23.203125,10.578125
1664567266922,0.15112305,-0.3657837,-0.07720947,-1.140625,4.5,7.78125
1664567266951,0.068603516,-0.6902466,-0.059631348,8.296875,-0.765625,7.90625
1664567266996,0.014160156,-0.71051025,-0.024719238,10.59375,6.421875,11.75
1664567267042,0.09472656,-0.8467407,9.1552734E-4,2.3125,-0.53125,5.890625
1664567267071,0.1159668,-1.1360474,0.0289917,-0.53125,-10.765625,4.921875
1664567267102,0.043701172,-1.4263306,0.13665771,-6.25,-16.609375,5.078125
1664567267162,-0.1652832,-1.5498657,0.25360107,-19.796875,13.28125,-11.015625
1664567267192,0.4560547,-1.6206665,0.0045776367,-49.671875,-10.921875,-4.1875
1664567267222,0.6977539,-0.60235596,-0.43658447,16.78125,12.96875,14.625
1664567267282,0.63549805,-0.81988525,-0.08843994,10.046875,-25.609375,-16.4375
1664567267312,0.15136719,-1.5183716,0.066833496,-5.03125,-28.59375,-23.0625
1664567267342,0.30493164,-0.9614868,-0.047668457,44.703125,1.375,5.78125
1664567267401,0.16430664,-0.63531494,0.035583496,17.1875,11.8125,-12.0625
1664567267432,-0.10229492,-0.5684204,0.020202637,7.265625,1.59375,-2.859375
1664567267461,0.1640625,-0.5720825,0.085876465,1.125,-2.1875,-2.59375
1664567267524,0.19018555,-0.60821533,0.10223389,-4.109375,-10.953125,-1.921875
1664567267536,0.056152344,-0.75567627,0.15081787,-4.703125,-8.359375,-2.90625
1664567267582,0.026123047,-0.96099854,0.2946167,-9.859375,-12.515625,-9.609375
1664567267642,0.06738281,-1.0813599,0.1876831,-12.125,-8.578125,-9.515625
1664567267657,0.26513672,-1.5022583,0.37982178,-11.828125,-16.234375,-2.109375
1664567267701,-0.025146484,-1.7112427,0.38104248,-15.390625,-7.078125,-13.96875
1664567267762,-0.15307617,-1.3640747,0.044128418,0.953125,13.515625,-9.734375
1664567267777,0.545166,-0.43389893,-0.3110962,-8.015625,31.78125,15.375
1664567267822,0.5449219,-1.0071411,-0.37554932,-6.71875,5.453125,-0.078125
1664567267851,0.06762695,-1.4421997,0.35028076,5.046875,-2.296875,2.765625
1664567267897,0.19335938,-0.8899536,0.019470215,5.5625,26.59375,2.21875
1664567267941,0.0871582,-0.4668579,-0.00982666,6.59375,17.953125,1.03125
1664567267971,0.18554688,-0.51641846,0.05682373,0.015625,-0.03125,6.421875
1664567268017,9.765625E-4,-0.72613525,0.047058105,3.78125,-10.859375,2.28125
1664567268061,0.040527344,-0.74224854,0.030456543,5.46875,-8.03125,6.28125
1664567268091,0.1184082,-0.93707275,0.13226318,0.28125,-21.71875,6.09375
1664567268137,0.10620117,-1.1934204,0.14276123,8.546875,-26.078125,7.0
1664567268182,0.0024414062,-1.3804321,0.2855835,-8.296875,-15.265625,1.25
1664567268211,0.0087890625,-1.6033325,0.16546631,-19.609375,-3.609375,-15.15625
1664567268256,0.6401367,-1.1148071,0.039978027,-9.625,4.6875,1.109375
1664567268302,0.75927734,-0.4907837,-0.23077393,38.765625,4.4375,24.328125
1664567268332,0.4777832,-1.5606079,0.20819092,-12.0,-49.9375,-9.640625
1664567268377,0.18701172,-1.256897,-0.042053223,40.453125,-21.421875,7.578125
1664567268422,0.16455078,-0.59454346,0.042907715,33.84375,7.53125,-0.890625
1664567268452,0.037353516,-0.5322876,0.105651855,20.609375,3.796875,3.15625
1664567268497,0.056396484,-0.4680786,0.03338623,12.203125,-15.296875,0.875
1664567268541,0.22705078,-0.5708618,0.097595215,5.53125,-10.640625,1.03125
1664567268572,0.1328125,-0.8477173,0.23358154,3.390625,1.328125,-4.765625
1664567268603,0.0036621094,-0.90338135,0.20916748,0.03125,-3.65625,-8.375
1664567268661,0.15527344,-1.1165161,0.15203857,-7.484375,-0.78125,-22.8125
1664567268691,0.7175293,-1.7124634,0.55584717,-7.375,-20.234375,-0.984375
1664567268721,-0.09008789,-1.5742798,0.24163818,-19.609375,-3.15625,-21.65625
1664567268781,-0.09741211,-1.3828735,-0.26763916,-11.796875,22.71875,0.921875
1664567268811,0.36572266,-0.3760376,-0.37872314,4.59375,41.203125,18.734375
1664567268842,0.05078125,-1.2276001,-0.27618408,-22.203125,-11.34375,-7.75
1664567268901,0.6040039,-1.5322876,0.06097412,24.53125,4.703125,18.96875
1664567268917,-0.0925293,-0.753479,0.016296387,15.0625,26.984375,5.046875
1664567268962,-0.029296875,-0.44708252,-0.03375244,-5.15625,4.109375,5.734375
1664567269022,0.38183594,-0.48492432,-0.025939941,-0.1875,-4.65625,9.0625
1664567269036,-0.056884766,-0.7112427,-0.03692627,6.34375,-8.234375,6.3125
1664567269082,0.09350586,-0.6404419,-0.006164551,4.34375,-12.28125,11.234375
1664567269142,0.13574219,-0.8904419,0.05609131,-2.484375,-20.5625,3.03125
1664567269157,0.0029296875,-1.2390747,0.16693115,-5.09375,-28.3125,2.078125
1664567269203,-0.052734375,-1.3132935,0.121520996,5.609375,-11.75,3.34375
1664567269262,0.030029297,-1.5857544,0.37127686,-24.171875,6.0,-8.203125
1664567269276,0.44482422,-1.5689087,0.1864624,-46.6875,-15.5625,-12.15625
1664567269322,0.42382812,-0.47906494,-0.585022,13.734375,9.5,15.90625
1664567269351,0.5888672,-0.93878174,0.022644043,18.09375,-24.171875,-18.3125
1664567269396,-0.04296875,-1.6680298,0.08416748,0.203125,-11.109375,-27.53125
1664567269441,0.23022461,-0.96466064,-0.18121338,29.296875,26.34375,11.609375
1664567269472,0.30664062,-0.6694946,0.12664795,1.953125,12.171875,-5.328125
1664567269516,-0.19433594,-0.69610596,0.054870605,1.765625,14.984375,3.609375
1664567269563,0.12133789,-0.44854736,0.0138549805,10.234375,13.984375,4.25
1664567269591,0.15429688,-0.52301025,0.07879639,-1.234375,8.46875,0.25
1664567269636,0.11645508,-0.82037354,0.15814209,2.21875,14.328125,-3.5
1664567269683,0.01953125,-0.9883423,0.20379639,1.984375,2.421875,-4.65625
1664567269711,0.12011719,-1.1199341,0.18133545,-13.328125,-1.015625,-7.453125
1664567269757,0.3581543,-1.6340942,0.46746826,-10.09375,-9.515625,-5.375
1664567269804,-0.23413086,-1.4893188,0.31195068,-19.921875,4.140625,-19.609375
1664567269832,-0.18188477,-1.4033813,-0.07574463,-9.21875,15.296875,-15.09375
1664567269877,0.7192383,-0.5352173,-0.36138916,-20.625,43.546875,13.984375
1664567269922,0.26367188,-0.9924927,-0.2649536,14.125,18.03125,-0.28125
1664567269951,0.1694336,-1.5105591,0.12445068,7.359375,-14.3125,3.234375
1664567270042,0.21459961,-0.9685669,0.041931152,13.90625,33.5,6.28125
1664567270047,0.03564453,-0.49542236,-0.038879395,9.15625,8.75,11.171875
1664567270073,0.3244629,-0.47076416,-0.024963379,9.515625,-13.734375,15.828125
1664567270101,-0.039794922,-0.7324829,-0.0134887695,14.84375,-11.359375,5.734375
1664567270163,-0.08178711,-0.6682739,-0.022277832,13.421875,0.5625,4.953125
1664567270192,0.1081543,-0.909729,0.044128418,0.921875,-5.234375,3.4375
1664567270223,0.10864258,-1.0371704,0.082214355,1.375,-7.125,-2.015625
1664567270282,0.033447266,-1.3826294,0.12225342,-6.171875,-10.609375,-3.90625
1664567270311,-0.043945312,-1.6113892,0.24359131,-20.6875,10.546875,-9.015625
1664567270341,0.32104492,-1.491272,0.3427124,-24.875,-6.765625,-4.6875
1664567270402,0.4958496,-0.44830322,-0.63653564,2.171875,2.796875,19.34375
1664567270417,0.6022949,-1.0037231,0.006286621,5.125,-35.875,-18.78125
1664567270462,0.140625,-1.553772,-0.0020141602,3.71875,-25.734375,-18.171875
1664567270522,0.118896484,-0.89312744,-0.16046143,26.75,2.34375,6.40625
1664567270536,0.15234375,-0.68536377,0.055847168,7.625,12.1875,0.265625
1664567270584,-0.11401367,-0.5393677,0.01751709,5.734375,12.21875,1.140625
1664567270642,0.18652344,-0.45343018,0.0524292,2.140625,-0.640625,3.34375
1664567270657,0.1430664,-0.5913696,0.10809326,-1.203125,5.859375,-0.109375
1664567270703,0.103759766,-0.74468994,0.18109131,2.84375,2.703125,-0.875
1664567270762,0.026611328,-0.96051025,0.24871826,-3.5625,-2.375,-8.671875
1664567270776,0.1821289,-1.2720337,0.20916748,-8.890625,-6.875,-10.453125
1664567270822,0.36816406,-1.7861938,0.5741577,1.765625,-15.09375,-5.65625
1664567270851,-0.4140625,-1.6594849,0.15765381,-25.203125,-12.09375,-17.84375
1664567270896,0.2175293,-1.109436,-0.22149658,1.78125,28.1875,2.4375
1664567270941,0.48706055,-0.59039307,-0.47418213,3.3125,27.453125,16.734375
1664567270971,0.32641602,-1.3311157,-0.023254395,5.59375,-18.375,0.34375
1664567271017,0.2602539,-1.4302368,0.17449951,5.296875,10.921875,6.84375
1664567271061,-0.014892578,-0.64434814,-0.035217285,11.828125,34.96875,5.125
1664567271091,0.19360352,-0.28033447,-0.070129395,6.0,-3.703125,9.46875
1664567271137,0.23706055,-0.5420532,-0.0256958,-2.78125,-10.390625,11.84375
1664567271182,-0.0847168,-0.708313,-0.019592285,9.5,-14.609375,7.640625
1664567271212,-0.0031738281,-0.73321533,-0.0076293945,2.71875,-13.109375,6.4375
1664567271257,0.10986328,-0.93341064,0.105651855,-0.53125,-10.515625,0.15625
1664567271301,0.06982422,-1.2315063,0.24822998,-1.859375,-16.640625,2.34375
1664567271332,-0.13061523,-1.53302,0.23162842,-10.953125,-1.1875,-1.96875
1664567271378,0.16113281,-1.6709595,0.10614014,-31.8125,1.828125,-9.515625
1664567271421,0.6682129,-0.8970337,-0.2354126,-8.046875,24.390625,7.9375
1664567271452,0.9458008,-0.66729736,-0.20977783,12.453125,14.171875,9.5
1664567271482,-0.055419922,-1.3833618,0.035095215,-7.15625,-53.84375,-35.015625
1664567271542,-0.05126953,-1.3110962,-0.07501221,37.640625,22.71875,-1.109375
1664567271571,0.5632324,-0.75616455,0.066833496,22.03125,4.0,-3.625
1664567271602,-0.171875,-0.74713135,0.038513184,-9.0625,0.765625,-3.9375
1664567271662,0.015136719,-0.5215454,0.040222168,17.90625,4.625,1.5625
1664567271691,0.1940918,-0.44122314,0.032165527,-1.734375,0.265625,4.3125
1664567271722,-0.0034179688,-0.58966064,0.09295654,3.40625,15.875,2.34375
1664567271781,0.103271484,-0.77911377,0.20550537,-4.890625,7.359375,-1.34375
1664567271812,0.1730957,-1.1069946,0.14007568,-12.625,-14.78125,-1.640625
1664567271842,0.26000977,-1.6885376,0.45184326,-9.515625,-11.890625,-4.921875
1664567271902,-0.29174805,-1.5310669,0.50531006,9.96875,8.140625,-20.078125
1664567271916,-0.22607422,-1.5342407,-0.097961426,-33.28125,11.03125,-20.0625
1664567271963,0.82006836,-0.6897583,-0.40338135,-13.546875,43.328125,21.6875
1664567272021,0.25195312,-1.1997681,-0.36212158,17.453125,17.0625,-4.953125
1664567272037,0.39038086,-1.4973755,0.19110107,14.1875,-11.09375,11.21875
1664567272081,0.19848633,-0.8982544,-0.031799316,9.5625,24.90625,9.125
1664567272142,0.049804688,-0.47174072,-0.07867432,12.28125,9.453125,6.328125
1664567272157,0.265625,-0.46148682,-0.014709473,12.703125,-12.84375,12.328125
1664567272202,-0.02319336,-0.59503174,-0.054992676,14.203125,-8.125,7.984375
1664567272232,0.008056641,-0.62823486,-0.08380127,7.109375,-7.40625,6.53125
1664567272278,0.09106445,-0.82354736,0.07122803,4.40625,-8.578125,2.265625
1664567272323,0.044921875,-1.0603638,0.061950684,3.984375,-13.921875,1.21875
1664567272351,0.08276367,-1.4356079,0.05267334,-5.21875,-16.546875,0.9375
1664567272397,-0.05859375,-1.5879517,0.18035889,-12.265625,13.46875,-5.3125
1664567272442,0.3071289,-1.6445923,0.10614014,-59.671875,-7.53125,-2.15625
1664567272472,0.5969238,-0.5720825,-0.5527954,-1.953125,17.21875,11.875
1664567272517,0.75,-0.9390259,-0.0154418945,5.296875,-27.34375,-17.109375
1664567272562,0.10498047,-1.4873657,-0.007385254,5.3125,-27.171875,-23.390625
1664567272592,0.045410156,-0.91973877,-0.1416626,32.984375,2.484375,1.140625
1664567272637,0.28881836,-0.7210083,0.062438965,14.421875,9.96875,-1.265625
1664567272685,-0.087402344,-0.60113525,0.014099121,0.90625,13.390625,-2.703125
1664567272712,0.056396484,-0.4631958,0.015563965,-1.1875,5.578125,0.53125
1664567272757,0.123291016,-0.57818604,0.090026855,0.046875,8.84375,-2.171875
1664567272802,0.09765625,-0.82525635,0.1762085,-3.671875,7.6875,-0.734375
1664567272831,0.0703125,-0.94659424,0.25091553,-11.984375,-3.9375,-5.640625
1664567272877,-0.0234375,-1.0698853,0.12200928,-11.796875,-2.453125,-3.78125
1664567272924,0.4260254,-1.5401001,0.41864014,-3.875,-19.890625,2.734375
1664567272951,-0.33862305,-1.5769653,0.40911865,-12.578125,-18.0,-27.890625
1664567272981,-0.13134766,-1.3904419,0.08734131,-7.375,14.921875,-16.296875
1664567273043,0.9003906,-0.6091919,-0.29888916,-22.53125,36.609375,19.078125
1664567273071,0.4296875,-1.1245728,-0.3796997,-3.984375,-4.875,3.1875
1664567273102,0.10180664,-1.5481567,0.2765503,13.375,-13.234375,-1.40625
1664567273162,0.051513672,-0.9487915,0.07342529,0.546875,36.9375,7.015625
1664567273194,0.19873047,-0.40582275,-0.09820557,6.96875,17.109375,7.375
1664567273221,0.35864258,-0.5432739,0.024108887,2.859375,-13.953125,11.28125
1664567273284,-0.1484375,-0.7451782,0.04486084,7.65625,-16.0625,4.890625
1664567273296,-0.088134766,-0.56622314,0.010681152,3.28125,-8.609375,8.765625
1664567273342,0.10644531,-0.8245239,0.07928467,2.03125,-10.328125,6.65625
1664567273402,0.14819336,-1.0779419,0.16229248,6.109375,-11.9375,2.578125
1664567273417,-0.1328125,-1.343811,0.22064209,0.609375,-7.390625,-0.390625
1664567273462,-0.07299805,-1.5237427,0.309021,-7.96875,5.90625,-7.34375
1664567273523,0.24682617,-1.6641235,0.058532715,-44.15625,-6.484375,-8.328125
1664567273537,0.61694336,-0.6367798,-0.15289307,12.40625,28.453125,15.75
1664567273581,0.6425781,-0.5532837,-0.20831299,15.4375,3.9375,5.765625
1664567273656,0.18188477,-1.6524048,0.17376709,1.109375,-31.390625,-32.75
1664567273658,0.14111328,-1.1358032,-0.1638794,24.09375,-2.578125,7.171875
1664567273702,0.10424805,-0.84747314,0.05706787,11.671875,17.265625,-3.6875
1664567273732,-0.14404297,-0.65216064,-0.016662598,9.5,12.375,4.828125
1664567273776,0.07739258,-0.4866333,0.05291748,5.953125,13.15625,2.703125
1664567273823,0.1730957,-0.57403564,0.10296631,3.9375,-0.65625,1.25
1664567273851,0.14550781,-0.75909424,0.16473389,3.484375,2.21875,3.515625
1664567273897,0.060546875,-0.9356079,0.22503662,5.609375,-5.34375,-3.8125
1664567273942,0.04296875,-1.0545044,0.073913574,4.765625,-2.546875,-5.0
1664567273971,0.3395996,-1.3792114,0.27459717,-14.109375,-10.734375,-5.703125
1664567274016,-0.09277344,-1.5706177,0.49383545,2.65625,8.0,-11.75
1664567274062,-0.2565918,-1.4588013,-0.09185791,-24.21875,0.328125,-28.03125
1664567274091,0.6591797,-0.6812134,-0.4649048,-11.921875,30.46875,15.25
1664567274137,0.37036133,-1.0505981,-0.35479736,12.28125,11.953125,5.265625
1664567274181,0.29516602,-1.4334106,0.12689209,4.078125,-4.71875,8.0
1664567274211,0.20703125,-1.0176392,0.09173584,9.15625,28.53125,5.421875
1664567274257,0.10888672,-0.59381104,-0.090148926,9.9375,16.0,8.84375
1664567274301,0.23413086,-0.4631958,0.006286621,8.71875,-9.8125,7.234375
1664567274331,0.10913086,-0.7124634,-0.023254395,15.0,-12.21875,15.734375
1664567274422,-0.0546875,-0.6795044,-0.0049438477,13.03125,-7.171875,5.078125
1664567274424,-0.037109375,-0.85357666,0.020202637,6.265625,-11.78125,2.375
1664567274451,-0.0017089844,-1.0161743,0.054382324,-9.046875,-6.421875,-0.640625
1664567274482,0.064941406,-1.2857056,0.039733887,-8.953125,-15.71875,-2.578125
1664567274542,0.03149414,-1.4243774,0.051452637,-18.9375,0.265625,-2.75
1664567274572,0.052734375,-1.5830688,0.27288818,-44.375,0.15625,-10.859375
1664567274602,0.5439453,-0.77008057,0.09173584,-25.8125,23.6875,4.59375
1664567274662,0.7092285,-0.6099243,-0.348938,-0.234375,3.3125,12.125
1664567274691,0.58203125,-1.4768677,0.10223389,2.203125,-58.09375,-32.5625
1664567274722,-0.09838867,-1.3093872,-0.057678223,26.6875,-6.640625,-0.234375
1664567274782,0.2368164,-0.8023071,0.02557373,27.0625,2.4375,-6.0625
1664567274796,-0.017578125,-0.7258911,0.030456543,13.96875,11.0625,-2.78125
1664567274842,-0.07910156,-0.5420532,0.0028686523,-0.234375,8.640625,-3.296875
1664567274901,0.23461914,-0.57403564,0.121032715,-2.21875,4.4375,2.96875
1664567274917,0.12890625,-0.6445923,0.19671631,-4.0,0.625,0.40625
1664567274961,-0.041748047,-0.8272095,0.2518921,-7.625,3.0,-0.8125
1664567275022,-0.0925293,-0.991272,0.2111206,-5.359375,-4.25,-11.046875
1664567275036,0.38256836,-1.2959595,0.25872803,-6.5625,-13.546875,-4.21875
1664567275082,0.2668457,-1.7695923,0.5993042,-0.9375,-17.90625,-11.078125
1664567275142,-0.69018555,-1.6575317,0.12005615,-16.90625,0.9375,-29.15625
1664567275157,0.5109863,-0.8584595,-0.105041504,-0.953125,33.578125,10.234375
1664567275202,0.3322754,-0.7588501,-0.39117432,0.6875,27.953125,8.828125
1664567275232,0.1171875,-1.5999146,-0.093322754,11.171875,2.65625,1.28125
1664567275277,0.33447266,-1.2366333,0.18817139,7.921875,1.28125,4.59375
1664567275323,0.0041503906,-0.6773071,0.07562256,0.09375,34.25,4.984375
1664567275351,0.052978516,-0.5132446,-0.04864502,0.4375,6.359375,13.375
1664567275397,0.22949219,-0.5286255,-0.007385254,3.484375,-7.03125,9.6875
1664567275442,-0.038330078,-0.6572876,0.019958496,10.265625,1.046875,5.15625
1664567275474,-0.013916016,-0.7461548,0.054870605,6.046875,2.109375,8.109375
1664567275517,0.11254883,-0.92022705,0.11029053,-6.609375,-17.59375,1.53125
1664567275562,0.006591797,-1.236145,0.20013428,8.5625,-16.75,0.5
1664567275592,-0.14428711,-1.4036255,0.26190186,-10.421875,-2.453125,0.046875
1664567275637,0.022460938,-1.5776978,0.35931396,-24.359375,-7.765625,-16.78125
1664567275683,0.34594727,-1.242981,0.12957764,-23.953125,-6.4375,-2.3125
1664567275711,0.66064453,-0.5327759,-0.37872314,-0.84375,9.5625,29.5625
1664567275756,0.72753906,-1.3313599,0.12298584,4.859375,-55.90625,-23.484375
1664567275804,-0.29052734,-1.3618774,0.09954834,19.796875,-25.40625,-0.859375
1664567275832,0.2097168,-0.80181885,0.031188965,20.796875,-11.03125,-1.796875
1664567275862,0.021484375,-0.5689087,0.09100342,15.265625,3.4375,-3.640625
1664567275922,-0.041015625,-0.5256958,0.06072998,11.796875,0.71875,0.3125
1664567275952,0.17285156,-0.581604,0.14227295,2.3125,-1.515625,4.5
1664567275983,0.09790039,-0.73565674,0.20892334,2.46875,4.59375,3.671875
1664567276042,-0.056152344,-0.82037354,0.24456787,5.46875,8.921875,0.296875
1664567276071,-0.06225586,-1.0022583,0.23651123,2.75,3.453125,-8.046875
1664567276101,0.14233398,-1.3191528,0.1708374,-16.8125,7.515625,-10.15625
1664567276162,0.36157227,-1.6472778,0.6954956,3.453125,6.359375,-13.109375
1664567276221,-0.6027832,-1.6890259,0.12762451,-24.46875,1.578125,-26.59375
1664567276223,0.4777832,-1.0227661,-0.24859619,-9.59375,42.625,12.0
1664567276282,0.19873047,-0.6734009,-0.36798096,17.453125,30.109375,13.53125
1664567276297,0.044921875,-1.5891724,-0.11138916,3.625,7.453125,-3.765625
1664567276342,0.36865234,-1.1914673,0.15228271,16.53125,16.390625,6.046875
1664567276403,-0.046875,-0.7217407,0.0211792,18.703125,36.421875,3.140625
1664567276417,0.12011719,-0.48980713,-0.02545166,9.375,8.25,13.21875
1664567276462,0.21850586,-0.55059814,-0.040100098,8.703125,-1.84375,12.4375
1664567276522,-0.1262207,-0.704895,-0.022766113,9.25,-1.9375,7.53125
1664567276537,-0.0034179688,-0.74884033,-0.028381348,2.1875,-4.03125,7.140625
1664567276582,0.14160156,-0.8909302,0.06903076,-4.71875,-12.171875,-0.578125
1664567276612,0.0793457,-1.2046509,0.078552246,-3.15625,-20.515625,3.921875
1664567276656,-0.11303711,-1.4412231,0.12689209,-10.921875,-15.453125,-3.453125
1664567276702,-0.04272461,-1.5181274,0.26483154,-20.75,0.484375,-10.859375
1664567276732,0.24951172,-1.3921509,0.260437,-29.03125,-9.5625,-8.9375
1664567276777,0.51000977,-0.57891846,-0.5093384,-11.625,2.21875,17.34375
1664567276822,0.8496094,-1.0266724,0.089782715,4.640625,-45.984375,-5.296875
1664567276852,-0.18041992,-1.4942017,0.08782959,10.703125,-39.40625,-4.734375
1664567276897,-0.039794922,-0.84820557,-0.04815674,24.234375,-8.96875,-0.6875
1664567276941,0.11621094,-0.64508057,0.02557373,5.671875,7.078125,-1.609375
1664567276971,-0.103271484,-0.5454712,0.08465576,7.46875,6.75,0.453125
1664567277016,0.21240234,-0.58917236,0.12591553,1.515625,-2.734375,6.640625
1664567277091,0.26049805,-0.7090454,0.24212646,-1.75,0.6875,3.65625
1664567277095,-0.047607422,-0.82525635,0.23138428,-1.609375,1.40625,3.203125
1664567277137,-0.2241211,-0.9517212,0.20135498,-7.890625,3.0625,-5.515625
1664567277167,0.15039062,-1.1609497,0.12567139,-2.6875,13.203125,-7.5625
1664567277211,0.5163574,-1.6946411,0.54486084,-5.71875,-13.359375,0.34375
1664567277257,-0.6035156,-1.7803345,0.22894287,-24.59375,-2.25,-31.234375
1664567277302,0.18554688,-1.2173462,-0.066223145,-1.859375,37.03125,12.0625
1664567277362,0.35888672,-0.6099243,-0.28424072,-20.796875,39.546875,-4.34375
1664567277367,0.2697754,-1.3047485,-0.09991455,-7.0,24.140625,7.015625
1664567277422,0.3388672,-1.3081665,0.19573975,7.359375,15.3125,0.4375
1664567277451,0.016357422,-0.6409302,0.11785889,22.8125,39.90625,-1.0625
1664567277482,0.043945312,-0.46661377,0.01361084,11.3125,23.9375,6.890625
1664567277556,0.122802734,-0.5964966,0.02166748,10.75,5.25,9.0625
1664567277571,-0.034179688,-0.70758057,0.04144287,11.359375,1.046875,6.1875
1664567277602,-0.010498047,-0.75982666,0.09539795,7.90625,0.921875,5.28125
1664567277662,-0.0014648438,-0.94195557,0.07122803,4.625,-2.234375,3.671875
1664567277676,0.0715332,-1.1011353,0.13763428,3.296875,-14.078125,4.703125
1664567277737,0.005859375,-1.3770142,0.16766357,-8.640625,-18.328125,-0.609375
1664567277781,-0.079833984,-1.5376587,0.3390503,-18.703125,4.484375,-9.28125
1664567277796,0.23535156,-1.6109009,0.22039795,-44.0625,-21.59375,-16.9375
1664567277842,0.5114746,-0.6621704,-0.4661255,4.953125,1.875,13.859375
1664567277901,0.8195801,-0.9006958,0.082458496,13.203125,-31.890625,3.59375
1664567277917,-0.04345703,-1.4741821,0.085876465,4.625,-39.484375,-18.109375
1664567277962,-0.028076172,-0.9077759,-0.012756348,25.671875,0.65625,4.09375
1664567278037,0.2956543,-0.6045532,0.07562256,16.4375,0.125,-3.421875
1664567278043,-0.1027832,-0.61553955,0.09539795,12.765625,4.9375,-0.71875
1664567278082,0.1262207,-0.5510864,0.109069824,10.203125,-3.0,0.375
1664567278111,0.11425781,-0.63287354,0.14984131,1.671875,-2.671875,-2.953125
1664567278158,0.03466797,-0.79522705,0.16229248,2.125,0.1875,-3.421875
1664567278202,-0.08251953,-0.97906494,0.27069092,3.28125,0.21875,-10.375
1664567278232,-0.029296875,-1.130188,0.10272217,-8.546875,5.15625,-10.96875
1664567278276,0.48510742,-1.592102,0.4244995,-4.9375,-11.40625,-7.515625
1664567278321,-0.3713379,-1.697815,0.14666748,-17.609375,-13.09375,-28.1875
1664567278352,0.052246094,-1.3699341,-0.09112549,-13.5625,20.53125,-0.90625
1664567278397,0.45166016,-0.57940674,-0.27496338,3.5625,21.546875,7.296875
1664567278442,0.11743164,-1.3084106,-0.18609619,-8.296875,13.96875,2.125
