# Sensor type: Respeck
# Activity type: Movement
# Activity code: 9
# Subject id: s1800825
# Notes: 
timestamp,accel_x,accel_y,accel_z,gyro_x,gyro_y,gyro_z
1664378252663,0.21777344,-0.89801025,-0.23931885,6.703125,6.1875,4.09375
1664378252710,0.22631836,-0.9055786,-0.23492432,10.4375,4.875,7.203125
1664378252740,0.21728516,-0.9456177,-0.20855713,16.5,3.765625,10.703125
1664378252784,0.22363281,-0.9343872,-0.22198486,26.59375,3.078125,19.546875
1664378252831,0.2529297,-0.8609009,-0.2276001,32.265625,-0.375,20.75
1664378252859,0.21704102,-0.8867798,-0.26080322,39.546875,2.5,26.09375
1664378252905,0.21826172,-0.8796997,-0.33111572,61.625,11.8125,27.703125
1664378252949,0.2409668,-0.88482666,-0.43780518,68.125,9.46875,31.328125
1664378252981,0.35107422,-0.77838135,-0.553772,81.28125,10.0,28.78125
1664378253024,0.22949219,-0.7932739,-0.60821533,62.421875,9.984375,24.28125
1664378253069,0.39404297,-0.7776489,-0.8587036,47.9375,2.90625,15.453125
1664378253101,0.8261719,-0.565979,-1.211731,32.34375,-4.390625,7.8125
1664378253144,0.8293457,-0.5598755,-1.4260864,26.421875,-14.609375,13.734375
1664378253190,0.74194336,-0.6465454,-1.2649536,3.03125,-8.4375,9.15625
1664378253220,0.5595703,-0.69000244,-1.0288696,-8.421875,0.125,9.890625
1664378253250,0.6452637,-0.36602783,-0.9500122,-6.1875,4.625,-1.640625
1664378253310,0.70336914,-0.4890747,-0.95391846,-11.953125,-0.015625,-3.734375
1664378253341,0.6035156,-0.58843994,-0.9524536,-21.578125,2.671875,-16.5
1664378253371,0.37646484,-0.62091064,-0.8098755,-31.75,9.9375,-10.328125
1664378253430,0.27539062,-0.53131104,-0.6802368,-38.59375,14.65625,-15.3125
1664378253462,0.12573242,-0.472229,-0.5244751,-49.6875,20.40625,-14.9375
1664378253489,0.21728516,-0.3484497,-0.4109497,-55.140625,35.640625,-15.90625
1664378253550,0.12475586,-0.17730713,-0.34454346,-65.828125,36.703125,-12.5
1664378253579,0.22290039,-0.070129395,-0.44586182,-50.28125,22.5625,-14.1875
1664378253612,0.38745117,-0.22540283,-0.34454346,-34.546875,2.25,-19.0
1664378253670,0.06738281,-0.34942627,-0.23297119,-31.3125,-8.578125,-13.828125
1664378253684,0.15795898,-0.67144775,-0.23809814,-36.203125,-15.390625,-15.9375
1664378253731,0.37329102,-1.0540161,-0.18267822,-36.09375,-14.78125,-8.84375
1664378253789,0.13769531,-0.9915161,-0.3093872,-20.828125,-12.84375,-2.265625
1664378253804,0.020263672,-0.7991333,-0.18585205,2.75,2.203125,0.234375
1664378253850,0.19140625,-0.9085083,-0.16412354,-0.546875,2.171875,1.8125
1664378253910,0.09326172,-0.9085083,-0.13482666,-10.109375,3.84375,1.75
1664378253924,-0.036621094,-0.9805298,-0.113098145,-23.171875,13.21875,-3.03125
1664378253971,0.08959961,-1.1658325,-0.18096924,-9.09375,22.796875,-4.046875
1664378254030,0.71728516,-1.2312622,-0.20806885,-6.828125,-0.125,6.015625
1664378254048,0.028808594,-1.5359497,-0.20513916,-29.109375,-20.984375,-37.09375
1664378254091,0.26660156,-1.2241821,-0.37872314,11.40625,3.109375,6.546875
1664378254120,0.34277344,-0.58673096,-0.43634033,-17.796875,0.3125,-10.875
1664378254166,-0.01586914,-0.70196533,-0.5967407,-22.65625,10.84375,-0.78125
1664378254212,0.36816406,-1.4439087,-0.3670044,4.265625,11.03125,-9.46875
1664378254239,0.5683594,-0.9607544,-0.25079346,1.953125,16.765625,1.6875
1664378254287,-0.11621094,-0.6721802,-0.16265869,-2.734375,15.3125,-2.046875
1664378254331,-0.07348633,-0.61676025,-0.19830322,4.359375,13.34375,6.53125
1664378254360,0.22998047,-0.5442505,-0.21807861,4.21875,7.078125,3.984375
1664378254406,0.07080078,-0.77667236,-0.1921997,-0.34375,-7.953125,-5.59375
1664378254451,-0.028564453,-0.92681885,-0.16217041,3.640625,-10.375,0.65625
1664378254479,0.16259766,-0.79473877,-0.13677979,5.4375,-5.265625,-7.328125
1664378254526,-0.036865234,-0.8945923,-0.28155518,-8.828125,-8.171875,-17.3125
1664378254571,-0.2524414,-1.4436646,-0.22930908,-32.84375,-3.671875,-11.3125
1664378254600,0.38110352,-1.663147,-0.2000122,-16.203125,-11.359375,-13.265625
1664378254647,-0.028320312,-1.342102,-0.0154418945,-39.921875,-0.734375,-8.640625
1664378254691,0.13085938,-0.60528564,-0.27716064,-12.4375,-5.34375,-0.703125
1664378254719,0.767334,-0.43902588,-0.380188,20.28125,-24.359375,10.671875
1664378254765,0.64819336,-1.6499634,-0.14776611,-1.890625,-46.0,-26.953125
1664378254810,-0.22851562,-1.2026978,-0.2156372,5.796875,-23.171875,-1.734375
1664378254839,0.22753906,-0.659729,-0.20489502,2.34375,-1.046875,14.453125
1664378254869,0.13549805,-0.6226196,-0.027648926,-0.9375,-5.671875,1.03125
1664378254929,-0.051513672,-0.7217407,-0.0413208,2.21875,-11.265625,1.640625
1664378254959,0.22045898,-0.59210205,-0.0025024414,1.6875,-6.046875,3.859375
1664378254990,0.17919922,-0.75079346,0.08856201,-8.421875,-7.421875,-3.03125
1664378255050,0.01171875,-0.97125244,0.1671753,-3.65625,-7.53125,-14.921875
1664378255081,-0.037841797,-0.9373169,-0.014221191,-0.125,-12.46875,-14.75
1664378255110,0.5527344,-1.1607056,0.0067749023,4.78125,-18.734375,-6.640625
1664378255172,-0.1484375,-1.7810669,0.14227295,-4.421875,-15.109375,-39.078125
1664378255185,-0.08911133,-1.5813599,-0.04864502,-0.40625,-14.8125,-7.828125
1664378255231,0.51782227,-0.6289673,-0.18585205,-15.21875,1.015625,0.5625
1664378255290,0.36132812,-0.7554321,-0.3694458,-11.296875,-18.6875,5.296875
1664378255305,0.19311523,-1.5913696,-0.29644775,0.078125,-16.765625,-4.921875
1664378255366,0.39941406,-0.9780884,-0.027160645,-0.921875,-21.0625,17.078125
1664378255411,0.22705078,-0.7293091,-0.09039307,-7.3125,-29.203125,1.65625
1664378255425,0.16430664,-0.642395,-0.12408447,12.09375,-46.234375,2.75
1664378255471,0.31274414,-0.64727783,-0.116760254,14.65625,-60.71875,-4.40625
1664378255533,0.01928711,-0.835022,-0.12188721,11.890625,-67.328125,-8.140625
1664378255545,-0.051513672,-0.87042236,-0.04058838,13.109375,-58.296875,-3.359375
1664378255590,-0.060058594,-0.93048096,0.001159668,6.140625,-48.6875,-5.9375
1664378255622,-0.067871094,-1.0005493,-0.06109619,-2.53125,-50.5,-6.140625
1664378255665,-0.013916016,-1.0979614,-0.06842041,2.40625,-45.125,-7.578125
1664378255709,-0.033691406,-1.0513306,0.06097412,-6.125,-32.53125,-6.046875
1664378255741,0.17041016,-1.3567505,0.014099121,-6.734375,-40.796875,-14.15625
1664378255785,0.5283203,-0.67388916,-0.066223145,13.890625,-37.03125,19.140625
1664378255830,1.09375,-1.006897,-0.06573486,18.46875,-68.5,-7.40625
1664378255862,-0.12988281,-1.7385864,-0.20953369,20.96875,-84.46875,-9.8125
1664378255906,0.34375,-1.0325317,-0.18682861,21.828125,-56.75,12.65625
1664378255951,0.52075195,-0.8713989,-0.1296997,21.5,-59.859375,9.046875
1664378255981,0.0073242188,-0.73931885,-0.02960205,35.140625,-69.6875,-3.109375
1664378256026,0.083496094,-0.69732666,-0.024230957,34.0625,-68.140625,-3.578125
1664378256070,0.14038086,-0.8189087,-0.08331299,26.578125,-58.15625,-5.375
1664378256100,0.10546875,-0.79229736,-0.14971924,25.171875,-55.625,-6.78125
1664378256160,0.16064453,-0.94195557,-0.015197754,21.296875,-49.3125,-23.09375
1664378256191,0.0390625,-1.1538696,-0.03277588,-1.0625,-44.171875,-27.1875
1664378256250,0.23852539,-1.0510864,-0.14190674,-4.015625,-39.171875,-28.609375
1664378256265,0.26757812,-0.9776001,-0.30645752,-3.0625,-39.078125,-19.546875
1664378256310,0.115478516,-0.66241455,-0.4212036,-15.53125,-39.765625,0.6875
1664378256341,0.36108398,-1.3457642,-0.520813,12.953125,-52.921875,-25.515625
1664378256370,0.18115234,-1.5327759,-0.24346924,4.03125,-53.828125,-5.765625
1664378256430,-0.07421875,-0.9585571,-0.15216064,4.953125,-20.125,-13.5625
1664378256460,0.0021972656,-0.7608032,-0.12579346,17.03125,-25.890625,-11.828125
1664378256490,0.23632812,-0.7398071,-0.15802002,13.984375,-37.65625,-11.34375
1664378256551,0.028808594,-0.6934204,-0.2276001,10.984375,-46.140625,-12.625
1664378256580,-0.10424805,-0.78912354,-0.2637329,9.578125,-51.734375,-9.390625
1664378256610,0.061767578,-0.9053345,-0.29718018,2.015625,-60.90625,-10.234375
1664378256670,0.11450195,-0.92852783,-0.33428955,18.953125,-54.125,-8.46875
1664378256685,-0.08911133,-0.8557739,-0.37042236,23.34375,-58.4375,-7.171875
1664378256733,-0.22143555,-0.9314575,-0.4019165,23.890625,-44.171875,-7.25
1664378256790,0.14550781,-0.6843872,-0.3814087,30.375,-33.78125,3.375
1664378256805,0.2763672,-0.5315552,-0.41412354,54.40625,-51.125,10.6875
1664378256854,0.4633789,-0.80596924,-0.34552002,54.046875,-38.25,28.34375
1664378256910,0.32836914,-1.3079224,-0.3904419,27.265625,-28.484375,0.140625
1664378256926,0.29467773,-1.0410767,-0.37677002,37.578125,-22.890625,19.515625
1664378256970,0.59521484,-0.48394775,-0.440979,50.15625,-37.5625,15.15625
1664378257030,0.3894043,-0.53009033,-0.36358643,55.609375,-41.71875,-0.765625
1664378257045,0.1394043,-0.5491333,-0.3579712,52.921875,-38.96875,4.140625
1664378257091,0.29101562,-0.47662354,-0.32965088,50.09375,-19.96875,1.703125
1664378257167,0.36743164,-0.45318604,-0.36676025,41.265625,-19.0625,2.734375
1664378257169,0.3395996,-0.46148682,-0.53790283,36.78125,-16.828125,-0.15625
1664378257210,0.53393555,-0.29180908,-0.6799927,14.671875,-29.421875,1.359375
1664378257240,0.41870117,-0.861145,-0.62164307,17.921875,-3.1875,-3.734375
1664378257285,0.41845703,-0.69195557,-0.7271118,-13.15625,7.71875,-0.828125
1664378257331,0.8359375,-0.46295166,-0.7439575,-12.484375,-6.9375,-6.734375
1664378257360,0.49609375,-0.6448364,-0.86968994,-16.65625,-2.28125,-12.65625
1664378257405,0.6430664,-0.585022,-0.755188,-21.359375,9.609375,-9.984375
1664378257450,0.5253906,-0.78204346,-0.7539673,-23.09375,11.5,-8.609375
1664378257481,0.50683594,-1.1709595,-0.87506104,-33.265625,11.03125,-18.671875
1664378257540,0.8745117,-1.3245239,-0.8804321,-53.0,-6.484375,-18.296875
1664378257570,0.6557617,-1.1021118,-0.5459595,-72.71875,-10.96875,-35.0625
1664378257599,0.07763672,-0.82476807,-0.11553955,-35.875,5.1875,-35.6875
1664378257645,0.13354492,-0.690979,-0.13067627,-39.515625,-5.1875,-12.28125
1664378257691,0.20141602,-0.7070923,-0.16558838,-39.3125,-18.21875,-19.203125
1664378257719,0.23339844,-0.9326782,-0.16314697,-37.453125,-9.515625,-18.859375
1664378257765,0.2536621,-1.0342407,-0.14654541,-27.28125,-4.8125,-13.046875
1664378257811,0.26098633,-0.9624634,-0.13897705,-9.6875,-8.59375,-9.234375
1664378257840,0.13769531,-0.99468994,-0.097473145,-1.703125,1.203125,-4.0625
1664378257930,0.19580078,-1.0054321,-0.12261963,8.5,-0.0625,0.671875
1664378257933,0.1328125,-0.9397583,-0.11236572,15.796875,-2.03125,4.03125
1664378257961,0.1159668,-0.9500122,-0.113586426,19.546875,0.328125,7.109375
1664378257989,0.14355469,-0.9898071,-0.15386963,20.0625,-3.09375,10.671875
1664378258052,0.13427734,-1.0020142,-0.1638794,30.953125,-1.0,15.6875
1664378258080,0.19189453,-0.9619751,-0.20172119,34.53125,3.046875,18.390625
1664378258110,0.22680664,-0.94659424,-0.25177002,46.78125,9.40625,24.796875
1664378258172,0.34277344,-0.9561157,-0.36114502,58.234375,15.53125,25.640625
1664378258184,0.43652344,-0.9846802,-0.54815674,54.34375,9.5,22.109375
1664378258230,0.14575195,-0.7485962,-0.51763916,34.484375,2.890625,19.21875
1664378258291,0.32470703,-0.67852783,-0.4968872,64.890625,18.46875,18.609375
1664378258305,0.34399414,-0.866272,-0.69244385,31.71875,5.859375,17.71875
1664378258364,0.53271484,-0.49786377,-0.7871704,28.34375,-4.546875,8.984375
1664378258410,0.32983398,-0.548645,-0.86505127,26.328125,-1.53125,11.25
1664378258425,0.55566406,-0.5159302,-0.9458618,30.59375,3.28125,16.40625
1664378258471,0.673584,-0.48638916,-1.0830688,22.96875,-2.375,17.828125
1664378258530,0.6164551,-0.5508423,-1.0620728,3.484375,-14.296875,24.640625
1664378258544,0.5263672,-0.5928345,-0.9771118,-3.578125,3.3125,15.609375
1664378258590,0.54345703,-0.6658325,-0.9404907,-10.359375,9.125,18.546875
1664378258621,0.6032715,-0.40167236,-0.9402466,-22.390625,1.28125,8.71875
1664378258680,0.75097656,-0.50323486,-0.99664307,-23.46875,4.5,11.796875
1664378258709,0.51123047,-0.65411377,-0.9038696,-27.40625,11.390625,-8.484375
1664378258739,0.33984375,-0.5923462,-0.7979126,-35.78125,13.3125,-3.796875
1664378258786,0.41845703,-0.5401001,-0.64508057,-41.09375,22.359375,-8.171875
1664378258829,0.24609375,-0.6375122,-0.5772095,-44.171875,31.140625,-5.59375
1664378258860,0.083496094,-0.5120239,-0.52349854,-58.9375,33.578125,-5.28125
1664378258905,0.045166016,-0.33746338,-0.4307251,-58.953125,44.921875,-4.890625
1664378258950,-0.068115234,-0.50445557,-0.4758911,-56.3125,54.390625,12.203125
1664378258979,0.0068359375,-0.5274048,-0.4956665,-55.421875,54.359375,11.25
1664378259024,0.14477539,-0.5339966,-0.49224854,-45.90625,52.734375,13.84375
1664378259069,0.042236328,-0.6021118,-0.49371338,-44.828125,52.046875,18.53125
1664378259099,-0.14404297,-0.6773071,-0.49761963,-43.59375,57.90625,13.546875
1664378259145,-0.16918945,-0.67852783,-0.52178955,-40.765625,65.828125,15.984375
1664378259189,-0.0024414062,-0.66363525,-0.6021118,-41.078125,62.546875,10.546875
1664378259220,0.044921875,-0.83599854,-0.64923096,-35.9375,60.546875,4.828125
1664378259250,0.3544922,-0.89630127,-0.6116333,-21.984375,65.515625,15.421875
1664378259310,0.5390625,-0.8843384,-0.43536377,-21.765625,69.875,14.34375
1664378259340,0.14672852,-1.211731,-0.2666626,-34.890625,80.53125,15.578125
1664378259370,0.24145508,-1.1270142,-0.44732666,-23.703125,89.03125,33.703125
1664378259429,0.3461914,-0.6983032,-0.3255005,-13.5625,80.359375,22.90625
1664378259460,-0.15112305,-0.9468384,-0.27960205,-15.765625,81.3125,20.8125
1664378259490,-0.052490234,-0.9014282,-0.44122314,-18.109375,89.5,27.65625
1664378259550,0.11352539,-0.7503052,-0.4517212,-16.6875,99.6875,26.09375
1664378259580,-0.0146484375,-0.91241455,-0.41290283,-17.078125,108.328125,27.078125
1664378259613,0.1550293,-0.8604126,-0.38238525,-11.796875,111.390625,30.765625
1664378259671,0.106933594,-0.84869385,-0.40338135,-9.328125,110.296875,27.125
1664378259685,0.22241211,-0.9378052,-0.44537354,-8.984375,103.078125,31.515625
1664378259744,0.017333984,-1.0222778,-0.49713135,-4.34375,102.90625,27.0
1664378259790,0.037109375,-0.81207275,-0.6880493,5.3125,104.484375,45.609375
1664378259804,0.29296875,-0.7385864,-0.5808716,1.4375,83.015625,30.328125
1664378259851,0.18237305,-1.0022583,-0.51275635,-7.078125,61.296875,16.609375
1664378259911,-0.26171875,-1.0740356,-0.35723877,-9.96875,79.078125,25.125
1664378259925,0.043701172,-0.92193604,-0.43121338,-20.046875,77.53125,30.546875
1664378259973,0.22070312,-0.85723877,-0.40631104,-24.921875,62.515625,22.140625
1664378260030,-0.20458984,-0.91534424,-0.33795166,-20.734375,62.84375,15.421875
1664378260045,-0.19360352,-0.83721924,-0.4343872,-18.671875,65.84375,20.453125
1664378260091,-0.18408203,-0.8303833,-0.48590088,-17.59375,74.25,13.734375
1664378260120,-0.09790039,-0.8977661,-0.42095947,-15.484375,85.03125,18.078125
1664378260165,-0.044677734,-0.88946533,-0.40875244,-26.921875,79.0,9.640625
1664378260211,0.107421875,-1.0501099,-0.39093018,-29.453125,62.3125,0.171875
1664378260240,0.43115234,-1.1209106,-0.24639893,-2.03125,66.75,5.421875
1664378260286,0.19165039,-0.81256104,-0.23101807,-12.109375,64.640625,9.59375
1664378260330,0.1484375,-1.2993774,-0.17852783,-11.296875,60.546875,11.375
1664378260360,0.24072266,-0.97906494,-0.14654541,-3.375,75.75,24.328125
1664378260406,-0.016357422,-0.862854,-0.10089111,-9.90625,81.0,21.90625
1664378260451,-0.068359375,-0.85357666,-0.089660645,-17.078125,71.40625,24.84375
1664378260480,0.18286133,-0.9319458,-0.22711182,-10.59375,61.078125,20.28125
1664378260526,-0.026855469,-1.1060181,-0.1375122,-9.0,75.171875,16.921875
1664378260573,0.033447266,-0.942688,-0.21148682,-11.84375,87.109375,29.546875
1664378260600,0.12011719,-0.91973877,-0.11798096,-6.296875,94.484375,31.6875
1664378260644,0.09399414,-0.8796997,-0.14385986,-16.046875,94.75,34.890625
1664378260691,0.14233398,-0.7493286,-0.20635986,-7.8125,96.34375,35.40625
1664378260720,0.08642578,-0.642395,-0.22003174,-14.0625,105.375,36.90625
1664378260750,0.09741211,-0.5281372,-0.41534424,-13.390625,100.640625,47.203125
1664378260810,0.6821289,-0.26715088,-0.55792236,14.453125,67.296875,69.296875
1664378260840,0.50341797,-0.6980591,-0.30889893,23.265625,57.796875,21.4375
1664378260870,-0.049804688,-1.052063,-0.3118286,25.578125,51.328125,45.453125
1664378260930,0.2368164,-0.42608643,-0.3032837,16.546875,55.25,50.703125
1664378260959,0.42871094,-0.4998169,-0.4277954,20.96875,32.984375,34.125
1664378260990,0.36035156,-0.6289673,-0.5562134,32.390625,25.875,41.140625
1664378261051,0.57373047,-0.42388916,-0.57110596,34.375,11.734375,37.78125
1664378261080,0.8220215,-1.0142212,-0.4998169,40.640625,23.484375,18.09375
1664378261110,-0.14624023,-0.72003174,-0.69903564,-16.328125,4.421875,26.546875
1664378261170,1.0446777,-0.46588135,-0.8225708,2.03125,10.453125,15.140625
1664378261185,0.79345703,-0.8225708,-0.7424927,-15.9375,4.828125,-4.46875
1664378261230,0.46240234,-0.6560669,-0.8093872,-30.71875,-1.421875,-5.484375
1664378261290,0.9550781,-0.89019775,-0.8682251,-44.59375,-9.6875,-4.828125
1664378261304,0.54663086,-1.890686,-0.94903564,-83.0625,-11.25,-32.109375
1664378261350,0.25878906,-1.1934204,-0.56695557,-35.765625,-5.984375,-37.734375
1664378261410,-0.0847168,-0.70098877,0.03753662,15.21875,29.65625,-58.390625
1664378261425,-0.2692871,-0.8242798,-0.013000488,7.921875,12.234375,-23.671875
1664378261471,0.11328125,-1.1091919,-0.12017822,-5.234375,2.734375,-27.140625
1664378261500,0.36279297,-1.0337524,-0.1921997,-15.140625,12.46875,-30.234375
1664378261545,-0.041748047,-1.0725708,-0.15875244,4.78125,16.765625,-13.8125
1664378261590,0.038085938,-0.98809814,-0.22198486,26.390625,21.75,-5.53125
1664378261622,0.16113281,-0.9483032,-0.36065674,45.390625,20.296875,2.65625
1664378261665,0.24023438,-0.83380127,-0.43048096,56.203125,2.859375,4.078125
1664378261710,0.12719727,-0.7124634,-0.4290161,50.84375,-13.6875,-3.1875
1664378261739,-0.010009766,-0.8999634,-0.57598877,61.046875,-24.375,3.78125
1664378261785,0.0029296875,-0.9627075,-0.6897583,55.75,-29.71875,7.046875
1664378261830,0.15332031,-0.79693604,-0.7756958,48.296875,-25.75,0.234375
1664378261860,0.05126953,-0.7542114,-0.9470825,41.0625,-24.421875,4.71875
1664378261905,0.45507812,-0.51934814,-1.0886841,42.78125,-24.09375,4.328125
1664378261951,0.40673828,-0.7752075,-1.2195435,41.09375,-15.328125,8.15625
1664378261980,0.7939453,-0.63409424,-1.2608032,33.953125,-23.265625,6.1875
1664378262025,0.7507324,-0.6194458,-1.0371704,10.359375,-30.265625,-0.671875
1664378262069,0.19165039,-0.7835083,-1.0078735,-17.921875,-20.0,-0.03125
1664378262100,0.61621094,-0.46099854,-0.9248657,-12.15625,4.609375,-0.546875
1664378262145,0.73291016,-0.6279907,-0.93096924,-15.171875,-4.765625,-11.0
1664378262190,0.6057129,-0.522522,-0.7625122,-24.8125,-16.328125,-23.15625
1664378262222,0.3334961,-0.48638916,-0.6062622,-28.859375,-8.453125,-30.265625
1664378262250,0.2770996,-0.35113525,-0.47686768,-23.921875,-11.03125,-30.484375
1664378262310,0.45458984,-0.28936768,-0.38604736,-16.59375,-26.75,-37.75
1664378262342,0.10107422,-0.45684814,-0.36871338,-29.03125,-28.265625,-45.4375
1664378262370,0.2536621,-0.39361572,-0.34429932,-18.328125,-25.109375,-41.609375
1664378262431,0.52612305,-0.47906494,-0.3357544,-11.21875,-38.40625,-41.765625
1664378262461,-0.030517578,-0.567688,-0.3057251,-17.9375,-31.0625,-35.265625
1664378262492,0.111083984,-0.64678955,-0.29156494,-5.4375,-20.1875,-24.765625
1664378262550,0.38916016,-0.8557739,-0.24249268,-11.390625,-26.5,-23.734375
1664378262581,0.20800781,-0.91290283,-0.24053955,-15.6875,-18.21875,-13.484375
1664378262610,0.29833984,-0.9102173,-0.23394775,-7.8125,-17.640625,-8.984375
1664378262669,0.3630371,-0.9402466,-0.23101807,-21.140625,-28.28125,-9.671875
1664378262685,0.3647461,-0.98931885,-0.395813,-32.0,-39.109375,-1.828125
1664378262731,0.54418945,-0.8255005,-0.5601196,-13.46875,-34.546875,0.796875
1664378262791,-0.18920898,-0.8960571,-0.33087158,-27.0625,4.125,-9.484375
1664378262805,-0.122802734,-0.86431885,-0.5725708,4.125,27.609375,0.875
1664378262850,0.4675293,-0.86505127,-0.35845947,12.375,7.125,-6.296875
1664378262910,0.041748047,-1.145813,-0.20587158,-13.328125,21.40625,-5.296875
1664378262924,-0.33911133,-0.93927,-0.30548096,-14.203125,44.5,4.5625
1664378262971,0.14355469,-0.8225708,-0.28204346,-11.71875,51.96875,8.703125
1664378263000,0.27026367,-0.7258911,-0.24859619,-8.640625,48.640625,13.171875
1664378263046,-0.041503906,-0.7703247,-0.30230713,-13.8125,38.21875,8.640625
1664378263092,0.1418457,-0.92633057,-0.26934814,-6.21875,27.515625,9.359375
1664378263120,0.123535156,-0.9680786,-0.16998291,-12.25,20.265625,5.953125
1664378263169,-0.12792969,-1.0952759,-0.19293213,-14.015625,17.453125,2.765625
1664378263210,-0.11450195,-1.2510376,-0.29327393,-22.65625,16.53125,0.84375
1664378263240,0.07519531,-1.5720825,-0.32403564,-33.25,20.078125,2.40625
1664378263285,-0.020996094,-1.3731079,-0.26812744,-46.84375,48.8125,7.28125
1664378263332,0.35766602,-0.3418579,-0.5772095,-7.140625,32.5625,20.203125
1664378263360,0.44140625,-0.35211182,-0.44000244,8.140625,19.515625,-19.171875
1664378263406,-0.2055664,-1.7556763,-0.30181885,-29.78125,10.25,-21.71875
1664378263450,0.3076172,-1.0198364,-0.38555908,-13.921875,38.890625,21.359375
1664378263480,0.068115234,-0.64508057,-0.22711182,-11.953125,54.40625,2.6875
1664378263526,-0.19384766,-0.87677,-0.14703369,-10.859375,48.75,11.59375
1664378263571,0.078125,-0.8430786,-0.19903564,-17.375,50.140625,11.875
1664378263601,0.21679688,-0.64556885,-0.14337158,-6.8125,52.84375,14.9375
1664378263647,0.34179688,-0.66729736,-0.101379395,7.03125,42.4375,18.390625
1664378263691,0.23217773,-0.8357544,-0.027893066,2.265625,25.265625,10.34375
1664378263721,-0.10424805,-1.0706177,-0.05718994,0.90625,16.859375,3.28125
1664378263750,0.27514648,-1.0352173,-0.06915283,-6.140625,11.3125,-0.515625
1664378263825,0.2746582,-1.3980103,-0.101623535,-2.53125,2.703125,-9.15625
1664378263840,-0.060058594,-1.5994263,-0.16900635,-23.78125,-6.796875,-23.15625
1664378263872,0.13256836,-1.1948853,-0.42852783,-4.828125,40.40625,20.53125
1664378263931,-0.08496094,-0.5952759,-0.45465088,-9.109375,58.59375,-13.296875
1664378263961,0.3017578,-1.3191528,-0.57818604,-21.03125,27.890625,21.03125
1664378263990,0.5361328,-1.1592407,-0.38848877,18.8125,25.796875,-7.5
1664378264052,-0.0053710938,-0.89727783,-0.14923096,11.203125,51.859375,6.953125
1664378264081,0.05029297,-0.6104126,-0.15753174,0.578125,49.015625,12.1875
1664378264110,0.030517578,-0.536438,-0.25152588,-5.890625,37.171875,4.515625
1664378264170,0.1328125,-0.5557251,-0.23101807,0.90625,21.578125,3.46875
1664378264186,0.032958984,-0.7671509,-0.18341064,-1.984375,14.34375,4.453125
1664378264230,0.053710938,-0.8596802,-0.15411377,-15.40625,10.421875,6.25
1664378264292,0.07519531,-0.8740845,-0.15875244,-6.765625,3.4375,-4.84375
1664378264305,-0.14160156,-1.2463989,-0.14849854,-18.859375,9.1875,1.21875
1664378264350,0.41479492,-1.7820435,0.04901123,-7.671875,12.140625,3.9375
1664378264410,-0.04248047,-1.6135864,0.0036010742,-30.671875,8.09375,-8.140625
1664378264425,-0.29174805,-0.86602783,-0.3977661,-31.9375,15.921875,12.3125
1664378264470,0.44580078,-0.27838135,-0.56085205,6.484375,29.875,8.765625
1664378264504,0.18261719,-1.2307739,-0.15411377,-6.21875,43.921875,-19.921875
1664378264546,-0.029541016,-1.1724243,-0.37042236,-12.0,41.640625,10.1875
1664378264589,0.21777344,-0.8945923,-0.24810791,-4.953125,71.484375,10.546875
1664378264636,-0.05053711,-1.0027466,-0.16485596,-8.71875,77.796875,13.453125
1664378264665,0.046142578,-0.8308716,-0.20831299,-10.0,80.296875,14.1875
1664378264711,0.18041992,-0.7632446,-0.20465088,-11.9375,82.53125,17.671875
1664378264742,0.08496094,-0.7119751,-0.15826416,-7.640625,85.25,14.75
1664378264785,0.08569336,-0.8399048,-0.15142822,-11.390625,91.40625,18.140625
1664378264830,0.064697266,-0.93341064,-0.19854736,-27.515625,91.578125,12.625
1664378264860,0.17285156,-0.92510986,-0.23394775,-22.125,97.40625,21.9375
1664378264905,0.30395508,-1.0264282,-0.27056885,-25.09375,105.6875,31.578125
1664378264951,0.68725586,-0.9817505,-0.33013916,-25.25,90.78125,47.28125
1664378264981,0.625,-0.73223877,-0.35845947,-1.71875,78.859375,42.65625
1664378265024,-0.10522461,-0.80596924,-0.54888916,23.578125,52.25,19.546875
1664378265070,-0.18286133,-1.4129028,-0.6399536,25.4375,63.3125,32.0
1664378265101,0.3786621,-0.97857666,-0.38067627,-0.8125,65.90625,21.671875
1664378265145,0.31982422,-0.8740845,-0.26446533,-15.84375,63.53125,20.625
1664378265190,0.036376953,-1.029602,-0.4295044,-5.78125,59.140625,13.125
1664378265219,0.28051758,-0.6873169,-0.42755127,-1.375,52.5625,15.28125
1664378265253,0.2590332,-0.68292236,-0.4307251,-3.28125,37.8125,10.484375
1664378265310,0.12988281,-0.8027954,-0.4265747,-0.484375,36.171875,15.5
1664378265341,0.38671875,-0.6345825,-0.4553833,-4.96875,30.984375,21.609375
1664378265371,0.5007324,-0.6790161,-0.4685669,6.5625,26.390625,23.59375
1664378265431,0.33374023,-0.6536255,-0.4920044,7.5,22.875,26.4375
1664378265461,0.4128418,-0.5745239,-0.472229,20.203125,23.671875,32.140625
1664378265490,0.5163574,-0.56695557,-0.45440674,23.390625,21.09375,33.65625
1664378265551,0.42041016,-0.9417114,-0.3201294,-0.578125,8.09375,32.5
1664378265613,0.5847168,-1.5628052,-0.34210205,18.1875,12.03125,27.03125
1664378265615,0.110839844,-1.0838013,-0.31451416,-11.46875,37.140625,21.859375
1664378265672,0.48291016,-0.736145,-0.5227661,16.5625,22.390625,32.109375
1664378265685,0.52490234,-0.9138794,-0.41314697,1.421875,23.609375,25.03125
1664378265731,0.27734375,-0.6721802,-0.4180298,7.96875,41.484375,19.125
1664378265790,0.3864746,-0.27398682,-0.43878174,26.234375,33.46875,29.0
1664378265805,0.47143555,-0.31524658,-0.4102173,27.390625,20.390625,23.703125
1664378265851,0.29467773,-0.41363525,-0.3196411,22.078125,7.640625,13.5
1664378265911,0.0087890625,-0.26397705,-0.39727783,40.875,11.640625,11.953125
1664378265925,0.3581543,0.062438965,-0.77178955,5.40625,-27.453125,14.234375
1664378265971,0.41967773,-0.7632446,-0.644104,15.546875,-18.078125,0.515625
1664378266000,0.2355957,-1.0125122,-0.90997314,-1.65625,11.015625,-3.09375
1664378266048,0.8046875,-0.062072754,-0.6109009,12.09375,-5.40625,-0.609375
1664378266091,0.3720703,-0.47247314,-0.835022,2.421875,-15.0625,-9.515625
1664378266123,0.41259766,-0.62945557,-0.78912354,-5.859375,-2.125,-11.390625
1664378266166,0.57714844,-0.39263916,-0.8049927,-10.5,-4.578125,-19.375
1664378266212,0.51464844,-0.54107666,-0.83551025,-8.828125,4.9375,-12.90625
1664378266240,0.6386719,-0.7642212,-1.0247192,-17.8125,8.8125,-18.953125
1664378266286,0.65893555,-0.80718994,-0.9143677,-31.5,6.578125,-21.96875
1664378266331,0.50097656,-0.8291626,-0.9783325,-37.8125,0.0625,-21.40625
1664378266360,0.7397461,-1.0093384,-0.97125244,-48.796875,-13.109375,-9.390625
1664378266406,0.28686523,-0.85040283,-0.5601196,-40.203125,1.9375,-21.25
1664378266451,0.08178711,-0.78302,-0.44683838,-25.796875,6.21875,-17.765625
1664378266480,0.29907227,-0.7024536,-0.40631104,-25.71875,1.265625,-10.515625
1664378266526,0.2626953,-0.7698364,-0.37091064,-24.953125,-3.4375,-16.234375
1664378266571,0.25610352,-0.89727783,-0.4295044,-32.671875,-6.265625,-15.328125
1664378266601,0.3449707,-0.8491821,-0.40826416,-30.265625,-5.703125,-16.140625
1664378266649,0.4099121,-0.89849854,-0.40826416,-25.25,0.1875,-14.953125
1664378266691,0.40698242,-0.927063,-0.3796997,-23.0,-0.453125,-12.25
1664378266720,0.29711914,-0.87994385,-0.2576294,-21.03125,-1.3125,-13.84375
1664378266751,0.16137695,-0.8909302,-0.17022705,-18.4375,3.546875,-8.265625
1664378266813,0.20092773,-0.87628174,-0.2390747,-6.453125,0.53125,-2.078125
1664378266841,0.1850586,-0.9085083,-0.16998291,0.015625,1.828125,-1.53125
1664378266870,0.15429688,-0.96466064,-0.11016846,12.546875,9.765625,5.8125
1664378266930,0.2697754,-1.0298462,-0.11407471,16.9375,11.015625,4.5
1664378266960,0.103271484,-0.92315674,-0.19049072,16.375,3.109375,10.40625
1664378266991,0.13574219,-0.9434204,-0.21734619,29.015625,12.8125,18.546875
1664378267050,0.34716797,-1.0127563,-0.4102173,16.84375,6.234375,15.25
1664378267081,0.31396484,-0.81622314,-0.3994751,31.09375,1.390625,14.09375
1664378267110,0.18310547,-0.78790283,-0.394104,42.546875,6.109375,11.328125
1664378267171,0.36694336,-0.87677,-0.5396118,39.25,-0.3125,13.625
1664378267184,0.42993164,-0.6934204,-0.5772095,26.484375,-9.4375,3.484375
1664378267231,0.37573242,-0.6506958,-0.55596924,33.265625,-8.625,4.84375
1664378267290,0.30639648,-0.7337036,-0.56085205,24.5625,-8.390625,4.8125
1664378267305,0.40283203,-0.6560669,-0.5899048,22.90625,-12.1875,1.9375
1664378267350,0.37695312,-0.6494751,-0.63946533,30.828125,-5.9375,1.65625
1664378267413,0.43017578,-0.68634033,-0.7793579,33.90625,-2.40625,1.640625
1664378267425,0.54589844,-0.72076416,-0.90093994,39.171875,4.375,-1.890625
1664378267471,0.5830078,-0.83599854,-1.1223755,34.296875,-3.453125,8.921875
1664378267500,0.8964844,-0.76104736,-1.1712036,19.09375,-27.3125,10.40625
1664378267545,0.57958984,-0.87677,-0.9505005,16.71875,-18.765625,-2.703125
1664378267590,0.560791,-0.611145,-0.7998657,9.359375,-17.59375,-6.25
1664378267621,0.84594727,-0.69976807,-0.93756104,5.03125,-15.265625,-22.625
1664378267665,0.54345703,-0.7251587,-0.7866821,-10.328125,-14.1875,-29.578125
1664378267710,0.3232422,-0.6067505,-0.64508057,-8.03125,-9.0,-31.109375
1664378267739,0.3671875,-0.65948486,-0.55596924,-18.140625,2.390625,-34.390625
1664378267785,0.31811523,-0.49395752,-0.48345947,-25.390625,0.125,-32.125
1664378267846,0.119384766,-0.3694458,-0.4265747,-28.46875,1.765625,-30.65625
1664378267859,0.004638672,-0.39215088,-0.40777588,-31.046875,17.5,-22.640625
1664378267907,0.11669922,-0.5388794,-0.3887329,-37.25,26.28125,-12.0
1664378267951,0.06933594,-0.60723877,-0.4883423,-39.9375,24.765625,-4.25
1664378267980,-0.03125,-0.6465454,-0.48468018,-42.046875,40.28125,2.765625
1664378268025,-0.05883789,-0.70513916,-0.46783447,-43.359375,58.65625,5.703125
1664378268070,-0.21386719,-0.6668091,-0.411438,-45.609375,74.265625,10.046875
1664378268100,-0.20166016,-0.59991455,-0.5161743,-59.28125,80.375,18.90625
1664378268144,0.1899414,-0.6253052,-0.6482544,-58.25,73.46875,20.59375
1664378268190,0.41015625,-1.140686,-0.5388794,-49.546875,66.6875,1.96875
1664378268219,0.53686523,-0.9829712,-0.42681885,-21.171875,70.40625,22.078125
1664378268251,-0.765625,-0.72003174,-0.38336182,-15.0625,82.25,6.375
1664378268310,0.32495117,-0.7539673,-0.36358643,-13.125,76.203125,21.9375
1664378268340,0.7077637,-1.4065552,-0.32965088,-26.09375,78.265625,12.703125
1664378268372,2.4414062E-4,-0.91729736,-0.33917236,-8.109375,73.671875,27.28125
1664378268430,-0.030761719,-0.80133057,-0.22174072,2.28125,74.515625,22.0
1664378268461,-0.06738281,-1.0332642,-0.25201416,-13.171875,86.25,16.84375
1664378268490,0.009521484,-0.86431885,-0.36187744,-9.84375,99.046875,37.09375
1664378268550,0.3173828,-0.6777954,-0.3328247,-1.5,95.53125,26.28125
1664378268580,0.12158203,-0.8152466,-0.25811768,1.78125,93.375,25.625
1664378268611,0.11425781,-0.76348877,-0.33648682,3.15625,87.890625,28.765625
1664378268671,0.16308594,-0.95318604,-0.4595337,-0.703125,82.65625,24.296875
1664378268685,-0.04272461,-1.3494263,-0.6494751,-11.828125,91.09375,29.96875
1664378268732,0.104003906,-0.86309814,-0.64801025,3.515625,99.90625,48.25
1664378268791,-0.14233398,-0.7024536,-0.5498657,4.5,75.546875,39.40625
1664378268804,-0.03955078,-1.0247192,-0.3899536,-7.5,72.265625,14.21875
1664378268851,0.07861328,-1.0278931,-0.45977783,-8.15625,79.078125,33.28125
1664378268910,-0.068115234,-0.6970825,-0.41070557,-4.40625,78.265625,26.171875
1664378268925,-0.20336914,-0.79034424,-0.47833252,-7.78125,68.25,21.09375
1664378268970,0.02319336,-0.89068604,-0.43389893,-13.296875,66.703125,17.5
1664378269001,-0.123291016,-0.9180298,-0.39727783,-12.609375,69.578125,22.375
1664378269047,-0.04272461,-0.8015747,-0.5130005,-11.875,61.15625,25.703125
1664378269091,-0.014160156,-0.90753174,-0.39312744,-11.8125,65.90625,17.046875
1664378269120,-9.765625E-4,-1.0401001,-0.33135986,-18.609375,60.859375,21.328125
1664378269166,0.053466797,-0.89923096,-0.35821533,-30.296875,50.671875,22.71875
1664378269211,-0.17456055,-1.0567017,-0.3904419,-34.546875,53.359375,6.46875
1664378269240,-0.20019531,-0.94854736,-0.3093872,-20.65625,74.21875,13.5625
1664378269284,-0.06347656,-1.1211548,-0.46832275,-28.5,86.3125,2.4375
1664378269333,0.2529297,-1.1150513,-0.284729,-13.609375,79.25,22.5
1664378269360,0.15332031,-0.7822876,-0.19976807,-14.59375,73.09375,16.125
1664378269406,-0.28344727,-1.1223755,-0.23980713,-18.546875,85.578125,19.71875
1664378269465,0.2006836,-0.86553955,-0.26837158,-18.0,89.65625,22.625
1664378269481,0.03491211,-0.9168091,-0.11920166,-17.859375,93.671875,21.328125
1664378269527,-0.1340332,-0.9981079,-0.13580322,-19.671875,97.25,18.96875
1664378269571,-0.03955078,-1.0044556,-0.1404419,-11.734375,105.421875,17.96875
1664378269601,-0.011230469,-0.9258423,-0.19268799,-8.40625,111.59375,17.703125
1664378269660,0.0390625,-0.87506104,-0.24932861,-3.109375,112.96875,19.234375
1664378269689,0.21948242,-0.8779907,-0.32061768,-6.421875,110.234375,23.96875
1664378269721,0.17822266,-0.86383057,-0.27789307,-7.171875,108.75,22.0
1664378269751,0.07006836,-0.94366455,-0.40411377,-3.609375,113.578125,25.640625
1664378269810,0.31274414,-0.84625244,-0.4385376,0.21875,115.046875,40.3125
1664378269843,0.54003906,-0.85601807,-0.34283447,4.6875,92.09375,32.359375
1664378269870,0.12524414,-0.95098877,-0.45758057,2.03125,68.203125,29.90625
1664378269931,0.07104492,-1.0459595,-0.4229126,23.765625,61.5,19.640625
1664378269963,-0.03930664,-0.9883423,-0.23345947,9.640625,60.859375,18.34375
1664378269991,9.765625E-4,-1.1380005,-0.38848877,-7.0625,69.3125,33.484375
1664378270051,0.37451172,-0.84503174,-0.37628174,-1.6875,61.234375,31.28125
1664378270081,0.12475586,-0.73223877,-0.2930298,5.109375,50.25,26.109375
1664378270110,0.012207031,-0.75982666,-0.3953247,5.515625,46.046875,34.65625
1664378270171,0.34985352,-0.6121216,-0.4500122,22.828125,41.0,41.0
1664378270202,0.29541016,-0.5967407,-0.41314697,26.84375,36.359375,31.9375
1664378270230,0.27685547,-0.6265259,-0.42022705,38.75,29.71875,42.25
1664378270292,0.32202148,-0.6087036,-0.38336182,40.8125,19.390625,36.34375
1664378270305,0.24194336,-0.49761963,-0.3460083,41.5,19.75,37.171875
1664378270351,0.18261719,-0.4212036,-0.50616455,42.390625,3.015625,32.171875
1664378270410,0.19165039,-0.47174072,-0.33868408,36.78125,20.734375,26.796875
1664378270426,0.45239258,-0.46051025,-0.63604736,14.78125,-8.09375,26.25
1664378270470,0.6254883,-0.5171509,-0.5671997,18.484375,-17.890625,4.8125
1664378270500,0.064208984,-0.7178345,-0.5857544,12.484375,-8.96875,2.421875
1664378270545,0.58154297,-0.6856079,-0.7959595,10.5,0.109375,16.5625
1664378270591,0.7871094,-0.49591064,-0.80670166,-6.75,-5.625,3.84375
1664378270620,0.5847168,-0.6304321,-0.8665161,-4.0,-2.46875,4.84375
1664378270666,0.7084961,-0.692688,-0.8430786,-11.125,-2.171875,5.390625
1664378270710,0.7404785,-0.51763916,-0.9834595,-22.953125,-0.734375,5.109375
1664378270740,0.76416016,-0.76153564,-0.9788208,-29.421875,2.890625,-4.859375
1664378270785,0.6711426,-1.0542603,-0.85821533,-50.75,-5.5,1.03125
1664378270860,0.54711914,-0.9817505,-0.80059814,-42.625,-6.6875,-14.765625
1664378270861,0.27270508,-0.72052,-0.5796509,-17.59375,-7.21875,-18.671875
1664378270905,0.32666016,-0.6255493,-0.38848877,-18.171875,-8.359375,-20.734375
1664378270951,0.060546875,-0.7971802,-0.28936768,-27.6875,9.546875,-17.203125
1664378270980,0.36132812,-0.7319946,-0.3262329,0.28125,-3.625,-14.34375
1664378271026,0.26660156,-1.0042114,-0.44659424,23.625,6.984375,-6.15625
1664378271069,0.5708008,-1.1030884,-0.46343994,26.671875,9.515625,6.484375
1664378271101,0.25585938,-1.0234985,-0.34283447,15.96875,12.265625,-3.078125
1664378271144,0.12451172,-0.8814087,-0.32208252,33.390625,11.125,3.1875
1664378271190,0.19555664,-0.862854,-0.46246338,35.4375,8.703125,4.625
1664378271221,0.4584961,-0.909729,-0.76226807,42.8125,6.421875,-1.109375
1664378271250,0.44555664,-0.97125244,-0.928772,39.140625,0.75,-3.921875
1664378271311,0.529541,-0.7659302,-1.1511841,29.046875,-4.734375,4.1875
1664378271339,0.8312988,-0.6174927,-1.0508423,27.703125,-15.5,-4.578125
1664378271371,0.48632812,-0.6536255,-1.0134888,9.328125,-29.5,-14.21875
1664378271430,0.74194336,-0.62091064,-0.9819946,15.40625,-26.890625,-4.359375
1664378271460,0.65063477,-0.69854736,-0.99346924,-0.5,-16.9375,-21.78125
1664378271491,0.6586914,-0.5498657,-0.90289307,-7.40625,-25.203125,-23.1875
1664378271550,0.5029297,-0.663147,-0.7385864,-12.890625,-24.4375,-32.234375
1664378271611,0.34545898,-0.6140747,-0.5811157,-18.421875,-17.84375,-29.578125
1664378271615,0.36376953,-0.47491455,-0.4492798,-23.65625,-16.15625,-37.640625
1664378271670,0.35424805,-0.29766846,-0.39068604,-19.984375,-18.390625,-36.15625
1664378271684,0.34399414,-0.30010986,-0.41558838,-13.15625,-26.296875,-34.109375
1664378271731,0.26635742,-0.39801025,-0.33721924,-8.75,-31.640625,-38.671875
1664378271794,0.13085938,-0.4595337,-0.24224854,-10.03125,-29.0625,-40.609375
1664378271805,0.19165039,-0.42364502,-0.21246338,-9.5,-31.1875,-39.546875
1664378271850,0.3347168,-0.5418091,-0.2942505,-6.265625,-41.671875,-33.671875
1664378271911,0.30444336,-0.6470337,-0.25787354,-6.09375,-48.796875,-34.0
1664378271924,0.2841797,-0.7810669,-0.25445557,-0.921875,-44.3125,-27.53125
1664378271970,0.26782227,-0.8052368,-0.28692627,-1.875,-39.3125,-23.125
1664378272000,0.36889648,-0.8765259,-0.3796997,1.0,-34.484375,-18.796875
1664378272045,0.18408203,-0.9380493,-0.40802002,25.03125,-6.671875,-4.40625
1664378272090,0.3244629,-0.48614502,-0.6524048,9.96875,-30.125,4.25
1664378272122,0.19262695,-0.85113525,-0.4932251,20.765625,-28.703125,-15.15625
1664378272165,0.78930664,-1.3042603,-0.6358032,44.046875,-29.390625,11.75
1664378272211,0.083740234,-0.8320923,-0.51885986,18.234375,-8.4375,-8.28125
1664378272240,0.22216797,-0.44073486,-0.5120239,31.90625,-16.546875,11.671875
1664378272285,0.24926758,-0.55670166,-0.48028564,32.515625,-15.546875,8.234375
1664378272330,0.15332031,-0.53692627,-0.4961548,37.96875,-22.34375,2.484375
1664378272360,0.5031738,-0.4866333,-0.57159424,40.109375,-35.453125,15.015625
1664378272406,0.3503418,-0.38775635,-0.4644165,54.90625,-28.140625,6.046875
1664378272451,0.122558594,-0.22589111,-0.46124268,63.859375,-40.078125,-1.5
1664378272481,0.22802734,-0.6668091,-0.33746338,47.96875,-24.71875,11.875
1664378272525,0.92871094,-0.98443604,-0.56256104,29.9375,-18.296875,2.09375
1664378272571,0.45654297,-0.6567993,-0.50372314,12.75,0.171875,-9.953125
1664378272601,0.4650879,-0.59991455,-0.65582275,6.671875,-9.515625,2.71875
1664378272647,0.9008789,-0.63653564,-0.52667236,-2.1875,-0.390625,-7.0625
1664378272690,0.42871094,-0.6362915,-0.51934814,-25.03125,1.40625,-25.921875
1664378272721,0.29541016,-0.63946533,-0.50201416,-25.828125,-0.671875,-25.5625
1664378272751,0.64160156,-0.5100708,-0.49591064,-34.625,-1.59375,-32.421875
1664378272810,0.31298828,-0.5967407,-0.5137329,-54.921875,-2.4375,-38.1875
1664378272839,0.3930664,-0.6201782,-0.45880127,-55.609375,-2.046875,-37.875
1664378272871,0.39892578,-0.61016846,-0.42974854,-65.15625,-5.140625,-41.765625
1664378272930,0.31323242,-0.73321533,-0.440979,-65.625,-12.46875,-34.328125
1664378272962,0.4501953,-0.99542236,-0.2185669,-39.59375,2.390625,-38.96875
1664378272990,0.19091797,-1.010315,-0.25201416,-50.828125,4.953125,-40.015625
1664378273051,0.2097168,-1.0386353,-0.18292236,-32.421875,6.0625,-30.875
1664378273081,0.25805664,-1.0891724,-0.2642212,-23.0,8.078125,-26.0
1664378273146,0.2722168,-1.0435181,-0.17926025,-15.28125,-2.28125,-22.4375
1664378273170,0.19360352,-1.1177368,-0.08721924,-37.671875,-10.71875,-19.03125
1664378273186,-0.13696289,-1.468811,-6.1035156E-5,-26.03125,-7.890625,-20.34375
1664378273232,0.011962891,-2.0,-0.047424316,-24.953125,8.46875,-28.671875
1664378273291,-0.10229492,-1.6375122,0.2658081,-74.390625,20.046875,-36.359375
1664378273305,0.019042969,-1.1812134,0.23114014,-79.671875,-11.234375,-34.078125
1664378273352,-0.30493164,-0.87677,0.19329834,-92.328125,-18.3125,-29.78125
1664378273425,-0.0390625,-0.6880493,0.12591553,-58.84375,-12.9375,-26.3125
1664378273471,0.32055664,-0.5042114,0.3348999,-99.078125,-15.625,-20.4375
1664378273476,-0.32470703,-0.70025635,0.39935303,-31.90625,-11.125,-18.859375
1664378273501,-0.0925293,-0.6782837,0.27020264,-39.234375,13.046875,-13.671875
1664378273546,0.026611328,-0.6741333,0.47601318,-34.515625,-1.046875,-6.171875
1664378273591,-0.47338867,-1.0508423,0.49700928,-37.34375,14.46875,-6.375
1664378273621,-0.6411133,-0.8748169,0.88739014,-37.5,33.453125,-3.859375
1664378273665,0.099365234,-0.74884033,0.8566284,-38.375,37.046875,-0.234375
1664378273711,-0.21020508,-0.581604,0.83465576,-46.4375,8.09375,-13.625
1664378273741,0.5805664,-0.20758057,0.730896,-16.1875,-32.328125,-23.828125
1664378273786,-1.1298828,-0.56207275,1.140564,-18.484375,-43.5,-23.578125
1664378273830,-0.58447266,-0.85284424,0.82073975,-29.421875,-4.109375,-22.078125
1664378273861,0.19824219,-0.3147583,1.0719604,-7.546875,4.703125,-30.140625
1664378273906,-0.4140625,-0.28668213,0.8451538,-4.5,-15.796875,-13.5
1664378273951,-0.3503418,-0.42364502,0.99554443,14.578125,10.265625,-14.890625
1664378273980,-0.37524414,-0.38458252,0.7514038,13.875,9.125,0.90625
1664378274027,-0.19116211,-0.4319458,1.0368042,29.015625,14.609375,-8.265625
1664378274072,-0.48779297,-0.5442505,0.74871826,3.5625,4.03125,1.59375
1664378274101,-0.22216797,-0.40631104,1.0441284,15.15625,-1.703125,-6.546875
1664378274145,-0.5270996,-0.39385986,0.6732788,-7.4375,-4.703125,0.21875
1664378274192,-0.24511719,-0.40899658,0.8353882,4.640625,3.1875,-3.046875
1664378274220,-0.4326172,-0.37042236,0.7189331,1.90625,4.921875,0.1875
1664378274251,-0.32885742,-0.45635986,0.9411011,10.390625,17.40625,-0.15625
1664378274310,-0.18847656,-0.47955322,0.80999756,1.140625,-4.765625,8.984375
1664378274371,-0.20874023,-0.39849854,0.7770386,25.265625,10.859375,11.546875
1664378274400,-0.44921875,-0.65753174,0.8629761,10.4375,8.78125,10.78125
1664378274460,-0.27856445,-0.6399536,0.89520264,6.765625,15.828125,15.609375
1664378274462,-0.36938477,-0.60650635,0.84954834,19.125,16.8125,20.390625
1664378274498,-0.3095703,-0.6135864,0.9411011,-0.46875,15.3125,24.21875
1664378274551,-0.15478516,-0.6104126,0.7543335,46.25,10.6875,26.3125
1664378274581,-0.05834961,-0.65875244,0.6876831,39.375,14.96875,25.3125
1664378274610,-0.37329102,-0.786438,0.5512085,44.078125,44.625,35.078125
1664378274671,0.26391602,-0.9590454,0.746521,61.359375,48.9375,32.9375
1664378274686,0.048095703,-1.0623169,0.545105,52.046875,56.734375,25.59375
1664378274730,0.25317383,-1.0991821,0.5741577,62.5625,30.84375,11.28125
1664378274792,0.115478516,-0.9019165,0.27386475,63.9375,31.21875,12.328125
1664378274805,0.15625,-0.80133057,0.117614746,61.390625,40.515625,17.203125
1664378274851,0.46948242,-0.815979,0.29266357,66.609375,23.0,16.203125
1664378274911,0.19580078,-0.8887329,0.045837402,42.03125,19.25,18.65625
1664378274940,0.42285156,-0.8179321,0.25164795,64.703125,11.984375,26.234375
1664378274970,0.14794922,-0.8591919,0.02508545,46.34375,3.375,18.8125
1664378275001,0.42114258,-0.84625244,-0.19561768,65.34375,-1.359375,28.3125
1664378275046,0.7861328,-0.78619385,-0.16143799,56.96875,-28.0625,19.46875
1664378275090,0.30859375,-0.83380127,-0.0960083,61.84375,-29.78125,23.328125
1664378275122,0.25097656,-0.9092407,-0.23614502,59.734375,-36.140625,23.09375
1664378275165,0.51538086,-0.6782837,-0.2498169,54.15625,-34.828125,20.65625
1664378275211,0.35180664,-0.6760864,-0.21026611,45.515625,-36.71875,16.125
1664378275240,0.25756836,-0.81451416,-0.17681885,52.953125,-22.640625,11.421875
1664378275286,0.3774414,-0.77911377,-0.21710205,45.015625,-17.171875,21.8125
1664378275330,0.46923828,-0.8674927,-0.030090332,54.453125,10.765625,14.8125
1664378275360,0.38598633,-0.9949341,-0.36920166,37.09375,9.296875,23.765625
1664378275406,0.4494629,-0.74713135,-0.51226807,8.640625,-8.40625,19.890625
1664378275450,0.6032715,-0.53912354,-0.47735596,27.671875,-7.75,17.8125
1664378275481,0.38916016,-0.68707275,-0.57647705,40.1875,-1.390625,30.015625
1664378275525,1.0749512,-0.41607666,-0.45513916,39.078125,2.328125,22.96875
1664378275570,0.6203613,-0.5183716,-0.9873657,23.625,5.984375,20.359375
1664378275600,1.1960449,-0.34405518,-0.8496704,5.453125,33.9375,8.015625
1664378275646,1.0432129,0.0038452148,-0.53692627,9.0,7.46875,-0.046875
1664378275690,0.44921875,0.1461792,-0.80426025,44.71875,-4.703125,19.03125
1664378275720,0.9760742,-0.25006104,-0.92633057,41.078125,20.796875,20.5
1664378275753,1.0148926,-0.15020752,-0.47808838,30.890625,21.28125,12.421875
1664378275811,0.5349121,-0.09454346,-0.7119751,15.03125,9.109375,12.359375
1664378275855,0.46704102,-0.17095947,-0.58721924,25.9375,2.75,8.25
1664378275870,1.0505371,0.054138184,-0.88116455,9.765625,2.921875,6.9375
1664378275931,1.0307617,0.10028076,-0.85601807,4.90625,-18.765625,-12.34375
1664378275960,0.43115234,-0.0025024414,-0.64801025,10.484375,-6.78125,-11.703125
1664378275991,0.36279297,-5.493164E-4,-0.6445923,9.34375,-9.671875,-1.046875
1664378276051,0.74121094,0.022644043,-0.78204346,12.953125,-4.40625,-2.546875
1664378276081,0.7475586,-0.0010375977,-0.5877075,-3.921875,-2.078125,4.75
1664378276114,0.6994629,-0.049621582,-0.7305298,-7.53125,-2.046875,-9.1875
1664378276171,0.6928711,0.08343506,-0.6777954,-5.546875,-14.015625,5.5625
1664378276188,1.0241699,-0.003479004,-0.6213989,-3.28125,-9.1875,-14.015625
1664378276232,0.56152344,-0.07745361,-0.5845337,-13.796875,-16.15625,-3.90625
1664378276291,0.9326172,0.18817139,-0.5774536,-7.75,-24.953125,0.5625
1664378276305,0.71313477,0.009216309,-0.61553955,-10.578125,-14.734375,-3.890625
1664378276365,0.84106445,-0.035705566,-0.5137329,11.4375,-13.1875,-3.90625
1664378276411,0.7832031,-0.07867432,-0.60894775,5.484375,-11.3125,-7.859375
1664378276425,0.9333496,-0.10430908,-0.55548096,8.328125,-9.625,-18.359375
1664378276471,0.7019043,-0.36016846,-0.48443604,5.59375,-0.265625,-21.84375
1664378276500,0.44140625,-0.5310669,-0.76934814,16.359375,-11.65625,-12.71875
1664378276549,0.9042969,-0.23834229,-0.9343872,13.28125,18.625,-8.578125
1664378276591,0.8925781,-0.54815674,-0.7271118,4.09375,30.953125,-20.59375
1664378276622,0.64624023,-0.53375244,-0.9649048,-13.53125,-2.890625,-15.359375
1664378276665,0.57177734,-0.60357666,-0.71661377,-31.78125,4.71875,-12.5
1664378276725,0.94433594,-0.40167236,-0.9429321,7.15625,4.84375,-0.3125
1664378276740,0.8249512,-0.4006958,-0.79815674,-7.546875,19.140625,0.90625
1664378276789,0.68237305,-0.4812622,-0.7901001,3.953125,24.921875,-1.046875
1664378276831,0.6477051,-0.47906494,-0.8428345,-11.6875,12.625,23.921875
1664378276860,0.99780273,-0.5757446,-0.6651001,-17.359375,36.265625,7.28125
1664378276906,0.6381836,-0.68414307,-0.7214966,-13.765625,31.71875,16.75
1664378276965,0.85791016,-0.50177,-0.6409302,-26.625,16.6875,5.796875
1664378276981,0.43969727,-0.47686768,-0.60040283,-31.765625,21.421875,2.96875
1664378277026,0.48266602,-0.5733032,-0.6838989,-25.109375,12.21875,7.390625
1664378277071,0.6750488,-0.52716064,-0.6734009,-36.796875,11.65625,13.609375
1664378277101,0.70825195,-0.62628174,-0.835022,-46.421875,37.265625,11.984375
1664378277146,0.15551758,-0.519104,-0.3303833,-63.015625,24.234375,-7.65625
1664378277191,0.123291016,-0.5388794,-0.59039307,-58.75,29.34375,2.625
1664378277219,0.33666992,-0.55670166,-0.39068604,-77.0625,37.640625,-9.46875
1664378277250,0.06982422,-0.4500122,-0.5183716,-70.234375,30.25,-9.890625
1664378277311,0.4152832,-0.24737549,-0.6084595,-52.078125,34.5,5.59375
1664378277340,0.44360352,-0.62823486,-0.52178955,-98.890625,46.796875,-6.71875
1664378277371,0.11401367,-0.65704346,-0.36236572,-68.125,37.578125,-19.078125
1664378277430,0.33618164,-0.7112427,-0.32818604,-36.21875,42.59375,-2.046875
1664378277461,0.24975586,-0.70928955,-0.25689697,-42.515625,44.015625,-1.859375
1664378277489,0.27319336,-0.65704346,-0.20855713,-34.609375,52.640625,-7.4375
1664378277551,0.11254883,-0.96759033,-0.2000122,-12.609375,40.765625,-11.546875
1664378277582,0.045654297,-0.9221802,-0.27716064,-37.59375,47.875,-4.75
1664378277610,0.18310547,-0.69610596,-0.36236572,-19.609375,47.15625,14.046875
1664378277670,0.41503906,-0.9468384,-0.37139893,-16.46875,56.609375,16.109375
1664378277730,0.10888672,-0.9924927,-0.4024048,-1.375,69.625,16.609375
1664378277733,-0.27001953,-0.85650635,-0.5532837,-9.28125,79.609375,31.09375
1664378277792,0.32592773,-0.95928955,-0.57232666,-21.296875,70.21875,18.4375
1664378277805,0.071777344,-0.88067627,-0.37677002,-26.390625,62.171875,11.53125
1664378277850,-0.14257812,-1.0491333,-0.3057251,-18.65625,66.328125,12.65625
1664378277911,0.036865234,-0.89434814,-0.24932861,-25.203125,72.8125,18.796875
1664378277925,0.10498047,-0.9116821,-0.32574463,-24.90625,62.375,14.015625
1664378277970,0.025390625,-0.8845825,-0.34381104,-16.640625,54.71875,10.5
1664378278000,-0.037597656,-0.94488525,-0.2810669,-20.3125,60.171875,10.15625
1664378278045,-0.1328125,-0.94317627,-0.2119751,-15.078125,57.296875,5.796875
1664378278090,-0.15600586,-0.98028564,-0.23394775,-21.484375,60.09375,5.203125
1664378278120,-0.17749023,-0.9319458,-0.2966919,-26.015625,62.984375,1.6875
1664378278165,0.030273438,-0.96466064,-0.3789673,-24.96875,59.296875,-1.6875
1664378278210,0.22167969,-1.0059204,-0.28253174,-16.875,64.09375,8.078125
1664378278240,0.36694336,-1.1846313,-0.2715454,-5.40625,63.296875,7.71875
1664378278286,0.29882812,-0.98638916,-0.11212158,-12.765625,65.84375,11.4375
1664378278330,-0.0021972656,-1.0349731,-0.16168213,-23.0625,64.96875,13.078125
1664378278362,0.41748047,-0.9734497,-0.2185669,-8.328125,77.359375,20.8125
1664378278405,0.22241211,-0.9373169,0.04876709,-3.046875,71.703125,2.640625
1664378278451,-0.15942383,-0.9924927,-0.1350708,-3.328125,66.40625,13.375
1664378278479,0.34765625,-0.77545166,-0.18267822,2.984375,60.859375,19.59375
1664378278525,0.1616211,-0.98931885,-0.117492676,0.640625,49.8125,2.234375
1664378278570,-0.02709961,-1.0205688,-0.1482544,-3.734375,57.78125,10.109375
1664378278600,0.40625,-0.89068604,-0.16802979,-4.109375,57.5,13.359375
1664378278646,0.057617188,-1.020813,-0.121154785,-11.78125,55.640625,0.828125
1664378278693,0.19384766,-1.0176392,-0.09942627,-19.484375,59.296875,10.984375
1664378278720,0.15039062,-0.93170166,-0.1716919,-20.984375,52.875,1.53125
1664378278751,-0.17089844,-1.0813599,-0.39141846,-10.34375,56.484375,7.875
1664378278812,0.21386719,-0.9541626,-0.39117432,-0.328125,64.0625,21.734375
1664378278839,0.07739258,-0.85406494,-0.28375244,-11.03125,48.0625,4.34375
1664378278886,0.033203125,-1.2908325,-0.24224854,-6.3125,62.515625,7.296875
1664378278930,-0.005126953,-0.76763916,-0.27520752,-4.390625,65.109375,14.046875
1664378278960,-0.13232422,-0.85113525,-0.24664307,-4.640625,67.1875,6.015625
1664378278991,-0.16333008,-0.98028564,-0.33013916,-10.421875,72.515625,8.515625
1664378279050,-0.05029297,-0.97613525,-0.34991455,-16.953125,75.765625,9.765625
1664378279082,0.12768555,-1.0015259,-0.33477783,-16.484375,74.0,9.109375
1664378279111,-0.015380859,-0.97906494,-0.26861572,-23.0625,76.859375,4.15625
1664378279171,-0.12963867,-0.97857666,-0.27886963,-21.1875,81.125,3.828125
1664378279186,-0.032958984,-0.9192505,-0.32281494,-17.96875,71.390625,1.890625
1664378279233,0.07543945,-1.0474243,-0.26324463,-14.90625,69.875,-1.625
1664378279291,0.061523438,-0.954895,-0.19049072,-4.671875,79.15625,2.46875
1664378279307,-0.1809082,-1.0525513,-0.22784424,-2.609375,73.359375,-1.9375
1664378279352,0.14990234,-0.96954346,-0.23028564,-9.046875,72.71875,9.015625
1664378279410,0.37817383,-0.91973877,-0.17584229,-20.96875,66.453125,11.0625
1664378279425,0.2019043,-1.0872192,0.027038574,-18.75,66.765625,-2.0
1664378279472,0.23925781,-1.0117798,0.023132324,-14.609375,48.578125,9.453125
1664378279500,0.26586914,-0.86016846,0.005065918,-7.890625,42.828125,7.234375
1664378279546,-0.09472656,-0.9470825,0.045837402,-11.453125,49.484375,1.125
1664378279592,0.11010742,-1.0213013,-0.024719238,-6.625,50.4375,12.34375
1664378279621,0.083984375,-0.9697876,-0.011291504,2.109375,52.671875,6.4375
1664378279666,0.009521484,-1.0796509,0.047546387,4.1875,53.1875,8.0
1664378279726,0.2019043,-1.0010376,0.009216309,-19.40625,65.0,16.03125
1664378279740,0.14404297,-0.9026489,0.023620605,-9.0625,68.171875,1.5625
1664378279785,0.09326172,-0.9434204,-0.020568848,-19.3125,71.890625,10.65625
1664378279832,0.41186523,-1.0332642,0.13787842,-17.46875,64.25,8.21875
1664378279860,0.13745117,-1.0222778,-0.023254395,-18.8125,57.46875,8.953125
1664378279908,-0.16137695,-1.1113892,-0.2107544,-5.59375,70.28125,14.453125
1664378279952,0.25073242,-0.8574829,-0.1104126,-0.171875,85.703125,32.78125
1664378279980,0.14404297,-0.767395,-0.20172119,-6.46875,77.28125,21.390625
1664378280039,0.0871582,-1.079895,-0.23175049,-5.359375,72.34375,18.09375
1664378280071,0.18896484,-1.1187134,-0.19610596,-2.015625,70.203125,11.515625
1664378280100,0.140625,-0.972229,-0.15679932,-9.875,69.015625,9.53125
1664378280145,0.091552734,-1.0127563,-0.22906494,-9.453125,72.421875,10.796875
1664378280194,0.20947266,-0.9248657,-0.2786255,-17.15625,67.203125,13.546875
1664378280220,0.1809082,-0.9089966,-0.30621338,-13.890625,64.390625,11.421875
1664378280250,0.27075195,-0.91851807,-0.3242798,-12.953125,53.0,14.640625
1664378280311,0.15258789,-0.98516846,-0.33111572,-14.59375,54.09375,17.140625
1664378280343,0.24511719,-0.960022,-0.3484497,-16.140625,53.9375,19.171875
1664378280369,0.3425293,-0.8574829,-0.35162354,-11.796875,45.625,13.984375
1664378280431,0.27441406,-0.85601807,-0.34259033,-5.953125,37.828125,10.578125
1664378280491,0.2553711,-0.7930298,-0.29034424,0.4375,32.40625,8.984375
1664378280492,0.19702148,-0.66729736,-0.32769775,3.9375,22.515625,11.03125
1664378280551,0.43920898,-0.5899048,-0.031555176,19.828125,29.984375,18.078125
1664378280580,0.38305664,-0.86846924,0.016784668,-11.40625,18.84375,-0.765625
1664378280610,0.26660156,-1.3013306,-0.36846924,-6.0,48.09375,6.5
1664378280671,0.7631836,-0.91656494,-0.25030518,28.203125,33.125,41.015625
1664378280685,0.7932129,-0.5701294,-0.26348877,9.296875,17.03125,14.109375
1664378280730,0.51464844,-0.87457275,-0.19024658,16.625,15.390625,32.96875
1664378280794,0.3371582,-0.6694946,-0.14312744,41.890625,22.265625,20.921875
1664378280805,0.3125,-0.38433838,-0.253479,43.0,23.015625,34.703125
1664378280851,0.34765625,-0.2822876,-0.3189087,27.09375,13.828125,35.84375
1664378280911,0.3486328,-0.34820557,-0.56500244,29.3125,13.125,30.25
1664378280926,0.71240234,-0.5527954,-0.48590088,38.546875,-5.125,26.109375
1664378280971,0.18066406,-0.6880493,-0.45587158,8.90625,1.6875,-2.765625
1664378281000,0.45288086,-0.75909424,-0.6929321,52.703125,20.921875,42.140625
1664378281045,0.82177734,-0.5083618,-0.53448486,30.34375,-1.5,8.0
1664378281091,0.2644043,-0.6470337,-0.8640747,14.78125,-9.21875,3.890625
1664378281120,0.70581055,-0.46905518,-0.6526489,10.421875,7.59375,12.34375
1664378281165,0.68896484,-0.6084595,-0.7617798,3.046875,3.765625,-2.296875
1664378281209,0.5241699,-0.46417236,-0.8115845,-5.609375,3.265625,-2.546875
1664378281241,0.6203613,-0.33599854,-0.800354,-7.40625,-1.234375,-4.796875
1664378281285,0.6550293,-0.56134033,-0.8779907,-16.140625,-3.28125,-9.75
1664378281330,0.64868164,-0.5401001,-0.92926025,-14.140625,-9.890625,-19.1875
1664378281360,0.59594727,-0.68170166,-0.9746704,-1.875,-12.203125,-22.765625
1664378281405,0.8742676,-0.8587036,-1.0530396,-10.640625,-22.09375,-20.0
1664378281451,0.60375977,-1.0725708,-0.69244385,-17.90625,-13.4375,-33.515625
1664378281480,0.30639648,-0.9006958,-0.47906494,-11.5,-4.609375,-19.1875
1664378281526,0.44262695,-0.56207275,-0.3904419,-8.453125,0.0625,-22.5625
1664378281570,0.47070312,-0.565979,-0.4331665,-17.65625,-4.40625,-21.40625
1664378281600,0.31347656,-0.678772,-0.38726807,-22.015625,-6.65625,-19.265625
1664378281645,0.42089844,-0.7366333,-0.33721924,-33.015625,-4.75,-20.203125
1664378281691,0.38793945,-0.81622314,-0.3616333,-39.453125,-4.328125,-17.953125
1664378281723,0.36767578,-0.8718872,-0.33184814,-29.28125,1.75,-13.34375
1664378281750,0.49316406,-0.8753052,-0.2883911,-32.484375,6.921875,-12.109375
1664378281811,0.26049805,-0.92926025,-0.2210083,-18.953125,9.0,-4.921875
1664378281841,0.32617188,-0.9133911,-0.21685791,-14.796875,11.171875,-2.65625
1664378281870,0.23950195,-0.9776001,-0.22662354,-17.046875,11.71875,-6.28125
1664378281931,0.09375,-0.9307251,-0.1897583,9.171875,17.453125,-0.71875
1664378281960,0.28027344,-0.9343872,-0.15948486,20.3125,14.21875,5.78125
1664378281991,0.14257812,-0.9529419,-0.17633057,22.140625,7.75,7.703125
1664378282051,0.22973633,-0.86016846,-0.26861572,35.5,4.09375,12.25
1664378282065,0.44580078,-0.81427,-0.35430908,35.453125,3.3125,22.109375
1664378282112,0.30151367,-1.0591431,-0.37139893,40.171875,12.9375,12.921875
1664378282170,0.25341797,-0.9002075,-0.3086548,51.15625,22.15625,22.5625
1664378282185,0.4423828,-0.927063,-0.5701294,58.375,8.296875,15.046875
1664378282230,0.5437012,-0.769104,-0.84552,48.4375,1.015625,18.765625
1664378282290,0.5776367,-0.6448364,-0.89678955,38.765625,-0.390625,8.734375
1664378282306,0.49365234,-0.503479,-0.9031372,57.40625,8.921875,21.015625
1664378282354,0.6804199,-0.50372314,-1.05719,36.40625,-1.390625,25.015625
1664378282410,0.6179199,-0.57818604,-0.925354,33.875,-1.046875,18.9375
1664378282440,0.47216797,-0.38458252,-0.8609009,14.515625,-11.546875,16.90625
1664378282471,0.4753418,-0.17218018,-0.86968994,29.453125,3.84375,23.671875
1664378282500,0.61035156,-0.27471924,-0.89727783,29.921875,1.390625,14.296875
1664378282547,0.4326172,-0.31573486,-0.897522,10.078125,-4.671875,4.25
1664378282591,0.43603516,-0.23468018,-0.8257446,11.40625,9.3125,15.1875
1664378282621,0.42773438,-0.1572876,-0.767395,4.59375,13.96875,8.046875
1664378282667,0.42504883,-0.09454346,-0.741272,8.28125,10.53125,4.46875
1664378282711,0.33203125,-0.13092041,-0.6565552,4.953125,11.59375,9.90625
1664378282740,0.36645508,-0.023010254,-0.61138916,1.765625,9.125,10.375
1664378282786,0.28515625,6.713867E-4,-0.5491333,8.03125,5.0,13.421875
1664378282831,0.2692871,0.0072631836,-0.5689087,6.5,0.515625,9.765625
1664378282891,0.33251953,0.093933105,-0.64312744,-2.421875,-11.34375,9.625
1664378282906,0.34887695,0.16473389,-0.6013794,9.984375,-8.28125,27.515625
1664378282954,0.52612305,0.07611084,-0.6140747,22.421875,-9.578125,20.828125
1664378282980,0.22363281,-0.070373535,-0.6865845,17.65625,-19.328125,25.046875
1664378283026,0.31689453,-0.062561035,-0.6231079,32.453125,1.515625,23.890625
1664378283071,0.47680664,0.039978027,-0.69732666,31.703125,-11.203125,20.28125
1664378283101,0.28295898,-0.014221191,-0.6433716,20.390625,-12.46875,27.0
1664378283146,0.5842285,-0.22442627,-0.6860962,25.4375,-4.34375,18.1875
1664378283191,0.6948242,0.23114014,-0.958313,-13.6875,-29.390625,21.390625
1664378283220,0.71435547,-0.06524658,-0.78082275,6.78125,-14.265625,10.6875
1664378283251,0.5090332,-0.109436035,-0.89385986,-16.96875,-18.375,8.875
1664378283311,0.734375,0.15863037,-0.9873657,-18.421875,-17.28125,4.8125
1664378283340,0.73706055,0.046813965,-0.76275635,-2.25,-1.328125,9.203125
1664378283371,0.66381836,0.07220459,-0.83184814,-10.890625,6.09375,12.0625
1664378283430,0.6652832,0.12786865,-0.8377075,8.609375,17.828125,8.3125
1664378283491,0.5593262,0.046325684,-0.78619385,24.34375,19.4375,10.3125
1664378283494,0.5563965,0.04046631,-0.7761841,10.3125,23.890625,2.671875
1664378283551,0.46728516,0.031188965,-0.70025635,13.765625,26.046875,0.390625
1664378283566,0.49267578,0.18231201,-0.86798096,25.578125,30.203125,12.15625
1664378283612,0.5407715,0.16693115,-0.9055786,32.546875,25.78125,9.578125
1664378283671,0.5871582,0.2255249,-1.0408325,23.0,21.734375,8.515625
1664378283685,0.453125,0.11932373,-0.9512329,20.984375,9.640625,9.09375
1664378283745,0.43115234,0.17181396,-0.98638916,20.4375,3.375,8.109375
1664378283790,0.6064453,0.4389038,-1.6084595,-21.78125,-55.328125,-2.859375
1664378283808,0.63378906,0.1671753,-0.87457275,-64.390625,-53.984375,-36.375
1664378283851,0.25,0.20184326,-0.9163208,-36.984375,-12.078125,-21.71875
1664378283911,0.32836914,0.23138428,-0.97369385,-15.765625,20.796875,-8.09375
1664378283926,0.58447266,0.3595581,-0.786438,-27.21875,4.5625,-14.3125
1664378283970,0.76293945,0.37078857,-0.77960205,-26.703125,-14.921875,-5.328125
1664378284000,0.6640625,0.2946167,-0.755188,-21.015625,-13.28125,-14.890625
1664378284046,0.58203125,0.32073975,-0.7053833,-6.3125,-8.6875,-12.171875
1664378284090,0.52197266,0.25823975,-0.69317627,-2.5625,-4.25,-3.953125
1664378284121,0.61987305,0.1828003,-0.82354736,-5.140625,-5.125,-0.65625
1664378284166,0.611084,0.23480225,-0.68585205,6.734375,1.296875,-2.90625
1664378284211,0.6057129,0.17352295,-0.7932739,6.09375,-3.3125,7.765625
1664378284240,0.58154297,0.1539917,-0.71832275,7.765625,-0.671875,5.375
1664378284285,0.57592773,0.18621826,-0.82598877,-2.265625,-11.734375,12.5625
1664378284330,0.42114258,0.1984253,-0.611145,6.84375,6.75,17.828125
1664378284360,0.5830078,0.054870605,-0.56988525,15.921875,2.75,25.84375
1664378284406,0.58740234,-0.018615723,-0.7817993,-0.828125,-2.0625,16.234375
1664378284451,0.78344727,0.27557373,-0.9043579,32.84375,-10.078125,15.484375
1664378284481,0.7512207,0.52337646,-0.6555786,-0.875,6.734375,17.703125
1664378284525,0.18188477,-0.13702393,-1.0671997,29.828125,8.53125,6.109375
1664378284571,1.0966797,0.36444092,-0.7932739,22.5,5.625,19.09375
1664378284601,0.4724121,0.25335693,-0.79400635,5.359375,2.53125,5.265625
1664378284647,0.3791504,0.18109131,-0.84332275,19.78125,-5.34375,12.328125
1664378284690,0.62841797,0.3685913,-0.7246704,8.96875,3.703125,12.65625
1664378284720,0.5498047,0.33953857,-0.8748169,13.96875,7.484375,8.515625
1664378284751,0.5625,0.35321045,-0.80059814,6.4375,1.765625,7.109375
1664378284811,0.49780273,0.38250732,-0.7600708,10.359375,3.296875,6.1875
1664378284871,0.5419922,0.39398193,-0.76446533,5.09375,-3.609375,4.328125
1664378284875,0.41430664,0.38787842,-0.77349854,4.578125,0.75,6.03125
1664378284931,0.4946289,0.38128662,-0.8538208,0.171875,-8.375,3.890625
1664378284991,0.46875,0.63616943,-0.8460083,0.5625,-5.453125,1.0625
1664378284994,0.5439453,0.41693115,-0.71539307,12.375,1.328125,-13.0
1664378285051,0.37109375,0.59588623,-0.7913208,13.484375,5.296875,-6.921875
1664378285066,0.49047852,0.39642334,-0.71343994,33.875,16.71875,-31.6875
1664378285112,0.44506836,0.5206909,-0.6121216,35.71875,1.40625,-34.546875
1664378285171,0.6652832,0.5602417,-0.7307739,41.5,-12.15625,-49.5625
1664378285186,0.85058594,0.64593506,-0.7901001,54.34375,-30.921875,-59.40625
1664378285231,0.5715332,0.42156982,-0.52545166,51.3125,-23.609375,-63.453125
1664378285290,0.69189453,0.434021,-0.65338135,38.34375,-35.71875,-66.40625
1664378285305,0.6816406,0.4064331,-0.3184204,41.890625,-35.65625,-73.03125
1664378285351,0.66674805,0.2506714,-0.36260986,34.609375,-27.09375,-67.6875
1664378285426,0.81347656,0.29266357,-0.37457275,27.984375,-23.078125,-72.875
1664378285428,0.6894531,0.22015381,-0.26934814,28.953125,-15.203125,-70.859375
1664378285474,0.77905273,0.051940918,-0.3887329,21.1875,-8.28125,-65.78125
1664378285500,0.7714844,0.025817871,-0.2859497,25.25,-3.03125,-65.921875
1664378285546,0.8479004,-0.109191895,-0.37774658,31.59375,-11.53125,-62.78125
1664378285592,0.6425781,-0.20928955,-0.2144165,26.609375,-6.578125,-57.4375
1664378285621,0.93725586,-0.22320557,-0.32525635,23.84375,-17.421875,-54.328125
1664378285711,0.74121094,-0.33111572,-0.39971924,30.15625,-16.734375,-53.0625
1664378285713,0.875,-0.53009033,-0.35211182,19.46875,-17.453125,-52.21875
1664378285741,0.8388672,-0.50738525,-0.24224854,17.953125,-20.953125,-52.53125
1664378285787,0.8671875,-0.53326416,-0.33428955,11.375,-20.953125,-53.171875
1664378285831,0.72509766,-0.614563,-0.23272705,9.09375,-23.1875,-38.6875
1664378285860,0.8601074,-0.6069946,-0.30303955,3.0,-22.25,-28.0625
1664378285905,1.473877,-0.89068604,-0.489563,9.34375,-28.5625,-13.90625
1664378285952,0.90649414,-1.1082153,-0.24664307,-45.59375,-25.0625,7.109375
1664378285983,0.48217773,-0.41046143,-0.04498291,-36.34375,-41.765625,3.953125
1664378286043,0.5488281,-0.43145752,-0.101135254,-39.046875,-30.734375,-2.265625
1664378286071,0.91918945,-0.66363525,-0.101379395,-34.84375,-34.25,-13.0
1664378286101,0.7453613,-0.87823486,0.22259521,-56.9375,-44.109375,-5.34375
1664378286189,0.68896484,-0.5474243,0.15130615,-38.5625,-48.296875,-0.84375
1664378286190,0.6789551,-0.47711182,0.33563232,-28.984375,-35.9375,-12.375
