# Sensor type: Respeck
# Activity type: Sitting
# Activity code: 0
# Subject id: s1800825
# Notes: 
timestamp,accel_x,accel_y,accel_z,gyro_x,gyro_y,gyro_z
1665673053310,0.045654297,-0.98638916,0.007507324,0.046875,0.765625,0.1875
1665673053388,0.049316406,-1.0064087,0.0045776367,0.953125,-0.578125,-0.25
1665673053390,0.033691406,-0.9968872,0.014831543,0.6875,0.75,0.09375
1665673053432,0.04248047,-0.9898071,0.008972168,0.796875,0.0625,0.28125
1665673053464,0.033935547,-1.0003052,0.007751465,0.828125,0.671875,0.109375
1665673053507,0.045410156,-0.99591064,0.007751465,0.75,0.125,0.203125
1665673053553,0.04272461,-0.991272,0.007019043,0.421875,0.5,0.375
1665673053581,0.047607422,-0.9951782,-6.1035156E-5,0.546875,0.203125,-0.015625
1665673053628,0.038330078,-0.9949341,0.008728027,0.734375,-0.15625,-0.03125
1665673053672,0.03173828,-0.9927368,0.005554199,1.0,0.140625,0.515625
1665673053702,0.04638672,-0.9915161,0.0079956055,0.5,0.328125,0.125
1665673053747,0.045410156,-0.9985962,-0.0071411133,1.03125,0.328125,0.453125
1665673053791,0.039794922,-0.9956665,0.0060424805,1.453125,0.015625,0.359375
1665673053824,0.043945312,-0.99884033,-0.0068969727,0.421875,0.484375,0.203125
1665673053866,0.042236328,-1.0020142,-0.006652832,0.859375,-0.078125,0.5
1665673053912,0.046142578,-1.0010376,0.007507324,1.359375,-0.109375,0.640625
1665673053941,0.04321289,-0.9990845,-0.012023926,1.703125,-0.15625,0.65625
1665673053988,0.05883789,-1.0007935,-0.0115356445,0.234375,0.015625,-0.015625
1665673054032,0.035888672,-1.0003052,0.00579834,1.109375,-0.1875,0.046875
1665673054062,0.039794922,-0.9927368,-0.00982666,0.53125,0.59375,0.625
1665673054108,0.060546875,-1.00177,-0.022521973,0.65625,1.171875,0.421875
1665673054153,0.049560547,-0.9963989,-0.013000488,-0.03125,0.90625,-0.15625
1665673054184,0.037109375,-0.9907837,-0.0051879883,0.28125,0.40625,0.265625
1665673054228,0.050048828,-0.99346924,-0.012756348,0.90625,0.265625,0.15625
1665673054260,0.04296875,-0.99664307,-0.006652832,0.328125,-0.21875,-0.046875
1665673054303,0.044189453,-0.99542236,-0.010070801,0.234375,0.46875,0.375
1665673054348,0.057128906,-0.99298096,-0.012023926,0.453125,0.28125,0.125
1665673054377,0.05029297,-0.99468994,-0.012023926,0.984375,-0.4375,0.109375
1665673054423,0.051513672,-0.99468994,-0.008361816,1.203125,0.09375,0.15625
1665673054467,0.048583984,-0.9932251,-0.013000488,0.53125,-0.15625,0.3125
1665673054497,0.050048828,-0.9907837,-0.015197754,0.71875,0.09375,0.4375
1665673054542,0.049316406,-0.99542236,-0.0115356445,0.5,-0.015625,0.09375
1665673054588,0.048339844,-0.99468994,-0.012512207,0.90625,-0.15625,0.40625
1665673054619,0.050048828,-0.99224854,-0.026916504,0.765625,0.203125,0.421875
1665673054663,0.053955078,-0.99176025,-0.016418457,1.21875,0.046875,0.4375
1665673054707,0.049072266,-0.99224854,-0.022033691,-0.296875,0.921875,0.25
1665673054736,0.057373047,-1.006897,-0.012756348,-0.625,1.109375,0.640625
1665673054782,0.059814453,-0.9807739,-0.014709473,0.828125,0.375,0.5
1665673054842,0.060302734,-0.99176025,-0.01763916,0.328125,0.78125,0.15625
1665673054857,0.051757812,-1.0007935,-0.0178833,0.546875,0.5625,0.3125
1665673054902,0.044921875,-0.99713135,-0.015686035,0.125,1.328125,0.71875
1665673054947,0.059326172,-0.9927368,-0.013000488,1.421875,-0.0625,0.5625
1665673054977,0.05810547,-0.9920044,-0.018859863,0.390625,0.53125,-0.078125
1665673055022,0.057861328,-0.99591064,-0.02178955,0.0625,0.3125,0.078125
1665673055067,0.06640625,-0.9968872,-0.016418457,0.421875,-0.265625,0.203125
1665673055096,0.057128906,-1.0005493,-0.026428223,-0.28125,-0.15625,0.125
1665673055142,0.0637207,-0.99102783,-0.018859863,0.296875,-0.390625,-0.1875
1665673055188,0.05810547,-0.99298096,-0.01763916,-0.34375,-0.28125,-0.1875
1665673055219,0.05419922,-0.99224854,-0.011291504,0.234375,-0.15625,-0.234375
1665673055261,0.057617188,-1.0005493,-0.0256958,0.046875,-0.09375,0.078125
1665673055292,0.055908203,-0.99468994,-0.010559082,0.046875,0.078125,-0.15625
1665673055337,0.052734375,-0.99591064,-0.006652832,0.03125,0.4375,-0.125
1665673055381,0.06225586,-0.9976196,-0.022277832,0.21875,-0.1875,0.09375
1665673055412,0.05859375,-1.0059204,-0.010070801,0.203125,-0.375,-0.328125
1665673055456,0.052246094,-1.000061,-0.014465332,0.40625,-0.359375,-0.078125
1665673055501,0.05810547,-0.9859009,-0.024230957,-0.296875,0.265625,-0.140625
1665673055531,0.052734375,-0.9927368,-0.010070801,0.0,0.171875,0.015625
1665673055575,0.052246094,-0.99786377,-0.0256958,-0.40625,0.796875,0.140625
1665673055621,0.06713867,-0.9951782,-0.02545166,0.34375,0.109375,0.25
1665673055651,0.06738281,-0.99224854,-0.01373291,-0.109375,0.328125,-0.5
1665673055695,0.05029297,-0.9963989,-0.016662598,0.109375,-0.71875,-0.265625
1665673055741,0.052734375,-0.99468994,-0.016418457,-0.53125,0.59375,0.171875
1665673055771,0.064941406,-0.99591064,-0.013244629,-0.46875,0.109375,-0.171875
1665673055816,0.061279297,-0.99468994,-0.009338379,0.046875,-0.46875,-0.296875
1665673055861,0.044677734,-0.9949341,-0.008605957,-0.796875,0.734375,-0.3125
1665673055892,0.059570312,-0.9854126,-0.0068969727,-0.21875,0.171875,0.1875
1665673055936,0.059326172,-0.99420166,-0.010070801,-0.1875,0.28125,-0.34375
1665673055981,0.046142578,-0.9949341,-0.009338379,-0.828125,0.265625,-0.234375
1665673056011,0.060302734,-0.99420166,-0.019104004,-0.890625,0.140625,0.0
1665673056056,0.05419922,-0.99468994,-0.0012817383,1.015625,-0.34375,0.21875
1665673056101,0.052734375,-0.99542236,-0.018615723,-0.21875,0.234375,-0.140625
1665673056131,0.051757812,-1.0037231,-0.0095825195,-0.953125,0.34375,-0.25
1665673056177,0.051513672,-0.9951782,0.0021362305,0.65625,0.15625,0.15625
1665673056221,0.052978516,-0.9902954,-0.0178833,-0.078125,0.984375,0.234375
1665673056252,0.05908203,-0.9985962,-0.010559082,-0.421875,0.4375,0.03125
1665673056296,0.064453125,-1.0039673,-0.0056762695,-0.34375,0.46875,-0.09375
1665673056326,0.053222656,-0.99664307,-0.008605957,-0.03125,-0.046875,-0.046875
1665673056371,0.05493164,-0.9956665,-0.002746582,0.171875,-0.328125,-0.5
1665673056417,0.052734375,-0.99664307,-0.008605957,-0.40625,-0.25,-0.28125
1665673056446,0.05834961,-0.9961548,-0.009094238,-0.53125,0.40625,-0.171875
1665673056491,0.05908203,-0.9907837,-5.493164E-4,0.40625,-0.078125,-0.3125
1665673056536,0.05053711,-0.991272,-0.003967285,-0.484375,0.390625,-0.296875
1665673056566,0.063964844,-0.9885864,-0.003479004,-0.75,0.90625,-0.1875
1665673056611,0.05834961,-1.0039673,-0.0076293945,0.34375,-0.03125,-0.0625
1665673056656,0.048828125,-0.99664307,-0.0015258789,-0.21875,0.578125,-0.1875
1665673056686,0.055664062,-0.9981079,-0.0025024414,-0.6875,0.5,-0.421875
1665673056731,0.046875,-0.9956665,0.0016479492,0.390625,0.375,-0.53125
1665673056777,0.053955078,-1.0032349,-0.0134887695,-0.0625,0.484375,-0.34375
1665673056806,0.056640625,-0.98565674,0.007751465,1.078125,0.125,-0.515625
1665673056851,0.043945312,-0.99957275,-0.012268066,-0.03125,-0.078125,-0.578125
1665673056895,0.061767578,-0.99542236,0.008239746,-0.171875,0.484375,-0.34375
1665673056926,0.045654297,-0.99884033,-0.0032348633,0.390625,-0.734375,-0.1875
1665673056971,0.053222656,-0.9924927,-0.01373291,-0.625,0.890625,-0.234375
1665673057016,0.045410156,-0.9981079,-0.003967285,0.109375,0.125,-0.109375
1665673057046,0.04296875,-0.991272,1.8310547E-4,-0.484375,1.421875,-0.1875
1665673057091,0.0546875,-0.9873657,0.007019043,0.4375,0.375,0.25
1665673057136,0.049804688,-1.0012817,0.001159668,-0.59375,1.03125,-0.359375
1665673057166,0.040527344,-1.0003052,0.0040893555,-0.265625,0.515625,-0.125
1665673057212,0.05493164,-0.9951782,0.002380371,-0.390625,0.4375,0.09375
1665673057256,0.055908203,-0.98809814,9.1552734E-4,-0.203125,0.15625,-0.421875
1665673057288,0.047607422,-0.99957275,0.007751465,0.171875,0.1875,-0.25
1665673057331,0.041503906,-0.9981079,1.8310547E-4,0.25,0.578125,0.171875
1665673057361,0.052734375,-0.9937134,-0.003967285,-0.390625,0.921875,0.0
1665673057406,0.03955078,-0.9949341,0.0040893555,0.40625,0.53125,0.125
1665673057452,0.048828125,-0.99786377,0.0048217773,-0.390625,1.0,-0.078125
1665673057483,0.05126953,-0.9973755,0.0040893555,0.0,0.328125,-0.21875
1665673057527,0.048339844,-0.9902954,0.0021362305,-0.203125,0.421875,-0.484375
1665673057572,0.04272461,-0.99957275,-5.493164E-4,0.328125,0.25,-0.03125
1665673057602,0.044921875,-0.9981079,0.016296387,0.0625,1.046875,-0.140625
1665673057647,0.05029297,-0.9846802,0.005554199,0.515625,-0.15625,-0.09375
1665673057691,0.048828125,-1.0015259,-0.0032348633,-1.25,0.59375,-0.203125
1665673057722,0.047851562,-0.9944458,0.015075684,-0.015625,-0.078125,-0.3125
1665673057766,0.045410156,-0.99053955,0.0038452148,-0.28125,0.171875,-0.015625
1665673057811,0.045166016,-0.99420166,0.007751465,-0.390625,0.15625,-0.171875
1665673057841,0.048095703,-0.9963989,0.009216309,0.234375,0.625,-0.15625
1665673057887,0.05102539,-1.0012817,0.0067749023,0.328125,0.40625,-0.078125
1665673057932,0.0390625,-0.9932251,0.002380371,0.109375,0.328125,-0.375
1665673057962,0.039794922,-0.99420166,0.0026245117,-0.21875,0.34375,-0.25
1665673058007,0.048583984,-0.99664307,0.009216309,0.171875,0.25,-0.015625
1665673058052,0.044189453,-1.000061,0.008972168,-0.265625,-0.015625,-0.15625
1665673058082,0.045898438,-0.98760986,0.008483887,0.328125,0.0625,-0.28125
1665673058127,0.030761719,-0.99224854,0.005065918,-0.015625,0.1875,-0.265625
1665673058172,0.044921875,-0.9924927,0.007019043,0.625,0.390625,0.25
1665673058202,0.037597656,-0.9907837,0.0021362305,0.328125,0.34375,0.09375
1665673058247,0.05126953,-0.9968872,0.0079956055,0.671875,-0.03125,0.078125
1665673058292,0.040283203,-0.99664307,0.0048217773,0.15625,0.515625,-0.125
1665673058322,0.033447266,-0.9976196,0.008239746,-0.125,0.859375,0.03125
1665673058368,0.04296875,-0.9981079,0.007751465,0.703125,0.265625,0.296875
1665673058413,0.04321289,-1.0027466,0.008972168,0.375,0.546875,0.109375
1665673058441,0.046142578,-0.9883423,0.002380371,1.125,-0.390625,-0.015625
1665673058488,0.044189453,-0.9981079,1.8310547E-4,-0.1875,0.46875,-0.3125
1665673058517,0.04248047,-0.99420166,0.0119018555,0.953125,0.359375,0.03125
1665673058563,0.041748047,-1.0003052,0.002380371,-0.125,0.09375,-0.015625
1665673058607,0.044189453,-0.99786377,0.010437012,-0.421875,0.53125,-0.375
1665673058636,0.041259766,-1.00177,0.009216309,0.953125,-0.734375,0.21875
1665673058696,0.046875,-0.9846802,-0.0010375977,0.0,0.953125,0.015625
1665673058727,0.047851562,-0.9998169,0.0067749023,0.625,0.078125,-0.046875
1665673058757,0.043945312,-0.99664307,0.0038452148,0.65625,0.3125,0.21875
1665673058802,0.049560547,-0.98809814,0.0014038086,1.03125,-0.03125,0.203125
1665673058847,0.04272461,-0.9961548,0.005065918,-0.109375,0.421875,-0.03125
1665673058876,0.046875,-0.9927368,0.001159668,0.421875,-0.1875,0.0
1665673058921,0.03955078,-1.0020142,0.0016479492,-0.046875,0.09375,-0.03125
1665673058966,0.05102539,-0.98809814,-0.0044555664,-0.015625,-0.0625,-0.078125
1665673058996,0.042236328,-0.99713135,6.713867E-4,0.625,-0.46875,0.171875
1665673059041,0.040527344,-0.99542236,0.0038452148,-0.0625,0.421875,0.15625
1665673059086,0.044433594,-0.9973755,0.002380371,-0.21875,-0.015625,0.1875
1665673059117,0.051513672,-0.99591064,0.003112793,0.484375,-0.234375,0.0625
1665673059161,0.045166016,-0.9890747,0.004333496,0.109375,0.015625,0.046875
1665673059207,0.042236328,-0.99542236,0.0038452148,0.15625,0.28125,0.140625
1665673059236,0.04321289,-0.99835205,0.009216309,0.90625,-0.171875,-0.015625
1665673059281,0.042236328,-0.9961548,-6.1035156E-5,0.34375,0.078125,0.0625
1665673059327,0.05029297,-0.9924927,0.0045776367,-0.28125,0.046875,-0.078125
1665673059356,0.044189453,-0.99468994,0.0065307617,0.75,-0.03125,-0.015625
1665673059402,0.03955078,-0.99835205,-0.0010375977,-0.640625,0.6875,0.265625
1665673059447,0.047607422,-0.99298096,0.008483887,1.171875,-0.3125,0.4375
1665673059492,0.05053711,-0.99786377,0.0033569336,0.328125,0.1875,0.078125
1665673059521,0.050048828,-0.99713135,0.0036010742,0.34375,-0.109375,-0.15625
1665673059551,0.048095703,-0.99176025,0.009216309,-0.125,0.125,0.0
1665673059597,0.044921875,-0.9937134,-0.009338379,-0.09375,0.421875,0.09375
1665673059641,0.053222656,-0.991272,0.0028686523,0.03125,0.265625,0.15625
1665673059671,0.046142578,-1.006897,0.001159668,0.125,0.0625,0.078125
1665673059716,0.048828125,-0.9883423,0.013366699,0.5,-0.46875,0.046875
1665673059761,0.044189453,-0.9993286,0.004333496,-0.46875,-0.046875,-0.125
1665673059791,0.03881836,-0.99664307,0.0026245117,0.34375,-0.3125,-0.0625
1665673059836,0.041748047,-0.9956665,0.004333496,-0.078125,0.5625,-0.1875
1665673059881,0.056152344,-0.99835205,-0.0022583008,0.359375,-0.5,-0.21875
1665673059911,0.04296875,-0.9898071,0.0099487305,-0.21875,0.265625,-0.390625
1665673059956,0.037841797,-0.99420166,4.272461E-4,0.015625,0.125,0.109375
1665673060001,0.051513672,-0.99176025,0.0060424805,-0.15625,0.09375,0.0
1665673060031,0.04272461,-0.99420166,-5.493164E-4,0.109375,0.078125,-0.234375
1665673060076,0.044433594,-0.9998169,0.005554199,-0.125,0.3125,-0.25
1665673060121,0.039794922,-0.9920044,9.1552734E-4,-0.5,0.953125,-0.28125
1665673060151,0.04345703,-0.9990845,0.004333496,0.109375,0.875,-0.3125
1665673060196,0.045166016,-0.99957275,0.008972168,-1.171875,2.234375,-0.296875
1665673060241,0.053466797,-0.9981079,0.0053100586,-1.0,0.90625,-0.671875
1665673060271,0.03857422,-0.9859009,0.0079956055,-0.71875,0.96875,-0.546875
1665673060316,0.041503906,-1.0012817,0.0138549805,-0.046875,0.921875,-0.140625
1665673060363,0.044921875,-0.99224854,0.0065307617,-0.453125,0.515625,-0.453125
1665673060391,0.04663086,-1.0056763,0.010192871,-0.5,-0.09375,0.0
1665673060437,0.045410156,-0.9973755,0.022888184,0.375,-0.25,-0.4375
1665673060481,0.03491211,-0.9932251,0.0038452148,-0.65625,0.25,-0.078125
1665673060513,0.033935547,-0.9871216,0.014831543,-0.609375,0.40625,-0.25
1665673060556,0.041259766,-1.0061646,0.005065918,0.265625,0.21875,-0.046875
1665673060603,0.033203125,-1.000061,0.014343262,-0.109375,0.59375,-0.046875
1665673060632,0.040283203,-0.9973755,0.012145996,0.140625,0.171875,-0.125
1665673060679,0.04296875,-0.9993286,0.014099121,-0.03125,0.3125,-0.328125
1665673060710,0.045410156,-1.0010376,0.008972168,-0.609375,0.296875,-0.109375
1665673060752,0.04663086,-0.99664307,0.016052246,0.09375,0.28125,-0.046875
1665673060798,0.048583984,-0.99713135,0.014099121,-0.125,-0.390625,-0.53125
1665673060828,0.03125,-1.0059204,0.02166748,-0.984375,0.5,-0.46875
1665673060872,0.041503906,-0.9924927,0.018981934,0.078125,0.46875,-0.015625
1665673060917,0.044433594,-1.0056763,0.013366699,0.5625,0.1875,-0.015625
1665673060949,0.040039062,-0.9981079,0.018493652,-0.421875,0.484375,-0.3125
1665673060992,0.045898438,-0.99664307,0.019714355,0.203125,0.171875,-0.15625
1665673061037,0.03515625,-0.99664307,0.015808105,0.40625,0.515625,0.0625
1665673061068,0.037353516,-0.9963989,0.014587402,0.03125,0.515625,-0.046875
1665673061128,0.03881836,-0.99957275,0.023620605,-0.28125,0.5625,-0.28125
1665673061157,0.037353516,-0.9976196,0.018005371,0.65625,-0.25,0.09375
1665673061187,0.04272461,-0.9961548,0.018005371,0.15625,0.15625,-0.34375
1665673061233,0.033447266,-0.9907837,0.015563965,-0.109375,0.390625,-0.171875
1665673061277,0.040283203,-1.0115356,0.010192871,0.5625,-0.1875,0.15625
1665673061307,0.034423828,-0.9920044,0.036071777,-0.28125,0.578125,-0.453125
1665673061353,0.032470703,-1.0059204,0.016296387,-0.46875,0.171875,-0.03125
1665673061397,0.036865234,-0.9885864,0.020690918,0.109375,0.671875,-0.1875
1665673061443,0.03125,-0.99957275,0.0138549805,0.171875,0.421875,-0.25
1665673061473,0.036621094,-0.99591064,0.023376465,-0.328125,1.328125,0.015625
1665673061517,0.0390625,-0.9981079,0.015075684,0.625,0.0625,-0.09375
1665673061547,0.030273438,-0.99713135,0.022155762,-0.34375,0.71875,-0.390625
1665673061593,0.041015625,-0.9956665,0.014587402,0.0,-0.15625,-0.125
1665673061669,0.033935547,-0.9990845,0.019470215,-0.140625,0.6875,-0.203125
1665673061671,0.036865234,-0.9998169,0.014587402,-0.078125,0.390625,-0.078125
1665673061714,0.032958984,-0.99591064,0.028259277,0.28125,0.671875,-0.25
1665673061744,0.02709961,-0.9949341,0.010681152,-0.171875,0.796875,0.25
1665673061788,0.037109375,-0.9951782,0.0211792,0.21875,0.671875,0.03125
1665673061833,0.033691406,-1.0046997,0.015075684,0.40625,0.421875,0.171875
1665673061865,0.036621094,-0.9968872,0.027526855,-0.0625,0.75,0.015625
1665673061908,0.03173828,-1.0020142,0.015808105,0.25,0.40625,-0.046875
1665673061952,0.028564453,-0.99957275,0.024597168,-0.125,0.734375,0.0
1665673061982,0.033691406,-1.0005493,0.015075684,0.015625,0.359375,-0.203125
1665673062027,0.028320312,-0.99591064,0.025817871,0.03125,0.453125,-0.015625
1665673062073,0.03491211,-0.99102783,0.027038574,-0.109375,0.71875,-0.015625
1665673062117,0.040527344,-0.9973755,0.023132324,0.578125,-0.53125,-0.078125
1665673062147,0.03955078,-1.0073853,0.0079956055,-0.875,0.265625,-0.203125
1665673062193,0.025878906,-0.99224854,0.031677246,-0.03125,0.234375,-0.375
1665673062223,0.033447266,-1.000061,0.016540527,0.03125,0.0625,0.328125
1665673062268,0.03955078,-0.9883423,0.03289795,-0.171875,0.5625,-0.3125
1665673062313,0.033691406,-0.99591064,0.009460449,-0.203125,0.28125,-0.359375
1665673062343,0.037353516,-0.99835205,0.031433105,0.25,0.421875,-0.046875
1665673062388,0.03930664,-0.9932251,0.023620605,-0.078125,0.265625,-0.21875
1665673062434,0.030029297,-0.9985962,0.026550293,-0.046875,0.28125,-0.265625
1665673062463,0.033691406,-0.9981079,0.024353027,-0.46875,-0.109375,-0.078125
1665673062508,0.028076172,-0.9993286,0.02947998,0.109375,0.546875,-0.125
1665673062552,0.032714844,-0.9937134,0.023376465,-0.015625,0.109375,-0.25
1665673062582,0.03125,-1.0137329,0.032165527,0.421875,0.46875,0.1875
1665673062643,0.036621094,-0.9898071,0.022644043,0.046875,0.25,0.109375
1665673062703,0.028076172,-0.9939575,0.038513184,0.078125,0.546875,-0.25
1665673062705,0.030273438,-0.99957275,0.015075684,0.34375,0.203125,0.203125
1665673062748,0.039794922,-0.99468994,0.030944824,0.1875,0.328125,-0.1875
1665673062792,0.028564453,-0.9968872,0.0211792,0.375,0.4375,0.078125
1665673062822,0.03466797,-0.9937134,0.024841309,0.546875,0.515625,0.328125
1665673062868,0.038085938,-1.0003052,0.022644043,0.53125,0.234375,-0.125
1665673062897,0.030517578,-1.008606,0.01727295,0.171875,0.640625,0.109375
1665673062943,0.040039062,-0.9898071,0.03289795,0.84375,0.65625,0.078125
1665673062988,0.02758789,-0.9944458,0.015563965,0.421875,-0.234375,0.21875
1665673063017,0.035888672,-1.0005493,0.014831543,-0.25,0.328125,0.09375
1665673063063,0.03466797,-1.0059204,0.029724121,1.078125,-0.5,0.171875
1665673063108,0.030761719,-0.99468994,0.019470215,-0.9375,0.46875,-0.203125
1665673063138,0.034423828,-0.9932251,0.008239746,0.703125,-0.390625,-0.125
1665673063184,0.030761719,-1.00177,0.026550293,-0.34375,0.984375,0.15625
1665673063227,0.04321289,-0.9932251,0.013122559,0.921875,-0.140625,0.21875
1665673063257,0.03930664,-1.0093384,0.014099121,0.3125,-0.328125,-0.078125
1665673063302,0.024169922,-0.9902954,0.016540527,-0.328125,0.28125,0.15625
1665673063348,0.037109375,-0.99542236,0.038269043,0.6875,-0.203125,0.453125
1665673063377,0.029785156,-0.99664307,0.005065918,-0.046875,0.171875,0.53125
1665673063423,0.045166016,-0.99542236,0.028747559,0.984375,-0.796875,0.28125
1665673063468,0.02758789,-0.99713135,0.022399902,0.65625,-0.046875,0.171875
1665673063499,0.033691406,-0.9956665,0.012878418,0.5,-0.21875,0.3125
1665673063543,0.039794922,-0.9990845,0.022155762,0.796875,0.015625,0.28125
1665673063588,0.03540039,-0.99835205,0.018005371,-0.21875,0.0625,0.09375
1665673063617,0.038085938,-1.0012817,0.018737793,0.765625,-0.171875,0.34375
1665673063663,0.037597656,-0.99884033,0.020935059,0.296875,0.375,0.28125
1665673063708,0.038330078,-0.9993286,0.009460449,0.453125,-0.359375,0.375
1665673063740,0.041992188,-0.9902954,0.023864746,0.375,0.078125,-0.03125
1665673063783,0.033447266,-0.99957275,0.01751709,0.34375,0.390625,0.40625
1665673063828,0.03881836,-0.99346924,0.0119018555,1.53125,-0.984375,0.609375
1665673063857,0.036865234,-1.0151978,0.014343262,-0.265625,0.1875,0.171875
1665673063903,0.04321289,-0.9902954,0.032165527,-0.109375,-0.296875,0.0
1665673063933,0.03100586,-1.000061,0.00970459,0.28125,-0.109375,0.40625
1665673063978,0.041015625,-0.9939575,0.019714355,-0.34375,-0.078125,0.078125
1665673064023,0.047851562,-0.99884033,0.010681152,0.015625,-0.59375,-0.15625
1665673064052,0.04736328,-0.9990845,0.016052246,0.171875,-0.578125,-0.09375
1665673064098,0.041992188,-0.9993286,0.015319824,0.03125,-0.859375,-0.40625
1665673064143,0.03466797,-0.9956665,0.02166748,-1.03125,-0.28125,-0.5625
1665673064172,0.032958984,-1.0042114,0.013122559,-0.421875,0.703125,0.328125
1665673064217,0.044921875,-0.98809814,0.02142334,0.25,0.125,0.203125
1665673064262,0.03955078,-1.0025024,0.015075684,0.0,0.109375,0.09375
1665673064292,0.040039062,-0.9968872,0.019470215,0.359375,-0.015625,0.265625
1665673064338,0.045654297,-0.9920044,0.028747559,0.078125,0.296875,-0.015625
1665673064383,0.03466797,-1.0061646,0.016540527,0.28125,0.0,0.078125
1665673064444,0.038085938,-0.99884033,0.026306152,0.0625,0.265625,0.125
1665673064457,0.037109375,-0.9976196,0.018737793,0.125,0.421875,0.359375
1665673064503,0.046142578,-0.99542236,0.018249512,0.03125,0.109375,-0.1875
1665673064532,0.032958984,-1.0042114,0.022155762,-0.265625,0.125,-0.171875
1665673064578,0.044921875,-0.9907837,0.020202637,1.078125,0.234375,0.015625
1665673064623,0.044921875,-1.0090942,0.014831543,-0.0625,-0.609375,-0.625
1665673064652,0.02734375,-0.9993286,0.02142334,-1.28125,1.03125,-0.453125
1665673064698,0.05444336,-0.9998169,0.024353027,0.84375,-0.390625,0.203125
1665673064743,0.04296875,-0.99786377,0.018249512,-0.484375,0.21875,-0.453125
1665673064773,0.043701172,-0.9998169,0.021911621,-0.5625,0.65625,-0.28125
1665673064817,0.037109375,-0.9963989,0.01751709,0.234375,0.5,-0.171875
1665673064863,0.035888672,-0.9963989,0.011657715,-0.59375,0.984375,-0.03125
1665673064893,0.03466797,-0.99835205,0.026550293,-0.140625,0.65625,-0.25
1665673064938,0.033447266,-0.9963989,0.0211792,0.125,0.53125,-0.296875
1665673064969,0.035888672,-1.0059204,0.026550293,-0.90625,0.6875,-0.1875
1665673065013,0.034423828,-0.99005127,0.02142334,-0.75,1.03125,-0.296875
1665673065058,0.032958984,-0.9990845,0.020446777,0.0625,0.03125,-0.171875
1665673065087,0.03173828,-0.99102783,0.026550293,-0.265625,0.78125,-0.203125
1665673065133,0.036376953,-0.99884033,0.020935059,-0.171875,0.578125,0.015625
1665673065177,0.04296875,-0.9898071,0.036315918,0.03125,0.828125,-0.234375
1665673065207,0.026123047,-0.9963989,0.0211792,-0.421875,0.53125,0.0
1665673065252,0.032470703,-0.99346924,0.035827637,0.28125,1.0,-0.109375
1665673065298,0.031982422,-0.99884033,0.027526855,0.25,0.328125,-0.03125
1665673065327,0.034423828,-1.0027466,0.02947998,-0.140625,0.5,-0.1875
1665673065373,0.036132812,-0.99713135,0.026794434,-0.53125,0.796875,-0.21875
1665673065417,0.032714844,-0.99298096,0.039733887,0.625,0.34375,-0.09375
1665673065447,0.033203125,-0.9956665,0.018981934,-0.5625,0.65625,-0.328125
1665673065493,0.03857422,-1.0027466,0.027038574,-0.625,0.84375,-0.546875
1665673065538,0.030517578,-0.991272,0.031188965,0.3125,0.296875,-0.109375
1665673065568,0.036621094,-0.99835205,0.032409668,-0.46875,1.234375,-0.125
1665673065613,0.03564453,-0.9963989,0.036315918,-0.5,0.734375,-0.296875
1665673065657,0.034423828,-1.0003052,0.030212402,-0.453125,0.5,-0.078125
1665673065687,0.032226562,-0.9973755,0.035583496,0.140625,0.40625,0.03125
1665673065733,0.03491211,-0.99835205,0.03363037,-0.109375,0.15625,-0.171875
1665673065778,0.033935547,-1.0037231,0.031677246,0.0625,0.171875,-0.34375
1665673065808,0.024414062,-0.99224854,0.036315918,-0.515625,1.046875,0.265625
1665673065853,0.04345703,-0.9898071,0.029968262,0.75,-0.09375,0.15625
1665673065897,0.03125,-0.9956665,0.042663574,-0.21875,0.828125,-0.25
1665673065929,0.033203125,-0.99713135,0.034362793,-0.140625,0.328125,0.09375
1665673065972,0.03173828,-0.9961548,0.04046631,-0.25,0.484375,-0.1875
1665673066019,0.032958984,-1.00177,0.030944824,0.015625,0.609375,0.3125
1665673066047,0.039794922,-1.00177,0.03289795,0.03125,-0.046875,-0.15625
1665673066093,0.030029297,-0.9973755,0.0368042,-0.046875,0.734375,-0.203125
1665673066122,0.025878906,-0.9990845,0.035095215,-0.046875,0.46875,0.046875
1665673066168,0.032226562,-0.9976196,0.031433105,-0.03125,0.40625,-0.1875
1665673066213,0.034179688,-0.9976196,0.02923584,-0.1875,0.453125,-0.078125
1665673066243,0.032714844,-0.991272,0.04168701,0.546875,0.75,0.109375
1665673066288,0.033203125,-0.9956665,0.028503418,-0.28125,-0.0625,-0.0625
1665673066332,0.032226562,-0.9968872,0.02947998,-1.203125,0.703125,-0.40625
1665673066364,0.028320312,-0.9968872,0.0524292,0.109375,-0.171875,-0.28125
1665673066407,0.032226562,-0.99542236,0.028503418,-0.375,0.71875,-0.234375
1665673066454,0.028808594,-1.0012817,0.035095215,0.0,0.53125,-0.125
1665673066483,0.037109375,-1.0005493,0.034118652,0.265625,0.28125,-0.03125
1665673066528,0.033691406,-1.010315,0.04437256,0.6875,0.59375,-0.046875
1665673066573,0.036621094,-0.9998169,0.035095215,-0.390625,0.203125,-0.203125
1665673066603,0.022949219,-0.9956665,0.039978027,0.21875,0.21875,0.0
1665673066648,0.029541016,-0.99468994,0.034851074,0.96875,0.0,0.46875
1665673066693,0.033691406,-0.99542236,0.03363037,-0.265625,0.28125,-0.203125
1665673066723,0.029541016,-0.9956665,0.038269043,-0.046875,0.53125,0.046875
1665673066783,0.030517578,-1.0044556,0.039001465,0.953125,0.09375,0.203125
1665673066813,0.022949219,-0.99005127,0.0446167,0.015625,0.9375,0.21875
1665673066842,0.029296875,-0.9976196,0.039245605,0.6875,0.375,0.125
1665673066888,0.03491211,-0.9981079,0.03729248,0.75,0.359375,0.171875
1665673066933,0.03564453,-0.9998169,0.031677246,-0.203125,0.25,-0.140625
1665673066963,0.030273438,-0.99591064,0.03778076,0.125,0.265625,0.046875
1665673067007,0.029541016,-1.0007935,0.026794434,0.203125,0.03125,0.015625
1665673067053,0.03540039,-0.99664307,0.03314209,0.671875,-0.140625,0.1875
1665673067082,0.030273438,-0.9993286,0.03363037,-0.28125,0.484375,-0.15625
1665673067128,0.032470703,-0.99542236,0.036071777,0.984375,-0.140625,0.203125
1665673067157,0.03491211,-1.0073853,0.034362793,-0.109375,0.078125,-0.171875
1665673067203,0.032958984,-0.9963989,0.031433105,-0.0625,0.109375,-0.171875
1665673067247,0.034179688,-1.0007935,0.039001465,0.421875,-0.15625,-0.015625
1665673067277,0.033935547,-0.99420166,0.029968262,-0.296875,0.75,0.125
1665673067323,0.03857422,-1.0010376,0.031188965,1.390625,-0.734375,0.0625
1665673067368,0.030273438,-1.0027466,0.039489746,-0.015625,0.40625,0.078125
1665673067398,0.031982422,-0.9883423,0.034851074,0.359375,-0.328125,0.0625
1665673067443,0.037597656,-0.9963989,0.03778076,0.0625,0.421875,-0.25
1665673067488,0.024169922,-0.99713135,0.04437256,0.8125,-0.421875,0.03125
1665673067517,0.03515625,-0.99884033,0.036315918,0.125,0.046875,0.03125
1665673067563,0.03466797,-0.99664307,0.034606934,0.359375,-0.015625,-0.09375
1665673067608,0.029296875,-1.0044556,0.028747559,0.375,-0.28125,-0.03125
1665673067638,0.032470703,-0.9998169,0.030212402,-0.015625,0.109375,0.15625
1665673067683,0.029785156,-1.0005493,0.0368042,0.21875,-0.140625,0.09375
1665673067743,0.031982422,-0.9976196,0.035339355,0.125,-0.234375,0.125
1665673067757,0.029541016,-1.0078735,0.031677246,0.0,-0.265625,0.0
1665673067803,0.029052734,-0.989563,0.031677246,0.359375,0.28125,-0.046875
1665673067848,0.039794922,-1.0046997,0.038024902,0.4375,-0.078125,0.09375
1665673067878,0.03466797,-0.9902954,0.029968262,-0.203125,-0.09375,0.109375
1665673067922,0.032958984,-0.99835205,0.03363037,0.5,-0.390625,0.109375
1665673067968,0.028808594,-0.99835205,0.038269043,0.6875,0.515625,0.21875
1665673067998,0.03491211,-0.99176025,0.026062012,1.0625,-0.640625,0.375
1665673068043,0.03881836,-1.0112915,0.026062012,0.25,0.125,0.203125
1665673068119,0.03149414,-0.9956665,0.03729248,-0.140625,-0.34375,-0.140625
1665673068121,0.029296875,-0.9951782,0.024597168,0.265625,0.515625,0.34375
1665673068164,0.033447266,-1.003479,0.019958496,0.421875,-0.109375,0.265625
1665673068208,0.041992188,-1.0046997,0.034606934,0.203125,0.28125,0.15625
1665673068237,0.033203125,-0.99591064,0.038269043,0.0,0.4375,0.15625
1665673068283,0.03173828,-1.0032349,0.02923584,0.546875,-0.46875,-0.171875
1665673068312,0.029052734,-0.9944458,0.038757324,-0.140625,0.28125,-0.140625
1665673068358,0.034179688,-1.0037231,0.031188965,0.421875,-0.515625,0.140625
1665673068403,0.029541016,-0.9944458,0.032409668,0.265625,-0.375,-0.046875
1665673068436,0.03857422,-0.9981079,0.02532959,0.421875,-0.875,-0.15625
1665673068478,0.024169922,-1.0012817,0.025817871,-0.34375,0.3125,0.25
1665673068523,0.037353516,-0.98931885,0.026062012,0.5625,-0.25,0.25
1665673068552,0.032470703,-1.0061646,0.03778076,-0.09375,0.375,0.0625
1665673068597,0.038085938,-0.98809814,0.028015137,0.171875,0.15625,-0.328125
1665673068643,0.026855469,-1.0039673,0.02947998,0.921875,0.171875,0.234375
1665673068673,0.042236328,-0.99224854,0.034851074,0.03125,0.46875,-0.296875
1665673068718,0.03149414,-1.0022583,0.031921387,-0.21875,0.453125,-0.359375
1665673068763,0.03930664,-0.9939575,0.027282715,0.21875,0.203125,0.28125
1665673068795,0.037353516,-1.0003052,0.044128418,0.328125,0.484375,0.09375
1665673068838,0.03540039,-0.9990845,0.03289795,-0.125,0.140625,-0.109375
1665673068883,0.033447266,-1.013977,0.031921387,-0.78125,-0.015625,-0.25
1665673068912,0.0390625,-0.98687744,0.03753662,0.234375,0.5625,0.078125
1665673068958,0.036376953,-1.0027466,0.026306152,-1.0,0.71875,0.03125
1665673069003,0.0390625,-0.99835205,0.03753662,0.421875,0.28125,0.171875
1665673069032,0.049560547,-1.0032349,0.038757324,-0.71875,0.390625,-0.5
1665673069078,0.018798828,-0.9902954,0.03289795,-0.796875,0.921875,-0.1875
1665673069123,0.037597656,-0.99591064,0.04119873,-0.171875,0.390625,0.0625
1665673069155,0.034423828,-0.9973755,0.038269043,-0.3125,0.359375,-0.46875
1665673069197,0.029296875,-0.99542236,0.03704834,-0.625,0.8125,0.203125
1665673069243,0.03540039,-0.9981079,0.038757324,0.015625,0.34375,-0.078125
1665673069273,0.032958984,-0.99713135,0.03289795,-0.4375,0.703125,-0.21875
1665673069317,0.031982422,-0.9993286,0.042663574,-0.234375,1.25,0.015625
1665673069347,0.037353516,-0.9985962,0.04144287,0.265625,0.578125,0.109375
1665673069392,0.032226562,-1.0010376,0.038513184,-0.09375,0.8125,-0.21875
1665673069439,0.03173828,-0.99346924,0.03778076,-0.390625,0.390625,-0.234375
1665673069468,0.030029297,-1.000061,0.04510498,0.15625,0.625,-0.1875
1665673069513,0.033691406,-1.0054321,0.031433105,0.28125,0.375,0.078125
1665673069557,0.032470703,-0.9920044,0.043884277,-0.125,1.125,-0.359375
1665673069587,0.02368164,-0.9907837,0.034362793,0.046875,0.953125,0.484375
1665673069633,0.04296875,-1.0003052,0.04559326,0.46875,0.359375,-0.375
1665673069678,0.03149414,-1.0003052,0.04144287,0.03125,0.265625,-0.296875
1665673069708,0.03564453,-0.9993286,0.034851074,-0.484375,0.15625,-0.3125
1665673069753,0.03125,-1.0056763,0.04486084,0.84375,0.21875,-0.1875
1665673069798,0.030517578,-1.0044556,0.04168701,-0.296875,0.59375,0.09375
1665673069827,0.03173828,-0.99346924,0.04168701,-0.09375,0.796875,-0.296875
1665673069873,0.03125,-0.9968872,0.03729248,-0.140625,0.921875,0.140625
1665673069919,0.03173828,-0.9937134,0.04510498,0.421875,0.796875,0.0625
1665673069948,0.032714844,-0.9976196,0.051452637,-0.296875,0.53125,-0.21875
1665673069993,0.032958984,-0.9927368,0.036071777,0.21875,0.15625,-0.28125
1665673070039,0.0234375,-1.0046997,0.053649902,-0.125,0.3125,-0.140625
1665673070067,0.027832031,-0.99346924,0.035095215,0.078125,0.484375,0.109375
1665673070113,0.033691406,-1.0025024,0.04852295,-0.234375,0.5625,-0.203125
1665673070158,0.029052734,-0.9924927,0.035827637,0.390625,0.09375,-0.234375
1665673070188,0.025146484,-1.0049438,0.0446167,-0.953125,1.203125,-0.09375
1665673070233,0.040527344,-0.9951782,0.046325684,0.5625,0.3125,-0.140625
1665673070278,0.025634766,-0.99835205,0.04559326,-0.328125,0.8125,-0.3125
1665673070307,0.041748047,-0.99835205,0.036071777,0.203125,0.28125,0.015625
1665673070353,0.029052734,-0.9985962,0.050720215,0.9375,0.09375,-0.46875
1665673070382,0.023925781,-0.99102783,0.043395996,-0.15625,0.75,-0.125
1665673070427,0.030273438,-1.0025024,0.05267334,0.265625,0.359375,0.0
1665673070472,0.030029297,-0.9937134,0.035583496,0.015625,0.546875,-0.1875
1665673070502,0.026123047,-0.9902954,0.04901123,0.90625,0.234375,0.046875
1665673070562,0.02709961,-0.99591064,0.039978027,0.34375,-0.265625,-0.328125
1665673070591,0.036132812,-0.9973755,0.04510498,-0.09375,0.25,-0.875
1665673070623,0.021240234,-1.0012817,0.048034668,0.015625,0.046875,-0.078125
1665673070683,0.03149414,-0.99664307,0.03704834,0.078125,0.359375,-0.0625
1665673070714,0.025390625,-1.0032349,0.045837402,0.625,0.671875,0.078125
1665673070743,0.031982422,-1.0039673,0.034851074,1.328125,0.515625,0.40625
1665673070803,0.026611328,-0.9985962,0.043884277,-0.078125,0.9375,-0.078125
1665673070833,0.03540039,-0.99176025,0.03729248,-0.609375,0.71875,-0.171875
1665673070863,0.028564453,-1.0007935,0.047546387,0.609375,0.09375,-0.125
1665673070909,0.028564453,-1.0037231,0.04852295,-0.5,0.59375,-0.015625
1665673070953,0.024658203,-0.99176025,0.038513184,0.296875,0.03125,0.078125
1665673070982,0.025878906,-1.0007935,0.05218506,-0.015625,0.46875,-0.015625
1665673071028,0.024902344,-0.9961548,0.04534912,-0.34375,0.78125,0.09375
1665673071073,0.03491211,-0.99542236,0.039489746,1.421875,-0.171875,0.46875
1665673071103,0.028808594,-0.99713135,0.042175293,-0.125,0.546875,-0.328125
1665673071148,0.026123047,-0.99786377,0.03265381,-0.625,0.609375,0.0625
1665673071193,0.028320312,-1.0012817,0.053894043,0.125,0.203125,0.03125
1665673071223,0.026855469,-0.99664307,0.03704834,-0.078125,0.21875,-0.140625
1665673071268,0.028320312,-1.0049438,0.04559326,0.53125,0.15625,0.125
1665673071313,0.024414062,-0.99664307,0.042663574,0.046875,0.296875,-0.203125
1665673071343,0.025146484,-1.0012817,0.04852295,-0.265625,0.609375,-0.09375
1665673071388,0.033935547,-0.99591064,0.047790527,1.28125,0.03125,0.25
1665673071433,0.029541016,-1.0071411,0.031433105,0.703125,-0.109375,0.03125
1665673071463,0.022460938,-0.9907837,0.051940918,0.328125,0.78125,-0.015625
1665673071508,0.029785156,-0.99835205,0.038024902,0.0,-0.0625,0.078125
1665673071538,0.033935547,-0.99005127,0.039733887,0.671875,0.078125,-0.21875
1665673071583,0.022216797,-0.9993286,0.03704834,0.046875,0.5,-0.125
1665673071628,0.024658203,-0.9968872,0.047302246,0.390625,0.78125,0.234375
1665673071657,0.03173828,-0.9993286,0.046081543,1.328125,0.015625,0.5
1665673071703,0.03100586,-0.9961548,0.043395996,0.5,-0.296875,-0.28125
1665673071762,0.021484375,-0.9990845,0.04119873,-0.109375,-0.15625,-0.1875
1665673071825,0.022949219,-0.9985962,0.03363037,0.0625,0.15625,0.296875
1665673071827,0.032470703,-1.0010376,0.043151855,0.578125,-0.125,0.234375
1665673071871,0.02368164,-0.99713135,0.038513184,-0.6875,0.375,0.015625
1665673071898,0.026123047,-0.9932251,0.042419434,1.0,0.3125,0.453125
1665673071943,0.030273438,-0.9981079,0.03265381,0.84375,0.203125,0.484375
1665673071988,0.032470703,-1.00177,0.039978027,0.359375,0.40625,0.21875
1665673072019,0.029541016,-0.99664307,0.04559326,0.03125,0.703125,0.03125
1665673072063,0.028808594,-1.00177,0.038757324,-0.015625,0.296875,0.15625
1665673072107,0.028320312,-0.99713135,0.038513184,-0.65625,0.515625,0.28125
1665673072137,0.03173828,-0.9920044,0.038757324,-0.03125,-0.09375,0.25
1665673072183,0.029785156,-0.99224854,0.034851074,0.15625,-0.21875,-0.109375
1665673072228,0.028564453,-0.9990845,0.04168701,0.734375,-0.953125,0.078125
1665673072258,0.03100586,-1.0049438,0.03704834,0.15625,-0.15625,0.015625
1665673072303,0.028320312,-1.000061,0.038269043,0.703125,-0.21875,0.078125
1665673072348,0.032470703,-0.9949341,0.035583496,0.109375,0.046875,0.078125
1665673072378,0.033203125,-0.9963989,0.04046631,-0.390625,0.6875,-0.125
1665673072422,0.029785156,-0.99957275,0.038269043,0.671875,-0.015625,0.28125
1665673072468,0.033447266,-1.0046997,0.0446167,-0.1875,0.828125,0.234375
1665673072498,0.04321289,-0.9902954,0.034606934,0.671875,-0.171875,0.109375
1665673072543,0.031982422,-1.0012817,0.03753662,0.921875,-0.421875,0.0
1665673072572,0.025634766,-1.003479,0.039001465,0.09375,0.125,0.0
1665673072618,0.03149414,-1.0005493,0.034362793,0.390625,0.203125,0.125
1665673072663,0.041503906,-0.99591064,0.03778076,0.625,-0.546875,-0.015625
1665673072692,0.020263672,-0.9951782,0.014831543,-0.703125,0.96875,0.1875
1665673072738,0.046142578,-1.0025024,0.039245605,1.09375,0.21875,0.421875
1665673072783,0.032958984,-0.99664307,0.046081543,0.15625,0.515625,-0.0625
1665673072812,0.021484375,-1.0081177,0.029724121,0.234375,0.015625,0.34375
1665673072858,0.026367188,-0.9907837,0.048034668,0.765625,0.359375,0.234375
1665673072903,0.03100586,-0.99786377,0.032165527,0.671875,-0.515625,0.265625
1665673072933,0.029785156,-0.99468994,0.030944824,0.515625,-0.078125,0.109375
1665673072978,0.033203125,-0.99591064,0.03704834,-0.015625,0.484375,0.015625
1665673073023,0.03564453,-0.99957275,0.035339355,0.09375,0.0625,0.015625
1665673073054,0.033447266,-1.0003052,0.038024902,0.0,0.140625,0.0625
1665673073098,0.032714844,-0.99346924,0.035827637,-0.0625,-0.140625,-0.046875
1665673073143,0.030761719,-0.9902954,0.034362793,-0.46875,0.234375,-0.046875
1665673073172,0.030273438,-0.99542236,0.030212402,-0.78125,0.703125,0.0
1665673073218,0.036132812,-0.99884033,0.0289917,-0.203125,0.34375,0.1875
1665673073263,0.03466797,-0.9915161,0.04949951,0.25,0.28125,0.015625
1665673073292,0.030029297,-1.0059204,0.030212402,-0.390625,0.109375,-0.25
1665673073337,0.026367188,-0.99224854,0.039978027,0.375,0.375,-0.1875
1665673073382,0.023925781,-0.99884033,0.03289795,-0.21875,0.21875,0.234375
1665673073414,0.048095703,-1.0037231,0.032165527,-0.21875,0.328125,-0.078125
1665673073459,0.041259766,-0.99591064,0.029724121,0.09375,0.390625,-0.296875
1665673073503,0.036132812,-0.9990845,0.039978027,-1.078125,0.984375,0.015625
1665673073533,0.033447266,-0.98760986,0.039245605,0.109375,0.765625,0.390625
1665673073577,0.03564453,-1.0122681,0.042663574,-0.015625,0.390625,-0.046875
1665673073623,0.030761719,-0.9927368,0.040222168,-0.03125,0.4375,-0.0625
1665673073653,0.03125,-0.9961548,0.046081543,-0.1875,0.46875,-0.375
1665673073697,0.0234375,-1.0046997,0.0289917,-0.28125,0.5625,0.0
1665673073728,0.02734375,-0.99835205,0.03363037,0.046875,0.828125,-0.015625
1665673073773,0.045898438,-1.0005493,0.04925537,0.40625,0.984375,0.03125
1665673073818,0.030273438,-0.9998169,0.034362793,-0.015625,0.578125,-0.140625
1665673073848,0.033935547,-0.99835205,0.034118652,-1.46875,0.671875,-0.390625
1665673073893,0.03149414,-0.9939575,0.054382324,0.8125,-0.140625,-0.25
1665673073938,0.029785156,-1.0003052,0.046569824,-0.484375,0.921875,0.046875
1665673073968,0.03857422,-0.987854,0.039245605,0.234375,0.484375,-0.265625
1665673074013,0.030273438,-1.00177,0.03363037,-0.234375,0.734375,0.078125
1665673074058,0.036376953,-0.99468994,0.058044434,0.609375,0.5,-0.171875
1665673074088,0.029052734,-1.0025024,0.053894043,-0.03125,0.453125,-0.203125
1665673074133,0.033447266,-0.986145,0.04144287,-0.140625,0.390625,-0.421875
1665673074178,0.031982422,-1.0046997,0.047302246,0.09375,0.03125,-0.015625
1665673074209,0.02734375,-0.9985962,0.042907715,-0.390625,0.703125,-0.21875
1665673074253,0.033203125,-1.0012817,0.04510498,-0.046875,0.21875,-0.078125
1665673074298,0.025146484,-0.9951782,0.049743652,0.390625,0.25,-0.171875
1665673074328,0.028808594,-0.99786377,0.04071045,0.09375,0.46875,-0.015625
1665673074373,0.042236328,-1.0005493,0.054626465,0.109375,0.515625,-0.234375
1665673074417,0.020996094,-0.99102783,0.04949951,0.140625,0.921875,-0.046875
1665673074450,0.032958984,-1.0081177,0.042175293,0.28125,0.15625,0.125
1665673074493,0.02758789,-0.9937134,0.05291748,0.640625,0.578125,-0.25
1665673074537,0.030517578,-1.0049438,0.034851074,-0.25,0.625,0.125
1665673074568,0.037841797,-1.0003052,0.04925537,0.515625,0.171875,-0.109375
1665673074613,0.024902344,-0.99176025,0.061706543,0.765625,1.03125,-0.015625
1665673074688,0.03515625,-0.9998169,0.03338623,0.8125,-0.171875,0.359375
1665673074691,0.03515625,-1.003479,0.04071045,-0.515625,0.34375,-0.390625
1665673074736,0.018310547,-0.9920044,0.05218506,0.140625,0.8125,0.0625
1665673074763,0.033447266,-0.99713135,0.032409668,0.296875,0.140625,0.21875
1665673074808,0.033203125,-0.99884033,0.04510498,-0.265625,0.796875,-0.328125
1665673074853,0.029052734,-0.9976196,0.038269043,-0.515625,0.640625,-0.171875
1665673074883,0.02734375,-0.9998169,0.03729248,0.203125,0.390625,-0.1875
1665673074928,0.033203125,-0.99835205,0.04949951,0.390625,0.390625,-0.125
1665673074973,0.024658203,-0.9981079,0.039489746,-0.546875,0.8125,-0.171875
1665673075003,0.032714844,-0.9998169,0.046325684,0.265625,0.203125,0.171875
1665673075048,0.030517578,-1.0039673,0.043640137,0.578125,0.375,0.140625
1665673075093,0.026123047,-0.99224854,0.047058105,-0.234375,0.609375,-0.203125
1665673075123,0.026123047,-0.99298096,0.046813965,-0.015625,0.828125,-0.125
1665673075168,0.030761719,-1.0046997,0.050476074,0.71875,0.359375,0.078125
1665673075213,0.028076172,-1.005188,0.043151855,0.078125,0.546875,-0.046875
1665673075245,0.03173828,-0.9951782,0.051208496,-0.40625,0.828125,-0.21875
1665673075288,0.03466797,-0.9990845,0.047058105,0.34375,0.125,0.0625
1665673075333,0.036621094,-0.9907837,0.0368042,-0.21875,0.515625,0.015625
1665673075363,0.036376953,-1.0020142,0.04852295,0.296875,0.21875,0.234375
1665673075409,0.03515625,-0.9976196,0.041931152,-0.09375,0.0625,-0.328125
1665673075453,0.02758789,-0.9949341,0.04071045,-0.15625,0.359375,0.0
1665673075482,0.028320312,-0.99786377,0.05731201,0.234375,0.828125,0.25
1665673075528,0.036376953,-0.9949341,0.036071777,0.828125,-0.34375,-0.171875
1665673075573,0.025878906,-1.0130005,0.039733887,-0.25,0.15625,-0.1875
1665673075602,0.029541016,-0.9920044,0.05657959,0.53125,-0.234375,0.015625
1665673075648,0.026367188,-0.9976196,0.03387451,-0.09375,0.296875,0.125
1665673075725,0.037841797,-0.9961548,0.046081543,0.15625,0.21875,0.0
1665673075727,0.02368164,-0.9998169,0.03314209,-0.046875,0.015625,-0.015625
1665673075768,0.033691406,-1.0027466,0.045837402,0.9375,0.046875,0.40625
1665673075798,0.026611328,-1.0005493,0.043151855,0.484375,-0.453125,0.015625
1665673075843,0.029785156,-1.00177,0.04949951,0.46875,-0.6875,0.1875
1665673075888,0.03125,-0.9981079,0.04925537,0.171875,-1.84375,0.1875
1665673075918,0.026123047,-0.99957275,0.046081543,-0.328125,-1.046875,-0.03125
1665673075964,0.030761719,-1.0005493,0.031188965,0.296875,-1.109375,0.34375
1665673076008,0.030517578,-0.99542236,0.043151855,0.65625,-1.109375,0.140625
1665673076039,0.029785156,-0.9976196,0.04510498,0.140625,-0.75,0.125
1665673076083,0.028076172,-0.99346924,0.048034668,0.515625,-0.609375,0.203125
1665673076128,0.033203125,-1.0025024,0.045837402,0.515625,-0.203125,0.3125
1665673076158,0.040771484,-1.0054321,0.047302246,0.921875,-0.375,0.234375
1665673076203,0.03881836,-0.99884033,0.034851074,0.609375,-0.578125,0.21875
1665673076248,0.03173828,-0.987854,0.039733887,0.5,-0.546875,0.03125
1665673076280,0.027832031,-1.0022583,0.047058105,0.375,-0.09375,0.3125
1665673076323,0.038330078,-1.000061,0.042175293,0.09375,-0.359375,0.203125
1665673076368,0.036865234,-0.9920044,0.042175293,0.6875,-0.84375,0.03125
1665673076397,0.028320312,-0.991272,0.039978027,1.25,-0.96875,0.203125
1665673076443,0.03881836,-1.0027466,0.024597168,0.703125,-1.046875,0.640625
1665673076487,0.037597656,-1.0003052,0.043640137,0.734375,-0.6875,-0.078125
1665673076518,0.028808594,-0.9973755,0.04046631,-0.015625,-0.203125,0.0625
1665673076563,0.032714844,-0.991272,0.029968262,0.78125,0.171875,0.4375
1665673076608,0.039794922,-1.0039673,0.04119873,0.21875,-0.03125,0.34375
1665673076638,0.033935547,-0.9985962,0.04144287,0.875,0.625,0.328125
1665673076683,0.036376953,-0.9976196,0.038757324,0.671875,-0.359375,0.21875
1665673076728,0.031982422,-0.98931885,0.044128418,0.328125,0.40625,0.265625
1665673076757,0.031982422,-1.0029907,0.039978027,0.203125,-0.109375,0.203125
1665673076803,0.04345703,-0.9998169,0.035827637,0.265625,0.046875,0.34375
1665673076848,0.03930664,-0.9993286,0.031677246,0.46875,-0.21875,0.0625
1665673076877,0.03100586,-0.9990845,0.034851074,-0.015625,0.296875,0.1875
1665673076923,0.033691406,-0.99664307,0.038024902,0.109375,0.546875,0.3125
1665673076953,0.036865234,-0.99664307,0.03729248,-0.203125,0.3125,0.078125
1665673076998,0.041259766,-0.99005127,0.031433105,0.484375,-0.046875,0.296875
1665673077042,0.038330078,-0.99542236,0.03778076,0.015625,-0.21875,-0.078125
1665673077073,0.04296875,-1.0054321,0.039978027,-0.375,0.015625,0.03125
1665673077118,0.036865234,-0.9885864,0.040222168,0.265625,-0.203125,-0.140625
1665673077163,0.041992188,-1.0100708,0.032165527,0.078125,0.0625,-0.078125
1665673077193,0.041748047,-0.99102783,0.038513184,0.046875,-0.046875,0.078125
1665673077238,0.03857422,-1.0015259,0.02923584,-0.875,0.1875,-0.03125
1665673077298,0.04321289,-1.0010376,0.041931152,-0.28125,0.953125,-0.015625
1665673077312,0.03857422,-1.0005493,0.043395996,0.25,-0.203125,0.015625
1665673077359,0.04272461,-0.99005127,0.04046631,-0.671875,0.828125,-0.375
1665673077403,0.036376953,-0.9998169,0.04046631,0.546875,0.0,0.28125
1665673077436,0.043701172,-1.0005493,0.043884277,0.0,0.453125,-0.03125
1665673077478,0.042236328,-0.9973755,0.04827881,0.671875,-0.625,-0.140625
1665673077522,0.0390625,-1.0027466,0.042419434,-0.734375,0.296875,-0.546875
1665673077553,0.033691406,-0.99224854,0.03656006,-0.4375,-0.046875,-0.0625
1665673077598,0.041015625,-1.0054321,0.043884277,0.359375,0.5625,-0.015625
1665673077643,0.041748047,-0.99713135,0.04827881,-0.828125,0.671875,-0.390625
1665673077673,0.033447266,-0.9932251,0.043640137,-0.625,0.59375,-0.359375
1665673077718,0.033935547,-0.99420166,0.045837402,0.03125,1.09375,0.015625
1665673077763,0.04321289,-0.99713135,0.048034668,-0.421875,0.53125,-0.28125
1665673077793,0.037353516,-0.99835205,0.043884277,0.21875,0.75,-0.09375
1665673077838,0.038085938,-0.9985962,0.042907715,0.71875,0.296875,-0.234375
1665673077883,0.036132812,-0.99786377,0.04901123,-0.515625,0.75,-0.203125
1665673077913,0.041503906,-0.9981079,0.042175293,-0.359375,0.484375,-0.21875
1665673077958,0.036132812,-0.99835205,0.04095459,0.65625,0.34375,-0.15625
1665673077988,0.03491211,-0.98931885,0.055847168,-0.3125,1.375,-0.28125
1665673078033,0.038330078,-0.9944458,0.047302246,0.03125,0.375,-0.046875
1665673078078,0.03149414,-1.0105591,0.042175293,0.640625,0.265625,-0.1875
1665673078110,0.031982422,-0.99005127,0.047546387,-0.703125,1.0625,-0.140625
1665673078152,0.041748047,-0.9932251,0.047790527,0.3125,0.671875,0.125
1665673078197,0.034423828,-0.99786377,0.045837402,-0.46875,1.171875,-0.203125
1665673078227,0.03540039,-1.0039673,0.039733887,0.8125,0.65625,0.03125
1665673078272,0.040283203,-1.0061646,0.05267334,0.109375,1.375,0.140625
1665673078318,0.034423828,-0.9937134,0.05340576,0.3125,0.1875,-0.4375
1665673078348,0.03149414,-0.9985962,0.04852295,0.265625,0.875,-0.125
1665673078392,0.03149414,-1.0027466,0.047302246,-0.328125,0.296875,-0.09375
1665673078437,0.03564453,-0.9927368,0.047302246,0.015625,0.90625,-0.234375
1665673078468,0.034179688,-0.9939575,0.04144287,-0.71875,0.9375,-0.09375
1665673078513,0.033203125,-1.0056763,0.039978027,0.078125,0.515625,0.078125
1665673078558,0.036376953,-0.99591064,0.047546387,-0.390625,1.375,-0.203125
1665673078588,0.030273438,-0.9951782,0.04559326,-0.203125,1.015625,-0.078125
1665673078633,0.037353516,-1.0003052,0.054138184,0.453125,0.375,-0.015625
1665673078678,0.03149414,-1.000061,0.04925537,0.15625,0.703125,-0.125
1665673078708,0.03564453,-1.010315,0.05340576,-0.203125,0.859375,0.03125
1665673078753,0.034179688,-0.99468994,0.039733887,0.359375,0.625,-0.078125
1665673078797,0.025146484,-0.9927368,0.051208496,0.0,0.890625,0.0
1665673078827,0.033691406,-1.0066528,0.03704834,0.1875,0.5,0.03125
1665673078873,0.041015625,-0.9949341,0.06561279,0.375,0.921875,-0.234375
1665673078918,0.030029297,-1.0020142,0.04437256,-0.59375,0.34375,-0.09375
1665673078948,0.033935547,-1.000061,0.045837402,-0.359375,0.578125,-0.40625
1665673078993,0.03100586,-0.9937134,0.05267334,0.59375,0.265625,0.171875
1665673079038,0.036865234,-0.9990845,0.043640137,0.203125,0.46875,-0.03125
1665673079068,0.032470703,-0.9939575,0.04852295,0.078125,0.546875,-0.265625
1665673079113,0.03149414,-0.99786377,0.046813965,0.375,0.71875,-0.015625
1665673079143,0.03491211,-1.0027466,0.050964355,0.828125,0.15625,0.109375
1665673079188,0.028076172,-1.0022583,0.050476074,0.1875,0.359375,-0.359375
1665673079233,0.033447266,-0.99786377,0.046325684,0.0625,0.4375,-0.15625
1665673079262,0.033691406,-0.9951782,0.051696777,0.015625,0.421875,-0.09375
1665673079308,0.03466797,-1.0054321,0.04852295,0.59375,0.125,0.171875
1665673079353,0.034179688,-0.986145,0.046325684,-0.1875,0.390625,0.09375
1665673079383,0.03149414,-1.00177,0.05316162,0.328125,0.234375,0.09375
1665673079427,0.034179688,-0.9981079,0.04949951,0.34375,0.234375,0.03125
1665673079473,0.033203125,-1.0059204,0.045837402,0.25,0.109375,-0.015625
1665673079502,0.02709961,-0.9963989,0.05267334,-0.046875,0.453125,0.03125
1665673079547,0.030761719,-1.00177,0.057556152,0.609375,0.265625,0.4375
1665673079592,0.028564453,-0.9915161,0.05267334,-0.703125,0.03125,-0.125
1665673079622,0.027832031,-0.9956665,0.047058105,-0.390625,0.609375,-0.046875
1665673079668,0.03540039,-0.99664307,0.04486084,0.859375,-0.421875,0.234375
1665673079712,0.038085938,-1.0066528,0.054870605,0.828125,0.375,0.078125
1665673079742,0.030029297,-0.9968872,0.04437256,0.65625,-0.75,0.171875
1665673079788,0.037109375,-1.0037231,0.045837402,-0.390625,-0.140625,-0.109375
1665673079832,0.032226562,-0.9993286,0.04949951,0.71875,-1.234375,0.0
1665673079862,0.03149414,-0.9968872,0.04827881,-0.484375,0.265625,0.015625
1665673079907,0.03466797,-0.9949341,0.043151855,0.25,-0.109375,0.078125
1665673079952,0.033203125,-0.9985962,0.051208496,0.734375,-0.03125,0.15625
1665673079982,0.032958984,-1.0081177,0.049743652,0.5,0.015625,0.203125
1665673080027,0.03955078,-0.9961548,0.04046631,0.703125,-0.90625,0.015625
1665673080071,0.037353516,-0.9981079,0.04852295,0.234375,-0.765625,-0.3125
1665673080103,0.03100586,-1.0027466,0.0446167,0.0,-0.71875,0.390625
1665673080147,0.033203125,-0.986145,0.050964355,0.140625,-0.421875,-0.015625
1665673080176,0.03466797,-1.0007935,0.034851074,-0.734375,-0.515625,0.0625
1665673080223,0.03540039,-0.9932251,0.05218506,0.015625,0.453125,-0.34375
1665673080282,0.024414062,-0.9956665,0.04827881,-0.953125,0.828125,0.0
1665673080296,0.03881836,-1.000061,0.042907715,0.40625,0.328125,0.21875
1665673080343,0.038330078,-1.005188,0.04559326,0.6875,-0.25,0.265625
1665673080388,0.037841797,-0.99420166,0.04437256,0.390625,-0.0625,0.0625
1665673080418,0.034423828,-0.9920044,0.04486084,0.109375,-0.21875,0.03125
1665673080464,0.030761719,-1.00177,0.04925537,0.921875,-0.5,0.1875
1665673080508,0.033203125,-1.000061,0.042175293,0.484375,-0.109375,0.078125
1665673080537,0.040771484,-0.9956665,0.048034668,1.140625,-0.796875,0.34375
1665673080583,0.03149414,-1.00177,0.03778076,0.375,-0.46875,-0.046875
1665673080628,0.03930664,-1.0042114,0.04510498,0.234375,-0.71875,0.09375
1665673080657,0.037841797,-0.99713135,0.047790527,-0.171875,-0.53125,-0.234375
1665673080703,0.016113281,-0.99713135,0.045837402,-0.875,1.078125,0.046875
1665673080748,0.041503906,-1.0083618,0.038024902,0.90625,-0.125,0.765625
1665673080778,0.053466797,-0.9927368,0.057556152,1.171875,-0.078125,0.125
1665673080823,0.032958984,-0.99102783,0.046325684,0.0625,0.140625,0.046875
1665673080869,0.037597656,-0.9993286,0.04486084,1.203125,-0.359375,0.421875
1665673080898,0.036376953,-1.00177,0.04095459,0.375,0.0625,0.28125
1665673080943,0.04248047,-1.0105591,0.03753662,0.09375,-0.4375,0.046875
1665673080988,0.0390625,-0.9939575,0.039489746,-0.453125,0.4375,-0.1875
1665673081018,0.035888672,-0.9976196,0.035827637,-0.09375,0.109375,0.21875
1665673081063,0.041015625,-0.9993286,0.043151855,0.34375,0.0625,0.015625
1665673081138,0.036621094,-0.9976196,0.04486084,-0.625,0.4375,-0.171875
1665673081141,0.041259766,-0.9968872,0.04510498,0.75,-0.25,0.0625
1665673081184,0.031982422,-0.9956665,0.043640137,-0.09375,0.078125,-0.296875
1665673081228,0.040283203,-1.0003052,0.036315918,-0.78125,0.5,0.078125
1665673081259,0.04638672,-0.9990845,0.05340576,0.984375,-0.125,-0.125
1665673081303,0.029785156,-0.9927368,0.04046631,-0.015625,0.3125,0.171875
1665673081335,0.034423828,-0.9976196,0.050476074,-0.046875,0.484375,-0.1875
1665673081378,0.034423828,-0.99664307,0.04486084,0.046875,0.109375,-0.15625
1665673081422,0.03540039,-0.9937134,0.04144287,0.015625,0.234375,-0.203125
1665673081452,0.036376953,-0.9883423,0.047058105,-0.421875,1.109375,-0.03125
1665673081498,0.040771484,-1.0022583,0.039489746,0.46875,0.359375,0.203125
1665673081543,0.04272461,-0.9939575,0.05291748,0.546875,0.03125,-0.140625
1665673081573,0.03149414,-0.9968872,0.039489746,0.171875,0.109375,-0.328125
1665673081619,0.040527344,-0.9939575,0.04949951,0.46875,0.375,-0.078125
1665673081663,0.037597656,-1.0027466,0.045837402,0.546875,0.34375,0.171875
1665673081693,0.045410156,-0.9968872,0.042419434,0.375,-0.09375,-0.234375
1665673081738,0.031982422,-0.99835205,0.046569824,-0.984375,0.78125,-0.25
1665673081783,0.035888672,-0.9902954,0.042175293,-0.125,0.515625,0.0
1665673081813,0.032714844,-0.9968872,0.047058105,-0.46875,0.84375,-0.296875
1665673081858,0.033691406,-1.0032349,0.050231934,-0.296875,0.890625,-0.046875
1665673081904,0.041748047,-0.9956665,0.04852295,0.078125,0.71875,-0.390625
1665673081933,0.032226562,-0.99957275,0.054382324,0.703125,0.953125,0.234375
1665673081978,0.040527344,-1.0044556,0.034606934,-0.078125,0.265625,-0.078125
1665673082023,0.036132812,-1.0046997,0.0524292,-0.671875,0.6875,-0.703125
1665673082053,0.029785156,-0.9859009,0.05340576,0.140625,0.03125,0.046875
1665673082099,0.037841797,-1.0012817,0.04144287,-0.546875,0.796875,-0.34375
1665673082143,0.036621094,-0.99884033,0.04852295,-0.1875,0.734375,-0.171875
1665673082173,0.028808594,-0.9998169,0.047790527,-0.484375,0.953125,0.0625
1665673082219,0.032226562,-0.99224854,0.04852295,0.296875,0.859375,-0.046875
1665673082263,0.052246094,-1.0027466,0.03778076,-0.828125,1.15625,0.09375
1665673082295,0.037597656,-1.0049438,0.053649902,0.34375,-0.03125,-0.28125
1665673082338,0.028076172,-0.9924927,0.058044434,-0.234375,0.859375,-0.25
1665673082368,0.026611328,-0.9932251,0.04827881,-0.015625,0.484375,0.21875
1665673082413,0.036621094,-0.991272,0.051696777,0.078125,0.578125,-0.328125
1665673082461,0.026123047,-0.9981079,0.059265137,0.125,1.359375,-0.09375
1665673082488,0.041259766,-0.99591064,0.042663574,0.09375,0.734375,0.109375
1665673082533,0.03881836,-1.0025024,0.051452637,0.25,0.53125,-0.234375
1665673082578,0.029052734,-0.99713135,0.05706787,-0.15625,1.078125,-0.109375
1665673082608,0.035888672,-0.9963989,0.046569824,0.53125,0.21875,-0.140625
1665673082652,0.031982422,-0.9963989,0.05633545,0.359375,0.15625,-0.3125
1665673082698,0.025634766,-1.0025024,0.042907715,-0.921875,0.703125,-0.140625
1665673082728,0.03173828,-0.98687744,0.05340576,1.0625,0.0,-0.28125
1665673082773,0.024902344,-0.9998169,0.054382324,0.078125,0.328125,-0.078125
1665673082818,0.03100586,-0.9920044,0.050964355,-0.203125,0.875,-0.25
1665673082848,0.033203125,-1.0022583,0.051208496,0.75,0.359375,0.109375
1665673082893,0.030761719,-0.9956665,0.055847168,0.296875,0.609375,0.03125
1665673082938,0.03881836,-1.0044556,0.04901123,0.03125,0.296875,-0.03125
1665673082968,0.029296875,-0.99176025,0.059265137,0.0625,0.1875,-0.5
1665673083013,0.020751953,-0.99713135,0.051940918,0.46875,0.046875,0.078125
1665673083059,0.029052734,-0.9924927,0.05609131,-0.375,0.796875,0.125
1665673083088,0.028808594,-1.0010376,0.042419434,0.21875,0.265625,-0.328125
1665673083133,0.027832031,-1.00177,0.047790527,-0.15625,0.453125,0.0
1665673083178,0.0390625,-1.0007935,0.04486084,-0.09375,0.296875,-0.015625
1665673083208,0.026367188,-0.99835205,0.054382324,0.28125,0.28125,0.078125
1665673083253,0.025634766,-1.0015259,0.04437256,-0.046875,0.53125,0.125
1665673083298,0.03100586,-0.99835205,0.048034668,-0.046875,0.21875,-0.25
1665673083328,0.024414062,-0.98931885,0.046569824,0.765625,0.625,0.1875
1665673083373,0.028564453,-0.9963989,0.05657959,0.390625,0.828125,0.171875
1665673083403,0.03857422,-0.99420166,0.047790527,0.421875,0.0625,-0.15625
1665673083448,0.020996094,-0.9985962,0.051452637,-0.75,1.453125,-0.375
1665673083493,0.029052734,-0.9924927,0.05340576,1.296875,0.265625,0.15625
1665673083523,0.028320312,-1.0020142,0.05633545,-0.109375,0.78125,0.0
1665673083568,0.036132812,-1.000061,0.042419434,0.15625,0.46875,-0.109375
1665673083613,0.028808594,-0.9993286,0.050231934,-0.03125,0.21875,-0.3125
1665673083643,0.025634766,-0.99298096,0.050231934,0.4375,0.15625,0.09375
1665673083688,0.031982422,-1.0015259,0.04901123,0.171875,0.0625,-0.046875
1665673083733,0.026855469,-0.9963989,0.05267334,-0.109375,0.3125,-0.34375
1665673083763,0.033203125,-0.9976196,0.055847168,0.5,-0.171875,-0.0625
1665673083808,0.02319336,-0.9915161,0.041931152,0.0,0.5625,-0.015625
1665673083853,0.026611328,-0.9985962,0.050231934,0.484375,0.078125,0.09375
1665673083883,0.028076172,-1.0056763,0.04901123,0.0,0.53125,0.0
1665673083927,0.029296875,-0.9956665,0.054138184,-0.078125,0.46875,0.03125
1665673083973,0.026367188,-0.9956665,0.057556152,0.265625,0.203125,0.015625
1665673084002,0.03100586,-0.99884033,0.059265137,0.015625,0.5,-0.125
1665673084048,0.030029297,-0.9973755,0.046081543,0.78125,0.234375,0.328125
1665673084093,0.025634766,-0.99957275,0.04876709,0.328125,0.1875,0.234375
1665673084123,0.029296875,-1.0090942,0.046569824,0.34375,0.40625,0.234375
1665673084169,0.028320312,-0.99542236,0.0524292,0.15625,0.703125,0.28125
1665673084213,0.03100586,-1.000061,0.043151855,0.78125,0.109375,0.234375
1665673084243,0.033935547,-1.0073853,0.043151855,-0.453125,0.828125,-0.3125
1665673084289,0.025146484,-0.9883423,0.054626465,1.703125,-0.6875,0.0
1665673084333,0.024414062,-1.0022583,0.04901123,-0.0625,0.4375,0.140625
1665673084363,0.036865234,-0.989563,0.042907715,0.28125,0.28125,-0.015625
1665673084408,0.022705078,-0.99957275,0.046569824,0.703125,0.171875,0.453125
1665673084453,0.043701172,-0.99102783,0.046569824,1.21875,0.34375,0.421875
1665673084483,0.03125,-1.0039673,0.046081543,-0.453125,0.375,0.0
1665673084528,0.023925781,-0.99786377,0.047058105,1.0625,-0.75,0.1875
1665673084559,0.023925781,-1.015686,0.050476074,-0.125,0.015625,0.328125
1665673084602,0.03881836,-0.9902954,0.034851074,0.453125,-0.3125,0.171875
1665673084650,0.024902344,-0.9920044,0.040222168,0.65625,-0.1875,0.046875
1665673084677,0.032470703,-0.9998169,0.038757324,1.3125,0.109375,0.46875
1665673084723,0.037597656,-1.0005493,0.04168701,0.65625,0.09375,0.21875
1665673084783,0.041015625,-1.00177,0.042907715,0.796875,0.03125,0.28125
1665673084843,0.036376953,-0.9961548,0.035827637,1.140625,-0.375,0.34375
1665673084845,0.034423828,-0.9961548,0.02923584,1.171875,-0.53125,0.46875
1665673084889,0.041992188,-0.9937134,0.043884277,0.65625,-0.296875,0.046875
1665673084917,0.030517578,-1.0039673,0.03729248,1.078125,-0.53125,0.25
1665673084963,0.033935547,-0.9866333,0.04046631,1.375,-0.234375,0.359375
1665673085008,0.032226562,-1.0027466,0.038513184,0.90625,-0.390625,0.796875
1665673085038,0.041259766,-1.0049438,0.030944824,-0.34375,0.21875,0.171875
1665673085083,0.03930664,-0.9944458,0.031188965,1.453125,-1.046875,0.546875
1665673085128,0.03466797,-0.9949341,0.03265381,1.15625,-0.109375,0.140625
1665673085158,0.032226562,-1.0029907,0.028747559,0.84375,-0.046875,0.78125
1665673085218,0.043701172,-0.9998169,0.03265381,1.359375,-0.125,0.625
1665673085248,0.045410156,-0.99176025,0.024353027,1.3125,-0.21875,0.515625
1665673085278,0.040283203,-0.9956665,0.031188965,1.296875,-0.546875,0.265625
1665673085323,0.033447266,-0.9961548,0.031433105,0.421875,0.0625,0.359375
1665673085368,0.042236328,-1.0027466,0.01751709,0.515625,-0.140625,0.421875
1665673085398,0.052490234,-0.99786377,0.016052246,0.484375,0.046875,0.09375
1665673085443,0.04345703,-0.99346924,0.026062012,0.21875,0.203125,0.15625
1665673085489,0.045166016,-1.0020142,0.014099121,0.6875,0.015625,0.265625
1665673085517,0.052978516,-0.9915161,0.024353027,0.765625,0.3125,0.0
1665673085563,0.044189453,-0.9998169,0.029724121,0.203125,-0.421875,-0.078125
1665673085593,0.040527344,-1.000061,0.020202637,0.453125,0.3125,0.15625
1665673085638,0.05078125,-0.99884033,0.019470215,0.265625,0.109375,-0.140625
1665673085683,0.044433594,-0.9937134,0.022155762,0.859375,-0.109375,0.046875
1665673085713,0.036376953,-1.0005493,0.018493652,0.515625,0.015625,0.28125
1665673085758,0.05419922,-1.0003052,0.02947998,1.234375,-0.578125,0.015625
1665673085803,0.045654297,-0.9829712,0.02166748,-0.046875,-0.171875,-0.171875
1665673085832,0.03491211,-1.0005493,0.008972168,0.328125,0.140625,0.453125
1665673085893,0.056396484,-0.99591064,0.02166748,0.890625,0.078125,0.140625
1665673085953,0.04248047,-1.0039673,0.020690918,0.671875,-0.078125,-0.078125
1665673085956,0.037841797,-0.9968872,0.017028809,0.1875,-0.203125,-0.296875
1665673085998,0.0390625,-0.99835205,0.0119018555,0.28125,0.3125,-0.0625
1665673086043,0.04663086,-0.99468994,0.012390137,0.03125,0.28125,0.296875
1665673086073,0.04736328,-0.99835205,0.024841309,-0.65625,0.59375,-0.328125
1665673086118,0.048828125,-0.9944458,0.024353027,-0.625,0.65625,-0.171875
1665673086164,0.037597656,-1.000061,0.016784668,-0.59375,0.140625,-0.296875
1665673086193,0.044433594,-0.9951782,0.02508545,-0.484375,0.65625,-0.296875
1665673086238,0.048583984,-0.9976196,0.022399902,-0.25,-0.03125,-0.0625
1665673086283,0.041503906,-0.99298096,0.016784668,-0.265625,0.53125,-0.171875
1665673086313,0.0390625,-0.9944458,0.03778076,-0.328125,1.1875,0.015625
1665673086359,0.044433594,-0.9985962,0.024108887,0.1875,0.28125,-0.046875
1665673086403,0.04248047,-1.0078735,0.023376465,-0.1875,0.359375,-0.09375
1665673086433,0.0390625,-0.99713135,0.028259277,-0.46875,0.65625,-0.359375
1665673086479,0.041259766,-0.9915161,0.019958496,-0.546875,1.25,-0.078125
1665673086523,0.037597656,-0.9907837,0.028015137,-0.734375,1.34375,-0.109375
1665673086553,0.04296875,-1.0059204,0.027770996,-0.828125,0.796875,-0.03125
1665673086599,0.042236328,-0.9915161,0.02947998,0.0625,0.625,0.109375
1665673086643,0.043701172,-1.0071411,0.019958496,-0.734375,0.15625,-0.46875
1665673086673,0.035888672,-0.989563,0.032165527,-0.390625,0.390625,-0.53125
1665673086718,0.033935547,-1.0044556,0.034118652,0.125,0.546875,0.171875
1665673086748,0.044921875,-0.98638916,0.027770996,-0.5,0.765625,-0.1875
1665673086793,0.037597656,-0.99664307,0.031921387,-0.0625,0.59375,-0.25
1665673086839,0.03955078,-0.9968872,0.034118652,0.21875,0.921875,-0.25
1665673086868,0.03881836,-0.9976196,0.035827637,0.234375,0.9375,0.015625
1665673086913,0.040771484,-0.99420166,0.0368042,-0.65625,0.78125,-0.234375
1665673086958,0.040039062,-1.0029907,0.034362793,0.265625,0.203125,-0.3125
1665673086988,0.03540039,-0.98931885,0.035583496,-0.109375,0.734375,-0.40625
1665673087032,0.033447266,-0.9981079,0.04119873,0.21875,0.828125,-0.03125
1665673087078,0.041748047,-0.99957275,0.030212402,-0.140625,0.5625,-0.234375
1665673087123,0.030273438,-1.0029907,0.039733887,-0.859375,0.9375,-0.71875
1665673087155,0.036621094,-0.9949341,0.02947998,0.171875,-0.203125,-0.0625
1665673087198,0.03564453,-0.99713135,0.039245605,-0.46875,1.171875,-0.578125
1665673087228,0.033203125,-1.0003052,0.030212402,-0.234375,0.78125,-0.140625
1665673087273,0.033447266,-1.0071411,0.038269043,0.453125,0.453125,-0.078125
1665673087318,0.0390625,-0.98809814,0.034118652,-0.21875,0.703125,-0.34375
1665673087348,0.033691406,-1.008606,0.038024902,-0.8125,0.59375,-0.671875
1665673087393,0.03540039,-0.99468994,0.034851074,-0.84375,0.703125,-0.46875
1665673087438,0.028320312,-0.9998169,0.038513184,-0.453125,0.40625,-0.296875
1665673087469,0.031982422,-0.9951782,0.03778076,-0.078125,0.640625,-0.078125
1665673087513,0.028076172,-1.0044556,0.035095215,-0.046875,0.40625,-0.15625
1665673087558,0.03149414,-0.9961548,0.04827881,-0.328125,0.921875,-0.125
1665673087590,0.037353516,-0.9956665,0.04095459,-0.53125,0.5625,-0.21875
1665673087633,0.036132812,-0.9990845,0.04534912,0.390625,0.671875,-0.015625
1665673087678,0.032714844,-0.9968872,0.043640137,0.109375,0.5,-0.15625
1665673087707,0.028564453,-0.99591064,0.04852295,-0.09375,0.375,-0.015625
1665673087752,0.03149414,-0.9973755,0.04168701,0.0625,0.5625,0.09375
1665673087783,0.036865234,-1.0022583,0.038757324,0.53125,0.765625,0.1875
1665673087828,0.03466797,-0.99835205,0.04534912,-0.109375,0.171875,-0.296875
1665673087873,0.032714844,-0.9993286,0.03363037,-0.953125,0.546875,-0.46875
1665673087903,0.025390625,-0.9837036,0.04852295,0.625,0.296875,0.03125
1665673087948,0.03515625,-1.0042114,0.043640137,-0.3125,0.375,-0.0625
1665673087993,0.038330078,-0.9944458,0.038757324,0.296875,0.28125,-0.21875
1665673088024,0.034179688,-1.0049438,0.04144287,0.34375,0.03125,-0.25
1665673088068,0.030273438,-0.9968872,0.04486084,0.40625,0.734375,-0.09375
1665673088113,0.038330078,-1.0073853,0.042175293,0.125,0.453125,0.03125
1665673088143,0.033203125,-0.9951782,0.04852295,-0.109375,0.59375,-0.15625
1665673088189,0.025878906,-1.0081177,0.042663574,0.3125,0.140625,0.09375
1665673088233,0.032958984,-0.9956665,0.042419434,-0.03125,0.515625,0.21875
1665673088263,0.03491211,-1.00177,0.036315918,0.203125,0.265625,-0.203125
1665673088309,0.022949219,-1.00177,0.042907715,-0.421875,0.796875,-0.09375
1665673088353,0.03491211,-0.99835205,0.046081543,-0.609375,1.0625,-0.296875
1665673088383,0.040039062,-0.9998169,0.03778076,0.3125,-0.359375,-0.25
1665673088428,0.026855469,-0.99786377,0.050964355,-0.078125,0.78125,-0.359375
1665673088474,0.030029297,-0.99591064,0.034851074,-0.15625,0.171875,-0.015625
1665673088503,0.032226562,-0.9993286,0.04852295,-0.078125,0.171875,-0.28125
1665673088548,0.030761719,-0.9990845,0.04827881,-0.6875,0.578125,-0.359375
1665673088593,0.030273438,-1.0012817,0.045837402,0.625,-0.25,-0.1875
1665673088638,0.018066406,-0.9939575,0.051940918,-0.875,1.203125,-0.25
1665673088683,0.032226562,-0.99957275,0.053894043,1.296875,-0.484375,0.234375
1665673088745,0.030761719,-1.00177,0.03704834,-0.453125,0.25,-0.34375
1665673088747,0.024169922,-0.9915161,0.055847168,0.46875,0.234375,0.078125
1665673088789,0.032958984,-1.0054321,0.054382324,0.296875,0.375,0.421875
1665673088833,0.033691406,-0.98809814,0.043395996,0.671875,0.171875,0.078125
1665673088863,0.028320312,-1.0044556,0.03656006,0.859375,-0.25,0.328125
1665673088908,0.026611328,-0.99713135,0.054138184,1.40625,0.375,0.53125
1665673088938,0.032714844,-0.99542236,0.04046631,0.484375,0.234375,0.34375
1665673088984,0.030761719,-1.0015259,0.04510498,1.4375,0.0,0.140625
1665673089027,0.030761719,-1.0029907,0.039733887,0.53125,-0.625,0.0625
1665673089057,0.032714844,-1.0042114,0.031188965,0.515625,0.421875,0.265625
1665673089104,0.03491211,-0.9907837,0.03265381,1.25,-0.53125,0.328125
1665673089148,0.031982422,-1.0044556,0.03387451,0.859375,-0.15625,0.328125
1665673089178,0.03515625,-0.99884033,0.03363037,0.4375,-0.140625,0.421875
1665673089223,0.032714844,-0.9985962,0.028015137,0.96875,-0.25,0.140625
1665673089268,0.0390625,-1.0015259,0.038269043,1.296875,-0.671875,0.296875
1665673089298,0.03515625,-0.99102783,0.03704834,1.484375,-0.5,0.21875
1665673089343,0.03491211,-0.99957275,0.02923584,1.125,-0.671875,0.453125
1665673089388,0.036132812,-0.9956665,0.03704834,0.015625,-0.328125,0.234375
1665673089420,0.036132812,-0.9968872,0.032165527,1.328125,-0.9375,0.4375
1665673089479,0.025878906,-1.0005493,0.023620605,-0.125,-0.578125,0.34375
1665673089508,0.04272461,-0.9973755,0.032409668,1.6875,-1.28125,0.984375
1665673089538,0.03955078,-1.0022583,0.022399902,0.609375,-0.71875,0.296875
1665673089583,0.03491211,-1.00177,0.031188965,1.5625,-0.984375,0.25
1665673089628,0.04345703,-0.99346924,0.023376465,2.25,-1.40625,0.5
1665673089658,0.037109375,-0.9949341,0.028259277,0.5625,-0.203125,0.4375
1665673089703,0.045898438,-0.99786377,0.027038574,0.78125,-0.453125,0.5
1665673089748,0.040039062,-0.99835205,0.02532959,1.671875,-0.421875,0.09375
1665673089780,0.037597656,-1.0093384,0.01727295,0.65625,-0.015625,0.640625
1665673089824,0.045898438,-0.9885864,0.023620605,1.015625,-0.46875,0.296875
1665673089868,0.043701172,-1.0005493,0.018249512,0.5625,-0.34375,0.25
1665673089898,0.04711914,-0.99591064,0.019958496,1.015625,-0.421875,0.796875
1665673089943,0.048339844,-0.99176025,0.024841309,0.796875,-0.578125,0.0625
1665673089973,0.040527344,-1.0007935,0.011413574,-0.078125,-0.046875,0.203125
1665673090019,0.048339844,-0.98687744,0.020446777,1.046875,-0.3125,0.234375
1665673090063,0.045410156,-0.9937134,0.015319824,-0.046875,0.40625,0.125
1665673090095,0.05102539,-1.0022583,0.016540527,0.390625,-0.21875,0.015625
1665673090138,0.041503906,-0.99786377,0.01751709,-0.03125,0.15625,-0.140625
1665673090199,0.037353516,-0.9924927,-0.0022583008,-0.671875,-0.375,-0.078125
1665673090212,0.049072266,-0.989563,0.035339355,0.375,0.40625,0.0
1665673090258,0.0390625,-0.9937134,0.007507324,-0.125,0.03125,0.0
1665673090303,0.049072266,-1.0078735,0.02166748,-1.015625,0.34375,-0.359375
1665673090333,0.049560547,-0.991272,0.027770996,-0.21875,0.1875,-0.296875
1665673090378,0.040283203,-0.986145,0.016296387,-0.46875,0.65625,-0.25
1665673090423,0.048339844,-1.0081177,0.02532959,-0.765625,0.796875,0.0
1665673090453,0.044921875,-0.99713135,0.027038574,-0.734375,0.484375,-0.390625
1665673090498,0.041259766,-0.9939575,0.016784668,-0.5625,0.75,-0.25
1665673090544,0.043701172,-0.9998169,0.0211792,-0.203125,0.140625,-0.296875
1665673090573,0.045410156,-0.9890747,0.026062012,-0.546875,0.703125,-0.34375
1665673090618,0.035888672,-0.99957275,0.024841309,-0.765625,0.703125,-0.140625
1665673090663,0.048095703,-1.0020142,0.030212402,-0.421875,0.734375,-0.3125
1665673090693,0.03930664,-0.9973755,0.019714355,0.125,0.59375,-0.09375
1665673090738,0.03955078,-0.99542236,0.02947998,-0.140625,0.78125,-0.015625
1665673090783,0.036132812,-0.9859009,0.02508545,-0.890625,1.328125,-0.3125
1665673090813,0.041503906,-0.99786377,0.028503418,-0.359375,1.03125,-0.140625
1665673090858,0.036132812,-0.98809814,0.039733887,0.125,0.6875,-0.171875
1665673090919,0.037841797,-1.0042114,0.036071777,-0.984375,1.28125,-0.21875
1665673090933,0.036376953,-0.9998169,0.028259277,1.296875,0.34375,0.28125
1665673090979,0.03857422,-0.99786377,0.02508545,-0.640625,0.828125,-0.453125
1665673091007,0.040283203,-1.000061,0.0289917,-1.65625,1.5625,-0.578125
1665673091053,0.0390625,-0.9949341,0.031433105,0.4375,0.15625,0.0
1665673091098,0.035888672,-0.9939575,0.02947998,-0.375,1.15625,-0.34375
1665673091128,0.04321289,-0.99591064,0.024353027,-0.375,0.78125,-0.078125
1665673091173,0.038085938,-0.99957275,0.03338623,0.015625,0.640625,-0.078125
1665673091218,0.0390625,-0.99713135,0.038757324,-0.1875,0.84375,-0.25
1665673091250,0.041503906,-0.9963989,0.031188965,-0.515625,0.4375,-0.78125
1665673091293,0.032714844,-0.9976196,0.043395996,-0.21875,0.515625,-0.53125
1665673091338,0.029785156,-0.9944458,0.03729248,-0.453125,0.65625,-0.03125
1665673091368,0.0390625,-0.99713135,0.038269043,-0.921875,1.078125,-0.375
1665673091414,0.029785156,-0.9963989,0.038269043,-1.765625,1.71875,-0.484375
1665673091458,0.033203125,-1.010315,0.04046631,0.59375,1.046875,0.15625
1665673091491,0.038330078,-0.9963989,0.043884277,-0.296875,1.078125,-0.265625
1665673091533,0.033203125,-0.99786377,0.038757324,-0.75,1.140625,-0.453125
1665673091578,0.03491211,-0.9968872,0.04119873,0.015625,0.5,-0.0625
1665673091608,0.041259766,-0.9937134,0.042907715,-0.6875,0.859375,-0.515625
1665673091653,0.042236328,-0.99786377,0.044128418,0.578125,-0.15625,-0.328125
1665673091698,0.032470703,-1.0037231,0.034606934,-0.390625,0.171875,-0.625
1665673091728,0.025878906,-0.99591064,0.049987793,-0.640625,1.109375,-0.5625
1665673091773,0.028076172,-1.0032349,0.042419434,-0.140625,0.625,0.265625
1665673091818,0.030273438,-0.99786377,0.04486084,0.0625,0.8125,-0.21875
1665673091848,0.03149414,-1.005188,0.03289795,-0.609375,0.625,-0.203125
1665673091893,0.037597656,-0.9951782,0.04534912,0.203125,0.5,-0.1875
1665673091938,0.02758789,-1.0022583,0.044128418,-0.15625,0.75,-0.140625
1665673091968,0.030517578,-0.9998169,0.050720215,0.125,0.546875,-0.0625
1665673092013,0.029296875,-0.9990845,0.04876709,-0.171875,0.515625,-0.328125
1665673092058,0.030761719,-0.9944458,0.038513184,-0.28125,0.515625,0.0
1665673092088,0.03173828,-0.9937134,0.051452637,0.390625,0.109375,-0.234375
1665673092133,0.021728516,-1.0022583,0.047058105,-0.1875,0.921875,0.203125
1665673092163,0.036865234,-1.0044556,0.04510498,-0.609375,0.875,0.265625
1665673092208,0.03540039,-1.0027466,0.05682373,0.359375,0.078125,0.046875
1665673092253,0.020507812,-0.9976196,0.04876709,-0.0625,0.6875,0.046875
1665673092283,0.03540039,-1.0027466,0.04119873,0.21875,0.234375,0.0
1665673092329,0.028076172,-0.98931885,0.0524292,0.0,0.515625,-0.109375
1665673092373,0.030761719,-0.99102783,0.046813965,0.09375,0.25,0.0625
1665673092450,0.038330078,-1.0117798,0.039978027,-1.046875,0.453125,-0.125
1665673092452,0.026855469,-0.9920044,0.06341553,0.828125,-0.171875,-0.140625
1665673092494,0.021728516,-0.9956665,0.04071045,-0.546875,0.546875,0.328125
1665673092524,0.03466797,-0.99420166,0.04925537,0.140625,0.234375,0.015625
1665673092568,0.026855469,-0.9981079,0.04534912,-0.078125,0.609375,0.0
1665673092614,0.034179688,-0.9985962,0.05633545,0.5625,0.28125,0.125
1665673092645,0.041992188,-0.9993286,0.051208496,0.484375,-0.328125,-0.4375
1665673092688,0.024902344,-1.0005493,0.055358887,0.046875,-0.109375,-0.375
1665673092733,0.03515625,-0.9973755,0.043151855,0.171875,-0.140625,0.078125
1665673092763,0.033203125,-0.9990845,0.054626465,0.640625,-0.515625,-0.03125
1665673092808,0.018310547,-0.9956665,0.047302246,0.671875,-0.265625,-0.140625
1665673092853,0.024658203,-1.006897,0.045837402,0.640625,-0.0625,0.015625
1665673092886,0.029296875,-0.9920044,0.046813965,1.578125,-0.046875,0.203125
1665673092943,0.03466797,-1.0042114,0.059753418,2.015625,-0.5625,-0.171875
1665673092975,0.02758789,-0.9976196,0.0368042,0.421875,0.046875,0.328125
1665673093019,0.036376953,-1.0022583,0.046813965,0.953125,-0.421875,0.0
1665673093048,0.028076172,-1.0049438,0.04095459,0.875,-0.59375,0.078125
1665673093094,0.030761719,-0.9944458,0.047790527,1.578125,-0.71875,0.234375
1665673093123,0.032226562,-0.99591064,0.027770996,-0.34375,0.15625,0.03125
1665673093169,0.037597656,-1.0044556,0.046813965,1.390625,-0.734375,0.328125
1665673093198,0.029296875,-0.9902954,0.03338623,0.828125,-0.625,0.015625
1665673093244,0.02758789,-0.99957275,0.02508545,0.125,0.09375,0.328125
1665673093289,0.026367188,-0.9990845,0.04071045,0.90625,-0.09375,0.25
1665673093318,0.036621094,-0.99713135,0.042419434,0.734375,-0.4375,0.671875
1665673093363,0.03173828,-0.9985962,0.032165527,1.390625,-1.03125,0.203125
1665673093409,0.02734375,-1.0003052,0.032165527,0.890625,-0.9375,0.265625
1665673093438,0.030517578,-1.0059204,0.036071777,2.109375,-0.46875,0.578125
1665673093484,0.036865234,-0.99102783,0.02923584,0.453125,-0.046875,0.453125
1665673093527,0.03491211,-1.0020142,0.024841309,0.3125,-0.8125,0.1875
1665673093558,0.028808594,-0.9937134,0.027282715,1.359375,-0.40625,0.328125
1665673093604,0.030029297,-0.9939575,0.030456543,0.671875,-0.046875,0.375
1665673093649,0.03149414,-0.9932251,0.031921387,0.328125,-0.25,0.0625
1665673093678,0.03466797,-0.99420166,0.02947998,1.171875,-0.28125,0.40625
1665673093723,0.037353516,-0.99542236,0.020202637,0.71875,-0.546875,0.1875
1665673093768,0.039794922,-1.0005493,0.0289917,0.546875,-0.5625,-0.234375
1665673093798,0.037597656,-0.99542236,0.020202637,0.5625,-0.796875,-0.03125
1665673093844,0.037353516,-1.0039673,0.01751709,0.203125,-0.40625,-0.078125
1665673093888,0.041503906,-1.0027466,0.023620605,0.75,-0.59375,-0.09375
1665673093918,0.039794922,-0.98150635,0.022399902,-0.421875,0.328125,-0.15625
1665673093963,0.030273438,-1.0010376,0.0289917,0.3125,-0.09375,0.265625
1665673094008,0.04272461,-1.00177,0.032409668,0.125,-0.171875,-0.109375
1665673094038,0.034423828,-0.99176025,0.0211792,-0.046875,-0.125,-0.21875
1665673094083,0.040771484,-1.0015259,0.022644043,1.390625,-0.9375,0.109375
1665673094128,0.028808594,-0.9927368,0.015808105,-0.09375,-0.203125,-0.234375
1665673094157,0.03100586,-1.0064087,0.028015137,0.21875,0.109375,0.265625
1665673094202,0.033203125,-0.9883423,0.02532959,0.15625,0.078125,0.25
1665673094248,0.032226562,-0.99713135,0.020446777,0.15625,0.375,0.328125
1665673094277,0.043701172,-1.0007935,0.026794434,-0.109375,0.59375,0.28125
1665673094324,0.03491211,-0.99224854,0.023376465,0.1875,0.375,0.09375
1665673094353,0.033447266,-0.9949341,0.02508545,-0.203125,0.6875,0.234375
1665673094398,0.036865234,-0.9920044,0.028747559,-0.265625,0.5625,-0.171875
1665673094443,0.03881836,-0.9990845,0.01776123,0.5625,0.359375,0.328125
1665673094474,0.04272461,-1.0012817,0.023132324,-1.125,0.28125,-0.109375
1665673094518,0.03955078,-0.9932251,0.026062012,0.40625,0.09375,-0.15625
1665673094564,0.041503906,-0.99053955,0.018249512,-1.21875,0.6875,-0.09375
1665673094593,0.03881836,-0.99835205,0.028503418,-0.203125,0.796875,-0.359375
1665673094638,0.033935547,-0.9993286,0.028259277,-0.671875,1.140625,-0.203125
1665673094684,0.033447266,-0.9976196,0.031188965,0.03125,0.734375,-0.203125
1665673094713,0.045654297,-1.0037231,0.0289917,-0.203125,0.65625,-0.5
1665673094758,0.034179688,-0.9993286,0.03265381,-0.453125,0.921875,-0.71875
1665673094802,0.02734375,-0.9963989,0.031677246,-0.625,1.171875,-0.265625
1665673094833,0.047851562,-0.9939575,0.038513184,0.203125,0.71875,-0.203125
1665673094879,0.032470703,-0.9990845,0.030700684,-0.9375,1.296875,-0.375
1665673094924,0.030029297,-1.0007935,0.030212402,0.109375,1.203125,-0.140625
1665673094953,0.028564453,-0.9951782,0.039489746,-1.078125,1.5,-0.390625
1665673094999,0.032958984,-0.9976196,0.035339355,0.203125,1.265625,-0.234375
1665673095044,0.036132812,-1.0039673,0.028015137,-0.34375,1.078125,-0.140625
1665673095073,0.028564453,-0.98883057,0.035339355,0.265625,0.90625,-0.078125
1665673095118,0.032470703,-1.003479,0.032165527,-0.484375,1.171875,-0.40625
1665673095164,0.032714844,-1.0007935,0.029968262,0.0,1.296875,-0.5
1665673095193,0.034179688,-1.0015259,0.027770996,0.40625,0.484375,-0.03125
1665673095239,0.034179688,-0.9871216,0.04046631,-0.421875,1.4375,-0.5
1665673095283,0.020996094,-1.0029907,0.03338623,0.359375,0.25,0.140625
1665673095315,0.036621094,-0.99884033,0.04437256,-0.03125,0.53125,-0.171875
1665673095358,0.034423828,-0.99786377,0.039001465,0.171875,0.578125,-0.0625
1665673095388,0.026367188,-0.99298096,0.03778076,-0.28125,1.03125,-0.40625
1665673095433,0.021972656,-0.99786377,0.04168701,0.3125,0.203125,-0.234375
1665673095478,0.03125,-1.0005493,0.03265381,-0.75,0.5625,-0.21875
1665673095508,0.026123047,-0.987854,0.0289917,0.09375,0.265625,-0.3125
1665673095553,0.030517578,-1.0010376,0.0446167,-0.46875,0.9375,-0.484375
1665673095598,0.02709961,-0.99957275,0.038024902,-0.25,0.734375,0.046875
1665673095628,0.036132812,-0.9932251,0.039001465,0.28125,0.3125,-0.25
1665673095673,0.024658203,-1.0046997,0.034362793,-0.03125,0.671875,0.125
1665673095718,0.02734375,-0.9915161,0.043395996,-0.640625,0.5625,-0.109375
1665673095748,0.025634766,-0.9990845,0.04510498,0.25,0.4375,-0.078125
1665673095793,0.028076172,-0.9939575,0.04534912,0.875,0.015625,0.046875
1665673095839,0.029541016,-1.0046997,0.03363037,-0.875,0.765625,-0.265625
1665673095868,0.028564453,-0.99224854,0.04559326,0.328125,0.40625,-0.328125
1665673095911,0.0234375,-1.0007935,0.038269043,-0.578125,0.828125,-0.265625
