# Sensor type: Respeck
# Activity type: Climbing stairs
# Activity code: 12
# Subject id: s1800825
# Notes: 
timestamp,accel_x,accel_y,accel_z,gyro_x,gyro_y,gyro_z
1664564167194,-0.75097656,-0.60650635,0.27215576,3.46875,4.09375,0.453125
1664564167227,-0.76782227,-0.6980591,0.24993896,-5.234375,5.375,-0.296875
1664564167285,-0.7541504,-0.6567993,0.27996826,1.6875,1.5625,1.640625
1664564167315,-0.77563477,-0.58843994,0.23944092,0.625,4.84375,1.0625
1664564167346,-0.7570801,-0.66729736,0.26434326,1.234375,-0.921875,2.484375
1664564167405,-0.75024414,-0.64141846,0.3397827,3.828125,0.515625,2.203125
1664564167435,-0.7624512,-0.6668091,0.31219482,6.3125,-4.515625,3.53125
1664564167465,-0.7072754,-0.65631104,0.2826538,2.96875,-5.046875,0.828125
1664564167525,-0.7216797,-0.64630127,0.27679443,6.78125,-7.171875,3.515625
1664564167542,-0.7546387,-0.6272583,0.26800537,4.890625,-5.953125,5.609375
1664564167585,-0.7438965,-0.6382446,0.23065186,4.421875,-3.359375,4.234375
1664564167645,-0.71191406,-0.7024536,0.24749756,8.328125,-3.5625,6.609375
1664564167660,-0.75512695,-0.64971924,0.23480225,3.53125,-3.65625,5.171875
1664564167707,-0.7663574,-0.66729736,0.24676514,0.421875,-5.15625,2.296875
1664564167765,-0.795166,-0.6790161,0.23675537,-2.203125,-3.96875,4.84375
1664564167780,-0.7668457,-0.6211548,0.22210693,-2.640625,-4.40625,3.6875
1664564167825,-0.78393555,-0.6963501,0.31048584,2.546875,-1.96875,-1.625
1664564167886,-0.8063965,-0.71710205,0.33709717,2.390625,1.390625,0.03125
1664564167900,-0.7792969,-0.7498169,0.28948975,-4.640625,-3.015625,5.921875
1664564167946,-0.7871094,-0.73028564,0.30291748,-9.84375,-2.5,5.84375
1664564167976,-0.8828125,-0.6836548,0.27264404,-22.609375,-1.484375,3.6875
1664564168020,-0.74902344,-0.93048096,0.25946045,4.046875,-4.5,0.78125
1664564168066,-0.72387695,-0.7737427,0.13885498,-2.921875,2.203125,-3.609375
1664564168096,-0.657959,-0.79693604,-0.018127441,-3.484375,-4.015625,2.90625
1664564168141,-0.6574707,-0.8530884,0.11785889,-8.125,-10.3125,4.875
1664564168185,-0.6682129,-0.8682251,0.1552124,0.65625,3.15625,-1.25
1664564168216,-0.7541504,-0.798645,0.2111206,-8.25,1.828125,5.34375
1664564168262,-0.5827637,-0.71759033,0.16766357,1.640625,-1.703125,6.4375
1664564168306,-0.5678711,-0.66290283,0.17327881,-2.625,-2.140625,6.34375
1664564168335,-0.58935547,-0.5808716,0.18914795,11.4375,1.75,6.4375
1664564168380,-0.4399414,-0.54107666,0.090026855,8.703125,7.046875,1.921875
1664564168425,-0.45629883,-0.62335205,0.13226318,11.203125,-9.34375,0.15625
1664564168455,-0.6303711,-0.69122314,0.30047607,2.59375,0.078125,1.6875
1664564168500,-0.6374512,-0.69122314,0.1954956,8.1875,3.265625,0.078125
1664564168545,-0.70288086,-0.6848755,0.1864624,8.9375,7.515625,0.578125
1664564168576,-0.6242676,-0.74884033,0.20916748,19.5625,-0.625,2.375
1664564168620,-0.57543945,-0.8208618,0.20159912,4.875,-6.078125,6.703125
1664564168666,-0.66967773,-0.74224854,0.3065796,-2.96875,-11.1875,11.828125
1664564168695,-0.72753906,-0.57940674,0.22332764,-1.390625,3.5,3.65625
1664564168725,-0.734375,-0.8897095,0.25946045,1.390625,-4.75,-3.5
1664564168785,-0.80322266,-0.7600708,0.26531982,6.234375,6.4375,-4.21875
1664564168816,-0.748291,-0.95928955,0.19207764,21.28125,1.6875,-6.796875
1664564168847,-0.970459,-1.2835083,0.19451904,-13.28125,-3.84375,-3.234375
1664564168906,-0.96362305,-0.9500122,0.10394287,9.46875,17.796875,-9.375
1664564168936,-0.41601562,-0.8101196,-0.022766113,24.015625,26.203125,12.234375
1664564168965,-0.40722656,-0.9483032,-0.007873535,28.609375,18.9375,-1.109375
1664564169025,-0.72509766,-0.8843384,-0.08428955,-22.578125,-4.953125,3.1875
1664564169040,-0.66967773,-0.6018677,-0.026184082,-26.890625,-62.515625,11.421875
1664564169086,-0.6870117,-0.6260376,0.33758545,7.578125,18.21875,-10.984375
1664564169145,-0.51904297,-0.7139282,0.034851074,1.390625,23.03125,-0.390625
1664564169160,-0.45043945,-0.5757446,-0.06060791,-7.28125,-9.171875,0.65625
1664564169207,-0.47216797,-0.55352783,0.105651855,-6.875,-26.015625,4.0
1664564169266,-0.5788574,-0.6482544,0.13031006,-2.453125,-2.71875,4.1875
1664564169280,-0.5456543,-0.71417236,0.016540527,-9.09375,0.453125,1.65625
1664564169325,-0.6845703,-0.70977783,0.2218628,-6.34375,-19.0625,3.546875
1664564169386,-0.6804199,-0.74468994,0.16253662,-2.8125,-0.671875,-0.53125
1664564169400,-0.7636719,-0.7788696,0.20428467,-7.96875,-1.953125,-2.875
1664564169446,-0.7739258,-0.76934814,0.18231201,-1.328125,-1.28125,-8.0
1664564169475,-0.8210449,-0.78082275,0.2682495,-5.171875,0.0,-6.90625
1664564169521,-0.8256836,-0.8670044,0.22113037,-7.265625,-1.4375,-2.578125
1664564169565,-0.82666016,-0.86676025,0.2098999,-7.015625,-3.078125,-1.109375
1664564169596,-1.0595703,-1.0557251,0.19671631,-21.96875,-2.046875,-8.640625
1664564169641,-0.69750977,-1.062561,0.020935059,11.40625,7.078125,-11.078125
1664564169686,-0.4399414,-0.8362427,-0.04498291,6.421875,12.5625,0.609375
1664564169716,-0.55908203,-0.74468994,0.021911621,4.75,2.640625,-1.390625
1664564169761,-0.67529297,-0.6951294,0.16522217,-24.125,-14.40625,-9.625
1664564169806,-0.61938477,-0.6148071,0.13275146,-2.8125,12.1875,-6.078125
1664564169835,-0.49902344,-0.7749634,0.10443115,2.890625,6.21875,4.984375
1664564169883,-0.5083008,-0.49468994,0.21820068,-12.859375,-6.65625,7.671875
1664564169926,-0.5288086,-0.5408325,0.10467529,7.125,4.9375,4.484375
1664564169957,-0.53564453,-0.55914307,0.16741943,6.84375,-1.65625,0.28125
1664564170001,-0.64160156,-0.65460205,0.2514038,6.296875,-3.09375,2.5
1664564170046,-0.68066406,-0.7178345,0.13983154,3.78125,5.0,-0.609375
1664564170076,-0.7006836,-0.72320557,0.2033081,12.3125,6.53125,2.421875
1664564170105,-0.6948242,-0.75909424,0.2374878,9.40625,6.71875,4.78125
1664564170165,-0.68066406,-0.72442627,0.2164917,4.625,1.484375,6.59375
1664564170195,-0.74072266,-0.78326416,0.23553467,12.28125,6.78125,-0.609375
1664564170226,-0.7697754,-0.85943604,0.3834839,11.203125,10.109375,-3.4375
1664564170285,-0.7807617,-0.9221802,0.2579956,-0.390625,13.1875,-7.15625
1664564170317,-0.9511719,-1.0488892,0.23162842,-2.59375,19.265625,-9.140625
1664564170346,-0.9025879,-0.99102783,0.11785889,-6.015625,13.90625,-7.4375
1664564170407,-0.52734375,-0.7727661,-0.03643799,12.5,3.421875,10.140625
1664564170436,-0.48950195,-0.92315674,0.050964355,-10.90625,5.6875,-1.515625
1664564170466,-0.7902832,-0.72784424,0.1071167,-4.84375,-13.5625,12.328125
1664564170526,-0.68896484,-0.63067627,0.14202881,9.375,4.09375,-1.75
1664564170541,-0.51782227,-0.6560669,0.09320068,1.84375,2.3125,-2.09375
1664564170586,-0.47705078,-0.54571533,0.105407715,14.421875,-3.34375,1.96875
1664564170646,-0.4399414,-0.56915283,0.14007568,7.609375,-1.84375,-1.71875
1664564170661,-0.57543945,-0.5444946,0.081726074,-7.234375,3.546875,3.46875
1664564170706,-0.5617676,-0.6199341,0.09906006,9.46875,-7.765625,2.1875
1664564170767,-0.6640625,-0.7359009,0.14471436,-3.109375,0.625,0.953125
1664564170780,-0.65527344,-0.75250244,0.15594482,5.75,-5.0,3.65625
1664564170825,-0.73168945,-0.72979736,0.1762085,2.359375,-0.53125,-1.46875
1664564170855,-0.7336426,-0.71661377,0.14129639,3.21875,-0.921875,0.4375
1664564170901,-0.7614746,-0.7263794,0.16595459,-0.703125,-5.34375,-4.09375
1664564170945,-0.8613281,-0.83135986,0.21453857,-6.90625,-0.921875,-8.359375
1664564170976,-0.85009766,-0.9314575,0.24383545,-10.625,-3.46875,0.703125
1664564171023,-0.982666,-0.9024048,0.23284912,-13.953125,-2.046875,-8.640625
1664564171066,-0.90112305,-1.0864868,0.12249756,1.421875,0.171875,-9.15625
1664564171096,-0.44311523,-0.8386841,0.043640137,7.4375,14.046875,-7.890625
1664564171141,-0.6303711,-0.69415283,0.062927246,-4.4375,-4.0625,2.140625
1664564171185,-0.57006836,-0.74957275,0.15911865,5.015625,11.03125,-8.25
1664564171216,-0.6657715,-0.67926025,0.19110107,-1.671875,3.84375,-1.96875
1664564171261,-0.65966797,-0.6218872,0.11566162,-10.21875,12.34375,-6.8125
1664564171305,-0.5090332,-0.67144775,0.089782715,12.71875,-0.078125,-2.46875
1664564171335,-0.53930664,-0.60284424,0.25653076,4.890625,6.78125,7.109375
1664564171380,-0.5205078,-0.5405884,0.14910889,7.90625,3.65625,1.734375
1664564171425,-0.5744629,-0.5767212,0.19451904,11.546875,1.421875,1.09375
1664564171456,-0.5986328,-0.6682739,0.18865967,4.921875,3.203125,0.640625
1664564171501,-0.6281738,-0.6958618,0.21258545,7.0625,-0.0625,4.6875
1664564171546,-0.7089844,-0.68048096,0.2567749,6.859375,3.75,4.0
1664564171575,-0.6816406,-0.7271118,0.20941162,6.765625,4.078125,4.234375
1664564171606,-0.6904297,-0.72369385,0.26556396,11.140625,2.59375,6.96875
1664564171666,-0.7763672,-0.8296509,0.32733154,0.71875,-5.453125,4.359375
1664564171695,-0.8898926,-0.7036743,0.36175537,-4.4375,11.75,-5.015625
1664564171726,-0.83081055,-0.8599243,0.24090576,3.140625,8.109375,-6.84375
1664564171785,-0.9230957,-1.2571411,0.28094482,5.15625,2.265625,0.296875
1664564171815,-0.7416992,-1.0359497,-0.05279541,-9.875,9.015625,0.6875
1664564171846,-0.58251953,-0.63067627,-0.12213135,-14.859375,-6.71875,12.9375
1664564171906,-0.57788086,-1.0049438,0.11004639,16.875,12.421875,-5.875
1664564171966,-0.6867676,-0.7859497,0.16448975,0.96875,-0.78125,7.203125
1664564171968,-0.61621094,-0.7139282,0.12640381,-4.0625,-3.515625,-0.40625
1664564172026,-0.52441406,-0.6565552,0.15130615,22.234375,-1.375,-4.4375
1664564172040,-0.4987793,-0.6382446,0.093444824,-0.109375,3.328125,1.484375
1664564172085,-0.46069336,-0.4697876,0.09954834,6.296875,-4.796875,7.40625
1664564172145,-0.51953125,-0.53326416,0.12347412,-5.15625,-2.1875,3.640625
1664564172161,-0.560791,-0.6187134,0.06976318,2.203125,2.203125,2.75
1664564172207,-0.59033203,-0.74224854,0.15179443,2.515625,-3.3125,3.09375
1664564172266,-0.6308594,-0.74957275,0.13909912,3.109375,-4.578125,3.375
1664564172283,-0.7067871,-0.7542114,0.20501709,0.953125,-3.9375,2.453125
1664564172327,-0.6911621,-0.75323486,0.17352295,4.390625,-2.578125,-0.6875
1664564172356,-0.69384766,-0.8362427,0.2345581,-0.4375,-5.734375,-4.96875
1664564172400,-0.79956055,-0.8867798,0.22503662,-8.71875,-4.390625,-0.359375
1664564172446,-0.8444824,-0.8994751,0.26483154,-8.5,-9.015625,1.25
1664564172476,-0.95092773,-0.89263916,0.13494873,-22.9375,1.15625,-8.03125
1664564172521,-0.8557129,-1.1355591,0.12860107,-0.953125,-13.21875,-4.0
1664564172565,-0.56689453,-0.8447876,-0.031555176,2.09375,-5.125,-3.6875
1664564172597,-0.61328125,-0.63116455,-0.0154418945,-8.46875,-9.921875,4.71875
1664564172640,-0.57299805,-0.7527466,0.1461792,-3.859375,-3.9375,-5.171875
1664564172685,-0.6484375,-0.74591064,0.08319092,-2.265625,17.828125,-10.1875
1664564172716,-0.7043457,-0.7000122,0.19012451,7.15625,1.71875,-0.203125
1664564172763,-0.46313477,-0.6218872,0.11273193,-4.046875,6.3125,1.8125
1664564172805,-0.43237305,-0.6321411,0.081726074,2.5,-5.34375,5.46875
1664564172836,-0.5715332,-0.61553955,0.24041748,2.1875,-2.609375,7.078125
1664564172880,-0.55493164,-0.6099243,0.109558105,-2.90625,-1.859375,2.25
1664564172926,-0.5600586,-0.69659424,0.152771,1.765625,-3.640625,-0.890625
1664564172955,-0.5932617,-0.7053833,0.24505615,7.28125,-9.96875,7.078125
1664564173001,-0.65600586,-0.68927,0.17718506,-6.015625,4.640625,0.28125
1664564173046,-0.67211914,-0.78253174,0.20941162,5.71875,-2.921875,3.03125
1664564173076,-0.67578125,-0.7803345,0.22235107,-0.875,-1.359375,3.953125
1664564173108,-0.7175293,-0.71539307,0.260437,1.5625,-0.09375,2.125
1664564173166,-0.73828125,-0.7749634,0.276062,-0.890625,-3.78125,-0.921875
1664564173196,-0.80908203,-0.9116821,0.28753662,-3.6875,-5.84375,-10.734375
1664564173225,-0.87524414,-1.1416626,0.22137451,-11.34375,-0.5,-8.84375
1664564173287,-0.9265137,-1.1924438,0.13031006,-7.6875,-1.796875,-10.46875
1664564173316,-0.68359375,-0.77471924,-0.011291504,-0.8125,16.28125,2.1875
1664564173345,-0.34985352,-0.536438,-0.018127441,-3.1875,-15.765625,8.046875
1664564173406,-0.7380371,-1.0579224,0.11639404,-8.28125,1.203125,-10.390625
1664564173437,-0.9003906,-0.6499634,0.17010498,2.46875,-20.15625,14.015625
1664564173465,-0.6069336,-0.71539307,0.113708496,6.859375,9.046875,3.296875
1664564173526,-0.5830078,-0.6951294,0.059509277,-2.5625,-1.59375,0.515625
1664564173540,-0.5595703,-0.5015259,0.12176514,14.578125,-3.65625,1.78125
1664564173585,-0.4140625,-0.5315552,0.113708496,5.78125,-1.09375,2.3125
1664564173645,-0.51171875,-0.6255493,0.10784912,1.3125,0.8125,4.1875
1664564173660,-0.57470703,-0.58843994,0.15374756,-2.234375,1.90625,3.75
1664564173706,-0.55810547,-0.6602173,0.07171631,-2.984375,-3.734375,2.828125
1664564173766,-0.7458496,-0.8242798,0.20574951,-6.578125,1.109375,0.15625
1664564173781,-0.71191406,-0.69000244,0.17816162,5.15625,0.75,-2.828125
1664564173826,-0.82714844,-0.7107544,0.21307373,0.40625,2.21875,-10.0625
1664564173855,-0.8996582,-0.862854,0.2374878,-13.6875,7.859375,-8.578125
1664564173901,-0.75439453,-1.0557251,0.1642456,-7.140625,-0.4375,3.90625
1664564173946,-0.9484863,-1.0466919,0.16790771,-13.21875,-9.546875,-2.328125
1664564173976,-0.9519043,-1.0166626,0.18157959,-0.859375,0.03125,-8.328125
1664564174021,-0.47338867,-0.7810669,-0.02911377,9.921875,3.96875,-1.40625
1664564174068,-0.5341797,-0.7764282,0.009460449,-1.625,-5.765625,10.34375
1664564174095,-0.7272949,-0.87384033,0.30316162,4.25,5.0625,-2.6875
1664564174140,-0.6936035,-0.59576416,0.13763428,0.03125,14.421875,-9.359375
1664564174185,-0.6213379,-0.71661377,0.086364746,9.421875,15.234375,-8.546875
1664564174215,-0.37768555,-0.6782837,0.07318115,7.828125,-3.65625,8.8125
1664564174261,-0.43310547,-0.5359497,0.20257568,-0.140625,-8.703125,10.390625
1664564174305,-0.45922852,-0.47857666,0.12225342,5.109375,-7.96875,11.9375
1664564174335,-0.5,-0.6885376,0.16595459,0.5625,-7.625,4.453125
1664564174380,-0.6359863,-0.70806885,0.20184326,6.234375,-11.609375,10.96875
1664564174425,-0.6279297,-0.76397705,0.15667725,0.390625,-6.78125,13.265625
1664564174455,-0.62158203,-0.6956177,0.20233154,6.46875,-7.109375,13.921875
1664564174501,-0.6796875,-0.7139282,0.20306396,9.484375,-5.203125,12.4375
1664564174546,-0.65771484,-0.7913208,0.17572021,10.8125,-3.8125,2.3125
1664564174575,-0.80908203,-0.83062744,0.30682373,8.875,-0.34375,-4.78125
1664564174606,-0.92456055,-0.99346924,0.19744873,8.875,15.40625,-13.203125
1664564174667,-0.84033203,-1.4873657,0.05218506,12.90625,10.265625,-15.40625
1664564174696,-0.9116211,-1.062561,0.05267334,-7.046875,-8.734375,-1.25
1664564174726,-0.47875977,-0.71051025,-0.062316895,16.171875,14.40625,18.28125
1664564174786,-0.38085938,-0.7810669,-0.018371582,-27.40625,16.1875,-4.6875
1664564174817,-0.75024414,-0.8953247,-0.08795166,7.203125,18.890625,-4.578125
1664564174848,-0.6550293,-0.7456665,-0.012023926,9.78125,-30.015625,5.71875
1664564174906,-0.5957031,-0.7620239,0.26287842,21.265625,7.703125,-2.78125
1664564174921,-0.5891113,-0.6856079,0.06756592,-6.1875,12.953125,5.203125
1664564174966,-0.36816406,-0.53253174,0.0026245117,11.265625,19.140625,5.0
1664564175026,-0.39111328,-0.62506104,0.0018920898,13.921875,3.734375,5.734375
1664564175040,-0.48535156,-0.565979,0.043151855,-16.234375,-23.21875,1.78125
1664564175086,-0.57592773,-0.6182251,0.16546631,5.8125,1.0625,-2.0625
1664564175145,-0.53637695,-0.75787354,0.030456543,-3.09375,5.265625,-1.640625
1664564175161,-0.65625,-0.8147583,0.19940186,6.25,-7.75,5.34375
1664564175206,-0.6748047,-0.80255127,0.09564209,0.296875,0.75,-3.78125
1664564175266,-0.6948242,-0.8328247,0.16619873,-10.796875,-3.859375,-8.703125
1664564175281,-0.86083984,-0.9819946,0.19500732,-18.0,-4.515625,-1.71875
1664564175327,-0.99658203,-1.123352,0.105651855,-22.84375,-8.328125,-3.25
1664564175356,-0.88671875,-1.3086548,0.27069092,4.234375,-4.375,-2.375
1664564175400,-0.5925293,-0.9038696,-0.061828613,-3.34375,9.859375,-7.59375
1664564175446,-0.4033203,-0.7293091,-0.062072754,-9.578125,7.703125,-3.3125
1664564175476,-0.6242676,-0.8311157,0.12420654,-10.046875,-20.390625,-8.328125
1664564175520,-0.5961914,-0.7781372,0.1762085,-2.703125,10.34375,-9.671875
1664564175565,-0.5878906,-0.753479,0.055847168,-12.5,8.0625,-12.328125
1664564175597,-0.5517578,-0.63067627,0.109558105,-0.078125,-7.078125,4.75
1664564175641,-0.39672852,-0.5757446,0.14691162,-0.46875,2.875,4.78125
1664564175686,-0.43847656,-0.47027588,0.1305542,-0.1875,-3.453125,7.546875
1664564175721,-0.47802734,-0.5342407,0.086120605,0.953125,0.46875,-2.703125
1664564175761,-0.5336914,-0.7136841,0.19207764,1.921875,-6.828125,-6.21875
1664564175806,-0.6796875,-0.75787354,0.24261475,-1.953125,-0.359375,0.265625
1664564175836,-0.65771484,-0.73394775,0.18548584,4.921875,-0.96875,7.375
1664564175881,-0.6657715,-0.7214966,0.21234131,-0.265625,-0.109375,-0.328125
1664564175925,-0.7495117,-0.65411377,0.29730225,-3.828125,1.859375,-1.5625
1664564175956,-0.7363281,-0.7588501,0.34100342,7.5,5.125,-8.40625
1664564176046,-0.7932129,-0.8821411,0.3649292,9.078125,8.5625,-10.0625
1664564176048,-0.9260254,-0.97857666,0.30145264,-4.578125,7.59375,-6.453125
1664564176077,-1.0656738,-1.0808716,0.2531128,-10.140625,16.8125,-13.15625
1664564176105,-0.71191406,-0.98223877,0.007507324,-1.28125,24.59375,-8.3125
1664564176167,-0.45214844,-0.6992798,-0.08673096,-14.046875,-1.546875,-0.25
1664564176196,-0.7270508,-0.94122314,0.16351318,26.0625,-9.328125,13.421875
1664564176225,-0.77563477,-0.70977783,0.19720459,-9.203125,-10.984375,10.875
1664564176286,-0.64086914,-0.6577759,0.08734131,22.453125,3.453125,6.671875
1664564176316,-0.5053711,-0.7449341,0.10467529,16.375,0.96875,-0.109375
1664564176345,-0.5358887,-0.5029907,0.17156982,8.796875,3.5,0.40625
1664564176406,-0.4814453,-0.5762329,0.09710693,6.859375,4.375,3.09375
1664564176420,-0.43945312,-0.5960083,0.10101318,10.5,3.296875,7.765625
1664564176467,-0.60717773,-0.5730591,0.10687256,-3.90625,5.90625,6.0625
1664564176526,-0.63427734,-0.71466064,0.15570068,9.828125,0.359375,3.03125
1664564176541,-0.5900879,-0.7698364,0.11566162,-3.75,-2.546875,3.578125
1664564176587,-0.70825195,-0.74102783,0.1642456,5.34375,1.203125,2.34375
1664564176646,-0.7692871,-0.7090454,0.22088623,8.140625,-1.96875,-6.578125
1664564176660,-0.85595703,-0.7942505,0.2453003,-15.125,0.875,-10.21875
1664564176706,-0.8288574,-1.0525513,0.19622803,-13.453125,-5.328125,1.375
1664564176766,-1.0336914,-1.0640259,0.16107178,-20.375,-6.6875,-5.203125
1664564176780,-0.95166016,-1.263977,0.22943115,4.765625,-4.8125,-7.484375
1664564176826,-0.45507812,-0.7805786,0.005065918,2.109375,12.6875,-0.3125
1664564176857,-0.47387695,-0.7402954,-0.069885254,-12.671875,-5.875,9.875
1664564176901,-0.5788574,-0.7686157,0.18743896,2.015625,-16.484375,-6.453125
1664564176946,-0.6608887,-0.66973877,0.11444092,-1.203125,7.234375,-2.171875
1664564176975,-0.58740234,-0.6567993,0.089782715,-7.96875,0.359375,-4.234375
1664564177020,-0.40576172,-0.5696411,0.093444824,0.703125,7.234375,1.796875
1664564177066,-0.4350586,-0.53790283,0.11981201,4.25,-18.421875,8.765625
1664564177096,-0.4477539,-0.58184814,0.105895996,-2.140625,1.6875,-0.0625
1664564177140,-0.545166,-0.6436157,0.10369873,2.828125,-11.5,-1.65625
1664564177186,-0.6359863,-0.7185669,0.22796631,-1.765625,1.375,-0.859375
1664564177215,-0.71606445,-0.69659424,0.20355225,3.5,0.703125,4.03125
1664564177261,-0.80126953,-0.66851807,0.23822021,8.46875,8.921875,-0.03125
1664564177305,-0.5744629,-0.74786377,0.16571045,2.921875,1.484375,1.546875
1664564177335,-0.6381836,-0.7192993,0.24798584,5.0,-1.0625,3.046875
1664564177381,-0.72753906,-0.72442627,0.27337646,1.21875,1.5625,-1.328125
1664564177425,-0.8249512,-0.75567627,0.29681396,-10.640625,5.234375,-14.75
1664564177458,-1.1074219,-1.2451782,0.3444214,35.625,28.015625,-15.859375
1664564177500,-1.1459961,-1.5164185,0.07904053,-4.921875,37.953125,-9.484375
1664564177546,-0.66137695,-0.65826416,-0.08721924,17.90625,42.828125,-3.984375
1664564177575,-0.30419922,-0.7439575,-0.11236572,2.390625,-3.25,5.65625
1664564177606,-0.6816406,-1.0010376,0.061950684,-1.09375,-33.140625,6.828125
1664564177665,-0.82714844,-0.5371704,0.25750732,-27.265625,-50.453125,21.1875
1664564177696,-0.5822754,-0.71539307,0.11810303,31.875,30.921875,-0.03125
1664564177726,-0.39916992,-0.6223755,0.019470215,5.78125,25.8125,-11.09375
1664564177785,-0.54248047,-0.44732666,0.018249512,12.5,-1.25,8.21875
1664564177816,-0.41918945,-0.53302,0.07928467,-5.34375,-19.0625,-4.265625
1664564177846,-0.6464844,-0.61065674,0.16912842,1.109375,8.3125,-3.046875
1664564177906,-0.58813477,-0.6602173,0.06439209,7.78125,6.078125,2.828125
1664564177920,-0.5961914,-0.8008423,0.16497803,6.546875,-2.0,2.84375
1664564177967,-0.7561035,-0.7197876,0.15838623,-11.765625,-7.3125,-0.3125
1664564178025,-0.79174805,-0.6904907,0.23895264,-0.59375,-4.984375,-3.46875
1664564178040,-0.80908203,-0.6934204,0.19915771,-5.375,-3.1875,-8.984375
1664564178085,-1.0437012,-0.8377075,0.30828857,-7.5625,-2.46875,10.78125
1664564178146,-0.9206543,-1.303772,-7.9345703E-4,-30.453125,-10.46875,-6.109375
1664564178161,-0.96362305,-1.190979,0.25115967,9.796875,-2.75,-8.125
1664564178206,-0.6303711,-0.88531494,-0.10821533,10.625,4.0625,2.1875
1664564178238,-0.5061035,-0.68951416,-0.06964111,1.25,-6.171875,4.921875
1664564178281,-0.63549805,-0.78204346,0.24969482,14.09375,0.640625,-3.828125
1664564178326,-0.5698242,-0.8225708,0.09979248,7.84375,15.109375,-4.21875
1664564178356,-0.5307617,-0.767395,0.09979248,-11.484375,0.3125,1.953125
1664564178401,-0.47973633,-0.54473877,0.081970215,-7.09375,-5.078125,2.921875
1664564178446,-0.44311523,-0.53253174,0.12298584,4.5,-6.296875,9.640625
1664564178476,-0.37231445,-0.5286255,0.054382324,1.828125,-1.375,5.90625
1664564178521,-0.5073242,-0.6248169,0.1329956,1.734375,-13.859375,1.03125
1664564178566,-0.59033203,-0.6704712,0.12762451,-12.953125,-3.703125,-1.90625
1664564178599,-0.7211914,-0.692688,0.20452881,3.96875,0.921875,-1.90625
1664564178641,-0.72924805,-0.68756104,0.15838623,13.0625,3.21875,-1.8125
1664564178685,-0.6652832,-0.7683716,0.1630249,3.859375,3.828125,-1.890625
1664564178715,-0.69506836,-0.753479,0.32025146,13.34375,3.28125,0.1875
1664564178762,-0.7524414,-0.7822876,0.20379639,-1.046875,8.4375,-7.140625
1664564178806,-0.7680664,-0.98565674,0.29510498,-5.078125,5.546875,-8.625
1664564178836,-0.9465332,-1.3547974,0.15496826,-30.171875,-6.84375,4.9375
1664564178881,-1.1105957,-0.9065552,0.0048217773,3.296875,-1.875,-8.140625
1664564178927,-0.5498047,-0.973938,-0.073791504,-10.78125,18.671875,15.625
1664564178956,-0.30615234,-0.7649536,-0.0064086914,3.78125,-6.46875,13.375
1664564178986,-0.7116699,-0.88653564,-0.03643799,-1.03125,-10.28125,13.1875
1664564179046,-0.8327637,-0.49468994,0.432312,13.09375,-14.328125,2.171875
1664564179076,-0.5373535,-0.7305298,0.055603027,-3.0625,14.84375,1.0625
1664564179105,-0.4880371,-0.6577759,0.019470215,3.28125,0.96875,4.171875
1664564179166,-0.45410156,-0.5310669,0.039733887,-2.59375,-2.625,1.875
1664564179198,-0.5275879,-0.6018677,0.11883545,15.9375,-22.3125,4.78125
1664564179225,-0.5300293,-0.6651001,0.10736084,-22.8125,14.25,-3.609375
1664564179287,-0.54418945,-0.6062622,-0.010070801,-5.21875,-3.546875,7.265625
1664564179315,-0.61572266,-0.7156372,0.21502686,9.1875,-18.078125,-1.34375
1664564179345,-0.6765137,-0.7503052,0.13128662,-3.6875,-0.515625,-2.171875
1664564179406,-0.6960449,-0.76763916,0.14300537,-2.234375,-2.71875,-6.203125
1664564179420,-0.77490234,-0.8093872,0.18060303,0.34375,-5.328125,-8.078125
1664564179467,-0.8613281,-0.89190674,0.19329834,-23.140625,-6.890625,-3.71875
1664564179526,-0.9604492,-0.9907837,0.17352295,-19.28125,-8.609375,-4.3125
1664564179540,-0.94262695,-1.1790161,0.260437,-10.359375,-3.109375,-4.6875
1664564179586,-0.7915039,-1.0100708,-0.008117676,-3.09375,5.5,-15.0625
1664564179646,-0.4189453,-0.66851807,-0.11871338,-8.65625,19.25,-1.546875
1664564179660,-0.55810547,-0.786438,0.017028809,-5.921875,-9.25,2.265625
1664564179706,-0.62060547,-0.8140259,0.3131714,13.03125,-10.609375,2.125
1664564179735,-0.7060547,-0.5942993,0.12762451,-11.484375,7.890625,-5.984375
1664564179781,-0.59155273,-0.6939087,0.07147217,-8.953125,7.671875,-11.265625
1664564179826,-0.4128418,-0.5864868,0.089782715,13.65625,0.40625,9.609375
1664564179855,-0.50878906,-0.54473877,0.19915771,-5.453125,0.828125,4.453125
1664564179900,-0.5202637,-0.5562134,0.1359253,14.140625,-5.640625,1.578125
1664564179946,-0.6225586,-0.6482544,0.23699951,-1.734375,-2.484375,2.265625
1664564179975,-0.64990234,-0.63604736,0.19232178,4.984375,-0.84375,-0.546875
1664564180021,-0.7319336,-0.6951294,0.21990967,6.015625,2.28125,0.953125
1664564180095,-0.654541,-0.7280884,0.22454834,13.609375,3.328125,1.03125
1664564180097,-0.68310547,-0.7127075,0.28460693,3.75,-0.328125,1.25
1664564180141,-0.7661133,-0.7944946,0.25823975,5.3125,-1.171875,-2.28125
1664564180186,-0.8017578,-0.81085205,0.29388428,6.390625,4.546875,-0.984375
1664564180215,-0.7800293,-0.8796997,0.32366943,3.4375,5.21875,-12.140625
1664564180262,-0.9753418,-1.0488892,0.27972412,-14.46875,4.46875,-7.34375
1664564180306,-0.91137695,-0.97735596,0.24700928,-5.8125,1.875,-13.0
1664564180335,-0.7470703,-0.9151001,-0.047912598,-18.140625,35.125,-10.234375
1664564180381,-0.5600586,-0.70147705,-0.14337158,-9.75,2.28125,6.3125
1664564180426,-0.53930664,-0.8994751,0.20941162,8.6875,-2.984375,9.375
1664564180455,-0.6447754,-0.7192993,0.078063965,-0.59375,-10.59375,13.421875
1664564180486,-0.72753906,-0.630188,0.18743896,1.546875,-4.859375,6.625
1664564180546,-0.6105957,-0.5940552,0.17181396,15.09375,-1.703125,7.890625
1664564180575,-0.52490234,-0.5623169,0.109069824,21.078125,3.171875,5.0
1664564180608,-0.5036621,-0.5305786,0.097595215,12.890625,2.453125,8.1875
1664564180666,-0.52441406,-0.59210205,0.13104248,11.75,-4.5,7.796875
1664564180695,-0.56103516,-0.6499634,0.12615967,3.234375,4.375,5.3125
1664564180726,-0.642334,-0.65875244,0.14031982,5.953125,-6.140625,7.109375
1664564180786,-0.63964844,-0.77838135,0.1954956,5.765625,-7.1875,3.859375
1664564180815,-0.7062988,-0.77008057,0.18157959,2.40625,-0.484375,-4.171875
1664564180846,-0.71777344,-0.7463989,0.21185303,13.875,-6.71875,-3.234375
1664564180905,-0.78930664,-0.75787354,0.1515503,-5.4375,0.234375,-7.1875
1664564180920,-0.8630371,-0.8587036,0.17816162,-15.890625,-4.0625,-3.9375
1664564180966,-0.9824219,-1.0911255,0.15081787,-15.765625,-0.28125,-2.703125
1664564181026,-0.9020996,-1.177063,0.17230225,-9.546875,-4.59375,-6.890625
1664564181042,-0.5891113,-0.97003174,0.036315918,9.5,5.0625,-1.890625
1664564181086,-0.48999023,-0.597229,-0.09136963,-9.96875,6.3125,3.421875
1664564181146,-0.56396484,-0.8208618,0.09661865,-12.890625,-9.421875,-3.140625
1664564181161,-0.6501465,-0.76641846,0.082214355,1.09375,13.75,-7.78125
1664564181208,-0.7092285,-0.7119751,0.06732178,-6.8125,-0.0625,-7.71875
1664564181235,-0.5515137,-0.673645,0.17254639,12.484375,2.53125,5.234375
1664564181282,-0.42382812,-0.6802368,0.1005249,3.59375,8.90625,6.359375
1664564181326,-0.48779297,-0.5317993,0.09832764,-6.859375,-10.828125,9.65625
1664564181355,-0.51049805,-0.52423096,0.1437378,14.734375,1.375,4.140625
1664564181401,-0.47827148,-0.52178955,0.14569092,7.84375,-6.203125,-0.09375
1664564181446,-0.5986328,-0.61920166,0.20013428,16.453125,7.203125,-2.53125
1664564181476,-0.6748047,-0.7583618,0.18353271,23.375,7.40625,-0.0625
1664564181521,-0.6826172,-0.94415283,0.16595459,5.546875,1.5625,3.96875
1664564181567,-0.72558594,-0.8242798,0.21209717,7.328125,-7.4375,7.234375
1664564181596,-0.7409668,-0.8804321,0.26263428,-3.875,-3.78125,4.609375
1664564181640,-0.8144531,-0.81134033,0.27386475,0.375,-0.53125,-9.9375
1664564181686,-0.72387695,-1.006897,0.15228271,0.25,6.734375,-12.125
1664564181716,-0.9902344,-1.2295532,0.12200928,-30.125,19.328125,-4.515625
1664564181760,-0.6635742,-0.973938,-0.08306885,21.078125,22.390625,7.53125
1664564181806,-0.38867188,-0.7463989,-0.09649658,-0.203125,3.84375,11.40625
1664564181836,-0.65844727,-0.87457275,-0.031799316,-26.703125,-6.75,-1.125
1664564181881,-0.7126465,-0.78131104,0.030944824,-9.65625,-33.828125,4.0625
1664564181925,-0.6501465,-0.80059814,0.113220215,-1.390625,16.296875,-5.1875
1664564181956,-0.51000977,-0.7427368,0.029968262,0.984375,4.453125,-3.53125
1664564181986,-0.6064453,-0.5227661,0.12200928,-8.609375,-22.46875,1.53125
1664564182046,-0.59887695,-0.631897,0.07757568,9.90625,15.828125,-5.9375
1664564182076,-0.51000977,-0.6929321,0.16497803,7.375,-6.796875,3.375
1664564182106,-0.48486328,-0.5899048,0.09710693,-5.546875,8.296875,9.453125
1664564182168,-0.56396484,-0.6096802,0.078308105,-2.109375,-13.484375,3.921875
1664564182196,-0.63378906,-0.706604,0.18133545,1.453125,-2.5,0.40625
1664564182226,-0.62646484,-0.6502075,0.15423584,-0.65625,-8.546875,-3.21875
1664564182288,-0.6826172,-0.7359009,0.16522217,1.90625,-5.125,-2.328125
1664564182301,-0.75219727,-0.7161255,0.22283936,4.65625,-6.484375,-4.453125
1664564182346,-0.88427734,-0.7805786,0.22479248,-6.078125,-2.234375,-9.125
1664564182406,-1.1296387,-1.2063599,0.07489014,-25.15625,-0.875,-10.140625
1664564182420,-0.9790039,-1.399231,0.11785889,5.859375,5.546875,0.703125
1664564182466,-0.57055664,-1.0161743,-0.09918213,16.25,7.859375,5.328125
1664564182526,-0.48657227,-0.61309814,-0.15020752,3.640625,3.765625,6.921875
1664564182540,-0.6513672,-0.8064575,0.19085693,-0.140625,-4.484375,-4.3125
1664564182586,-0.63916016,-0.82647705,0.0138549805,-3.390625,20.390625,-10.5625
1664564182646,-0.60375977,-0.7647095,0.15106201,-8.515625,1.359375,3.625
1664564182661,-0.51000977,-0.6470337,0.062683105,1.0,17.03125,2.6875
1664564182706,-0.4868164,-0.70562744,0.10369873,11.34375,-6.84375,10.3125
1664564182736,-0.4897461,-0.59088135,0.14300537,-6.96875,-4.765625,6.859375
1664564182781,-0.48583984,-0.5029907,0.1005249,-0.5,-6.6875,2.78125
1664564182825,-0.50024414,-0.5720825,0.12420654,8.765625,-2.953125,-2.3125
1664564182857,-0.5529785,-0.68634033,0.17010498,6.875,-5.75,2.859375
1664564182900,-0.60717773,-0.708313,0.15179443,4.046875,-1.625,1.6875
1664564182946,-0.68652344,-0.8718872,0.19110107,4.96875,0.125,3.390625
1664564182975,-0.6203613,-0.82037354,0.21942139,1.34375,-2.453125,7.46875
1664564183021,-0.7331543,-0.85650635,0.27386475,-8.3125,-6.484375,8.765625
1664564183065,-0.84375,-0.7962036,0.3139038,-4.84375,4.671875,-6.84375
1664564183096,-0.88256836,-1.0640259,0.1696167,-6.421875,7.53125,-16.421875
1664564183141,-0.921875,-1.1021118,0.10345459,-16.71875,6.828125,-10.75
1664564183186,-0.79174805,-0.90948486,-0.015197754,2.21875,32.828125,-14.203125
1664564183215,-0.33740234,-0.7070923,-0.085754395,-2.3125,3.703125,15.4375
1664564183260,-0.5986328,-0.94244385,-0.0051879883,-19.265625,-3.359375,-1.671875
1664564183306,-0.71850586,-0.7156372,0.016784668,2.578125,-24.859375,16.734375
1664564183335,-0.6503906,-0.70440674,0.15618896,34.375,13.515625,-2.734375
1664564183381,-0.52490234,-0.66485596,0.06341553,23.328125,14.109375,2.703125
1664564183426,-0.48242188,-0.6018677,0.0758667,2.359375,-6.625,-0.28125
1664564183456,-0.49194336,-0.53302,0.1383667,1.484375,2.703125,1.546875
1664564183486,-0.56347656,-0.63848877,0.07537842,1.125,4.515625,-0.75
1664564183546,-0.5673828,-0.6370239,0.11590576,-1.453125,-0.75,-0.5
1664564183576,-0.6501465,-0.7124634,0.15667725,-0.640625,1.5,-4.140625
1664564183606,-0.6452637,-0.74005127,0.1437378,-3.671875,3.453125,-2.703125
1664564183666,-0.74902344,-0.7007446,0.17694092,-6.421875,6.21875,-8.015625
1664564183696,-0.7927246,-0.7498169,0.16986084,-4.828125,2.59375,-7.453125
1664564183726,-0.8444824,-0.8838501,0.21966553,-15.59375,0.421875,-7.625
1664564183785,-0.9099121,-1.0476685,0.11395264,-12.671875,0.71875,-2.328125
1664564183800,-0.9243164,-1.0549927,0.2645874,-1.53125,0.3125,-7.578125
1664564183845,-0.86035156,-1.0383911,0.12762451,-4.1875,3.09375,-11.4375
1664564183906,-0.42285156,-0.7234497,-0.04034424,1.21875,1.703125,-6.0
1664564183920,-0.55981445,-0.6851196,0.10101318,1.59375,-2.984375,5.828125
1664564183968,-0.63671875,-0.76885986,0.20428467,10.984375,6.953125,-1.640625
1664564184026,-0.6374512,-0.8308716,0.19647217,12.65625,13.515625,-4.5
1664564184041,-0.5847168,-0.678772,0.17279053,-3.03125,11.046875,-3.125
1664564184086,-0.50756836,-0.6194458,0.16448975,9.78125,-0.140625,6.296875
1664564184145,-0.51708984,-0.53741455,0.18182373,7.15625,-1.296875,1.484375
1664564184160,-0.49389648,-0.53375244,0.16229248,10.953125,-2.09375,1.921875
1664564184206,-0.5185547,-0.5523071,0.14984131,14.6875,-4.421875,2.9375
1664564184236,-0.5842285,-0.6760864,0.17327881,-1.609375,4.140625,-0.46875
1664564184282,-0.6452637,-0.6868286,0.22161865,10.3125,-4.984375,6.875
1664564184328,-0.7026367,-0.770813,0.20501709,3.609375,4.640625,5.046875
1664564184356,-0.6933594,-0.7354126,0.2164917,7.671875,-3.328125,8.671875
1664564184403,-0.72802734,-0.7402954,0.27337646,2.28125,-3.0,5.3125
1664564184446,-0.79467773,-0.8381958,0.2789917,-2.359375,-3.0,1.5625
1664564184476,-1.0332031,-0.9421997,0.34490967,5.625,8.140625,-10.46875
1664564184521,-0.87353516,-1.1653442,0.17034912,-1.796875,10.015625,-10.015625
1664564184566,-0.8149414,-1.0903931,0.11785889,-13.515625,-1.515625,-10.125
1664564184596,-0.6015625,-0.7163696,-0.012756348,9.53125,1.96875,-0.140625
1664564184641,-0.39086914,-0.81207275,-0.07550049,-9.65625,3.578125,0.234375
1664564184686,-0.7050781,-0.8579712,0.09466553,4.640625,0.046875,7.15625
1664564184717,-0.72094727,-0.6799927,0.09906006,3.734375,-3.90625,10.421875
1664564184761,-0.5632324,-0.7127075,0.13885498,-3.75,5.5,-1.09375
1664564184806,-0.50634766,-0.6304321,0.074157715,30.015625,-0.171875,8.625
1664564184836,-0.48120117,-0.534729,0.124938965,4.875,1.90625,-0.921875
1664564184881,-0.49682617,-0.5671997,0.01727295,9.5625,5.84375,-1.515625
1664564184926,-0.53149414,-0.6309204,0.10809326,-2.890625,-9.703125,2.71875
1664564184956,-0.60668945,-0.64508057,0.1083374,-6.625,-6.9375,2.625
1664564184986,-0.6176758,-0.7349243,0.11834717,1.96875,-9.90625,0.46875
1664564185046,-0.70751953,-0.74346924,0.14764404,-1.09375,-7.640625,-1.25
1664564185076,-0.79052734,-0.7744751,0.15179443,-0.359375,-11.578125,-6.5
1664564185107,-0.8532715,-0.77716064,0.14984131,-2.078125,-3.6875,-14.671875
1664564185167,-0.907959,-0.8892212,0.24139404,-8.890625,3.421875,-7.3125
1664564185196,-0.96435547,-1.1924438,0.08343506,-36.4375,-3.3125,1.328125
1664564185226,-1.0563965,-1.1585083,0.12225342,-8.1875,-11.25,-4.84375
1664564185286,-0.4440918,-0.74713135,0.050720215,6.6875,3.796875,-0.46875
1664564185300,-0.47094727,-0.66363525,-0.105041504,-19.109375,13.921875,6.4375
1664564185346,-0.5866699,-0.75177,0.06097412,2.078125,-26.546875,-2.875
1664564185406,-0.592041,-0.70684814,0.18231201,3.3125,7.765625,-1.46875
1664564185421,-0.6826172,-0.772522,0.06439209,-8.859375,3.734375,-0.8125
1664564185466,-0.53100586,-0.66656494,0.13983154,-9.96875,-1.4375,9.1875
1664564185526,-0.5058594,-0.59039307,0.11126709,-0.8125,-5.0,8.640625
1664564185540,-0.52001953,-0.5803833,0.08856201,-0.59375,4.21875,3.328125
1664564185586,-0.55688477,-0.64508057,0.15228271,2.640625,-7.40625,5.203125
1664564185646,-0.62597656,-0.5996704,0.1798706,-4.796875,6.09375,-0.71875
1664564185661,-0.6335449,-0.7271118,0.24945068,8.453125,1.171875,0.21875
1664564185706,-0.57250977,-0.7317505,0.21282959,-1.40625,1.203125,5.5
1664564185736,-0.61572266,-0.6838989,0.2736206,5.03125,-2.703125,3.125
1664564185780,-0.70947266,-0.70806885,0.30584717,1.046875,3.015625,2.640625
1664564185825,-0.7458496,-0.7542114,0.29071045,1.890625,4.8125,-2.703125
1664564185855,-0.80126953,-0.7642212,0.31365967,7.28125,10.921875,-12.859375
1664564185901,-0.79663086,-1.0557251,0.28582764,2.359375,-9.03125,-2.53125
1664564185946,-0.88256836,-1.0256958,0.19036865,-8.453125,6.96875,-11.140625
1664564185978,-0.86279297,-1.039856,0.08660889,-10.015625,0.8125,-3.09375
1664564186020,-0.5541992,-0.723938,-0.008361816,-3.453125,7.703125,-5.90625
1664564186066,-0.48828125,-0.8867798,-0.016906738,-8.4375,-1.484375,-0.953125
1664564186096,-0.6933594,-0.8311157,0.09979248,8.53125,-3.203125,4.109375
1664564186141,-0.7578125,-0.7346802,0.14764404,12.046875,-6.640625,2.578125
1664564186186,-0.6555176,-0.71759033,0.11541748,10.6875,-6.984375,0.296875
1664564186216,-0.58984375,-0.6248169,0.15911865,15.59375,-4.296875,0.65625
1664564186261,-0.66674805,-0.61553955,0.07147217,4.953125,-2.5,2.359375
1664564186307,-0.5500488,-0.6296997,0.109802246,9.328125,-3.34375,2.109375
1664564186335,-0.45043945,-0.59161377,0.11981201,11.1875,-4.3125,10.046875
1664564186366,-0.5119629,-0.54766846,0.08734131,-1.546875,-3.359375,10.71875
1664564186426,-0.6147461,-0.6045532,0.074401855,-6.546875,-4.296875,7.03125
1664564186455,-0.67871094,-0.7119751,0.16741943,0.9375,-14.5,3.78125
1664564186487,-0.7182617,-0.7774048,0.124938965,-0.1875,-5.15625,-4.140625
1664564186546,-0.814209,-0.7842407,0.23919678,1.59375,-2.890625,-6.390625
1664564186577,-0.8901367,-0.82354736,0.15008545,-8.03125,-3.21875,-3.5
1664564186606,-0.9970703,-1.0281372,0.11004639,-21.90625,-0.75,4.96875
1664564186665,-0.8762207,-1.2566528,0.13543701,-7.328125,1.265625,-5.078125
1664564186695,-0.7351074,-0.9902954,-0.0134887695,11.21875,2.984375,-10.9375
1664564186725,-0.4104004,-0.66070557,-0.16461182,4.625,-9.359375,9.265625
1664564186786,-0.5161133,-0.7996216,-0.031799316,-12.015625,-7.375,4.03125
1664564186801,-0.62280273,-0.7661743,0.09686279,16.171875,5.6875,-9.078125
1664564186846,-0.7258301,-0.6914673,0.13079834,-11.078125,7.796875,-7.265625
1664564186906,-0.53637695,-0.6477661,0.027038574,-0.34375,1.453125,2.203125
1664564186921,-0.4699707,-0.6511841,0.06463623,-2.484375,7.15625,2.921875
1664564186966,-0.5131836,-0.61260986,0.12982178,3.40625,-4.3125,6.59375
1664564187027,-0.61499023,-0.58795166,0.13031006,-2.046875,4.28125,-1.53125
1664564187041,-0.57666016,-0.6253052,0.11932373,1.703125,0.5625,-0.875
1664564187086,-0.6101074,-0.68829346,0.20233154,-5.21875,-0.890625,0.6875
1664564187115,-0.6594238,-0.6626587,0.17303467,-1.125,-1.75,2.578125
1664564187161,-0.67163086,-0.65704346,0.20355225,-0.109375,-0.703125,-0.46875
1664564187208,-0.69433594,-0.6626587,0.23480225,7.328125,1.921875,-2.296875
1664564187236,-0.7380371,-0.7756958,0.23846436,-1.359375,7.40625,-6.0
1664564187281,-0.71655273,-0.85357666,0.26483154,0.65625,9.421875,-4.359375
1664564187326,-0.8811035,-0.88238525,0.33538818,0.328125,6.921875,-7.71875
1664564187358,-0.9316406,-1.2200317,0.31976318,-12.40625,3.640625,-2.296875
1664564187401,-0.9758301,-0.90411377,0.24871826,-7.125,13.765625,-17.515625
1664564187447,-0.7871094,-0.8032837,-0.14459229,-9.71875,13.421875,-18.90625
1664564187476,-0.49145508,-0.7432251,-0.013977051,-17.53125,-8.796875,8.109375
1664564187521,-0.5234375,-0.8184204,0.026306152,-11.796875,1.578125,4.234375
1664564187566,-0.8239746,-0.61383057,0.08392334,10.21875,4.734375,-0.28125
1664564187596,-0.7023926,-0.64312744,0.10272217,7.96875,-5.0,6.25
1664564187641,-0.5571289,-0.6243286,0.1630249,15.078125,5.390625,7.140625
1664564187686,-0.57592773,-0.5808716,0.051452637,37.5,10.90625,12.6875
1664564187718,-0.47192383,-0.5828247,0.036315918,23.9375,-10.875,14.234375
1664564187762,-0.592041,-0.6616821,0.1329956,9.953125,0.5,7.75
1664564187808,-0.6010742,-0.64019775,0.042663574,0.953125,-2.0625,9.015625
1664564187836,-0.58496094,-0.73443604,0.0927124,0.890625,-6.671875,9.609375
1664564187866,-0.7192383,-0.7571411,0.13128662,-0.578125,-9.71875,4.59375
1664564187926,-0.75927734,-0.6987915,0.13568115,7.78125,-5.765625,0.265625
1664564187956,-0.75561523,-0.73223877,0.0680542,-1.15625,-1.890625,-4.703125
1664564187987,-0.7661133,-0.8677368,0.19647217,-0.59375,-4.625,-4.484375
1664564188046,-0.83618164,-0.9741821,0.14544678,-7.3125,5.875,1.546875
1664564188076,-0.9157715,-1.031311,0.04119873,-13.859375,-2.640625,5.265625
1664564188106,-0.8977051,-1.0872192,0.25653076,-4.015625,-5.59375,0.15625
1664564188166,-0.79785156,-1.0076294,0.03387451,-2.625,2.65625,-6.25
1664564188196,-0.36547852,-0.7546997,-0.117248535,-1.421875,12.6875,2.078125
1664564188225,-0.5437012,-0.70440674,-0.086242676,-16.265625,-2.875,5.796875
1664564188286,-0.5270996,-0.7439575,9.1552734E-4,-0.703125,-11.359375,-5.734375
1664564188301,-0.5751953,-0.80181885,0.11004639,4.8125,2.4375,-3.578125
1664564188347,-0.57299805,-0.7671509,0.09954834,-4.28125,4.1875,-6.515625
1664564188408,-0.48266602,-0.6460571,0.09564209,5.03125,2.6875,-0.421875
1664564188421,-0.51904297,-0.62091064,0.11981201,16.171875,-3.4375,6.390625
1664564188467,-0.5131836,-0.6057739,0.06903076,-0.15625,20.25,-6.625
1664564188527,-0.53759766,-0.64263916,0.07928467,17.640625,-0.546875,2.296875
1664564188541,-0.5793457,-0.69000244,0.15594482,0.53125,-1.15625,1.203125
1664564188587,-0.6176758,-0.7280884,0.050231934,3.59375,-9.65625,1.5625
1664564188616,-0.7331543,-0.70635986,0.34173584,19.21875,8.828125,7.265625
1664564188661,-0.53637695,-0.68341064,0.06536865,5.046875,-6.0625,8.75
1664564188706,-0.6821289,-0.73760986,0.21087646,15.6875,1.875,4.6875
1664564188735,-0.63305664,-0.80303955,0.14471436,5.25,-3.515625,8.40625
1664564188781,-0.67333984,-0.74346924,0.19207764,-1.828125,-3.859375,0.328125
1664564188826,-0.8083496,-0.7564087,0.29925537,5.796875,-2.71875,3.703125
1664564188856,-0.68066406,-0.8130493,0.089782715,-6.015625,-2.0,6.0625
1664564188901,-0.6953125,-0.9990845,0.24822998,-1.46875,-8.796875,2.28125
1664564188945,-1.0263672,-1.4248657,0.260437,-19.140625,-17.71875,4.5
1664564188975,-1.0136719,-1.2385864,0.039245605,-12.59375,19.25,-25.078125
1664564189021,-0.6867676,-0.9002075,-0.13238525,6.328125,15.09375,-1.6875
1664564189065,-0.06713867,-0.58477783,-0.14703369,29.546875,-1.1875,10.9375
1664564189095,-0.59399414,-0.81817627,-0.06549072,-7.421875,21.046875,2.390625
1664564189141,-0.86621094,-0.79815674,-0.069885254,21.390625,-2.15625,1.171875
1664564189186,-0.5095215,-0.77227783,0.06561279,-17.09375,-45.609375,14.375
1664564189216,-0.45874023,-0.59259033,0.18817139,8.1875,14.546875,0.59375
1664564189261,-0.5205078,-0.6008911,-0.009338379,12.75,23.875,0.3125
1664564189306,-0.30859375,-0.5889282,-0.09552002,36.46875,24.328125,10.578125
1664564189335,-0.4489746,-0.6956177,-0.0647583,16.84375,10.125,11.296875
1664564189368,-0.5004883,-0.6057739,-0.086242676,-5.375,-10.890625,3.0625
1664564189426,-0.54418945,-0.6589966,0.03338623,-9.421875,-35.875,5.046875
1664564189455,-0.54907227,-0.74542236,0.11224365,-7.3125,-23.203125,8.21875
1664564189486,-0.5473633,-0.79522705,0.06072998,3.765625,9.4375,10.09375
1664564189546,-0.6386719,-0.8467407,0.14471436,-16.75,-38.4375,9.875
1664564189575,-0.7783203,-0.77960205,0.16986084,-6.0,-1.984375,-2.21875
1664564189606,-0.6928711,-0.8621216,0.1395874,5.453125,-17.546875,6.234375
1664564189666,-1.0048828,-0.89385986,0.39544678,0.34375,-11.0,-0.78125
1664564189696,-1.1784668,-1.2405396,0.13421631,16.0,-7.625,4.046875
1664564189728,-1.0078125,-1.5320435,0.35614014,15.859375,-10.109375,-7.65625
1664564189785,-0.4387207,-0.9380493,-0.23712158,5.03125,-7.828125,31.59375
1664564189803,-0.37719727,-0.6187134,-1.0186157,-100.625,-24.921875,7.640625
1664564189846,0.12548828,-1.366272,-0.34259033,72.40625,40.21875,2.484375
1664564189906,-0.4802246,-0.8882446,-0.1795044,61.65625,2.328125,3.921875
1664564189921,-0.42016602,-1.1370239,-0.015686035,-8.640625,36.0,-13.125
1664564189967,-0.32592773,-0.90167236,-0.4512329,-23.390625,23.265625,-16.0
1664564190026,-0.43481445,-0.8699341,-0.15216064,-0.828125,-17.0,-9.15625
1664564190041,-0.38476562,-0.76568604,0.07196045,-0.453125,2.03125,-3.734375
1664564190086,-0.359375,-0.6880493,-0.09234619,-7.203125,9.828125,-11.6875
1664564190115,-0.41381836,-0.5684204,-0.047912598,-3.625,11.765625,-0.71875
1664564190162,-0.45336914,-0.64727783,-0.031799316,-4.9375,10.671875,-4.921875
1664564190206,-0.4091797,-0.7073364,0.04071045,-7.203125,9.28125,-10.8125
1664564190236,-0.47973633,-0.63946533,0.034362793,8.34375,11.890625,-7.546875
1664564190281,-0.51464844,-0.6174927,0.023376465,5.171875,4.5625,-6.78125
1664564190328,-0.53149414,-0.61798096,0.12713623,6.265625,6.453125,-4.703125
1664564190356,-0.59350586,-0.6773071,0.16595459,8.78125,7.6875,-8.609375
1664564190401,-0.57714844,-0.7449341,0.16204834,5.0625,12.53125,-9.296875
1664564190446,-0.75561523,-0.8970337,0.25506592,2.375,15.359375,-5.578125
1664564190476,-0.88549805,-1.0650024,0.17523193,-2.09375,14.96875,-13.734375
1664564190521,-1.0187988,-1.0161743,0.51971436,15.484375,18.8125,-10.0625
1664564190566,-0.8574219,-0.9824829,0.22943115,2.046875,-14.5625,-0.59375
1664564190598,-0.35424805,-1.3972778,0.3517456,6.234375,-28.15625,10.28125
1664564190641,-0.80737305,-0.598938,-0.48614502,26.171875,5.4375,7.65625
1664564190688,-0.32641602,-1.00177,-0.38775635,-34.6875,19.0625,-2.46875
1664564190720,-0.29125977,-1.5076294,-0.31549072,-20.328125,56.734375,-17.671875
1664564190760,-1.0827637,-0.77667236,-0.49346924,11.828125,87.3125,34.5625
1664564190807,-0.45996094,-0.75323486,-0.35064697,92.421875,17.390625,-14.3125
1664564190836,-0.532959,-1.1817017,-0.52838135,125.703125,9.359375,-26.421875
1664564190866,-0.6298828,-0.8255005,-0.15411377,-43.8125,-35.5625,5.78125
1664564190927,-0.61499023,-0.8220825,-0.1873169,11.6875,-11.796875,-2.1875
1664564190956,-0.5617676,-0.82891846,-0.15826416,-6.375,-3.484375,-5.359375
1664564190986,-0.5629883,-0.7444458,-0.17022705,-5.421875,-17.109375,0.890625
1664564191046,-0.49169922,-0.6543579,-0.093811035,-13.734375,-20.046875,-4.859375
1664564191075,-0.4802246,-0.55059814,-0.038635254,-27.03125,-14.28125,-1.8125
1664564191106,-0.44189453,-0.5256958,-0.09869385,-20.328125,-15.28125,-1.078125
1664564191166,-0.46728516,-0.5276489,-0.09234619,-21.53125,-22.484375,0.75
1664564191181,-0.49951172,-0.6326294,-0.027160645,-30.25,-31.703125,0.921875
1664564191226,-0.59887695,-0.68414307,-0.017150879,-20.171875,-21.34375,-3.609375
1664564191286,-0.68408203,-0.8272095,0.009460449,-21.6875,-24.640625,-11.4375
1664564191301,-0.72509766,-0.88653564,0.031921387,-17.9375,-34.4375,-6.5625
1664564191347,-0.7421875,-0.91119385,0.070007324,-25.328125,-30.40625,-5.546875
1664564191406,-0.8461914,-1.0022583,-0.05279541,-17.5,14.53125,2.828125
1664564191421,-0.99365234,-1.3303833,-0.10357666,-17.015625,1.203125,0.546875
1664564191467,-0.5756836,-1.041565,-0.30670166,22.453125,21.140625,2.25
1664564191543,-0.3869629,-0.7288208,-0.32330322,-0.234375,-16.765625,6.6875
1664564191545,-0.58325195,-0.90631104,-0.11090088,-13.71875,-1.984375,3.171875
1664564191586,-0.5883789,-0.835022,-0.1560669,2.8125,-0.0625,-9.78125
1664564191615,-0.6242676,-0.76885986,-0.07501221,-23.171875,-16.484375,-2.84375
1664564191660,-0.5234375,-0.75006104,-0.11383057,3.4375,3.640625,-1.328125
1664564191706,-0.46923828,-0.73687744,-0.06866455,6.375,-2.09375,-0.671875
1664564191736,-0.47070312,-0.6050415,-0.03375244,3.96875,7.3125,-1.6875
1664564191781,-0.47436523,-0.53204346,-0.047912598,12.28125,2.78125,-10.03125
1664564191826,-0.43896484,-0.5935669,-0.037902832,5.953125,-8.0,-2.671875
1664564191855,-0.5202637,-0.7258911,0.038757324,-3.75,-4.6875,-0.296875
1664564191901,-0.54296875,-0.68756104,-0.06427002,-2.0625,2.75,-1.234375
1664564191946,-0.5690918,-0.7180786,-0.06890869,2.125,1.03125,2.140625
1664564191976,-0.66015625,-0.8357544,0.0053100586,1.703125,-2.25,4.15625
1664564192020,-0.6645508,-0.83135986,0.12030029,-0.375,1.234375,6.453125
1664564192066,-0.67089844,-0.78741455,-0.08135986,-4.859375,4.375,3.90625
1664564192095,-0.7766113,-0.8665161,0.14031982,1.484375,-3.40625,-10.828125
1664564192141,-0.93359375,-1.0459595,0.12322998,-7.84375,9.25,-11.609375
1664564192185,-0.84765625,-1.1140747,-0.101623535,-1.75,-3.171875,-9.421875
1664564192215,-0.9157715,-1.1607056,-0.109436035,-8.625,9.40625,-12.46875
1664564192260,-0.61328125,-0.83013916,-0.13995361,-4.1875,14.84375,2.375
1664564192306,-0.43164062,-0.7131958,-0.18560791,-9.296875,18.734375,6.515625
1664564192335,-0.5986328,-0.8562622,-0.14801025,-6.890625,-3.765625,1.671875
1664564192366,-0.71875,-0.7539673,0.06781006,8.234375,9.0,2.46875
1664564192426,-0.6464844,-0.7036743,-0.018371582,1.328125,4.84375,3.953125
1664564192456,-0.5205078,-0.6885376,-0.031555176,12.421875,18.203125,-2.03125
1664564192486,-0.52197266,-0.58673096,0.0016479492,17.140625,9.296875,-1.34375
1664564192545,-0.47509766,-0.5574341,-0.0076293945,10.65625,15.3125,-2.125
1664564192575,-0.4729004,-0.5967407,0.00579834,14.734375,12.515625,1.59375
1664564192608,-0.51586914,-0.5911255,-0.002746582,9.46875,8.765625,2.9375
1664564192666,-0.59228516,-0.6765747,-0.014465332,-4.515625,-4.6875,1.203125
1664564192681,-0.6447754,-0.7827759,0.07342529,-0.0625,-2.875,0.984375
1664564192726,-0.68408203,-0.75567627,0.050720215,1.515625,-0.90625,-4.515625
1664564192785,-0.7492676,-0.6589966,0.11932373,4.359375,-2.75,-3.0625
1664564192801,-0.84521484,-0.7112427,0.12298584,-6.296875,4.59375,-8.4375
1664564192846,-0.7741699,-0.8977661,0.14251709,-10.109375,5.96875,-5.90625
1664564192905,-0.8535156,-0.9487915,0.11810303,-10.8125,1.796875,1.046875
1664564192921,-0.93774414,-0.9495239,0.094177246,-7.046875,-1.578125,1.90625
1664564192966,-0.9892578,-0.99542236,0.082458496,-21.4375,15.09375,-11.109375
1664564193026,-0.79956055,-1.140686,0.015563965,15.171875,15.703125,-2.453125
1664564193041,-0.41845703,-0.71173096,-0.14093018,23.8125,22.125,-11.265625
1664564193087,-0.3857422,-0.756897,-0.14093018,-4.6875,-5.453125,12.53125
1664564193116,-0.70458984,-0.87091064,0.18914795,-1.703125,-11.6875,-1.671875
1664564193161,-0.67529297,-0.69854736,0.007751465,-2.953125,11.359375,-10.640625
1664564193206,-0.6015625,-0.7385864,0.029968262,1.078125,3.9375,-4.25
1664564193236,-0.5595703,-0.70880127,0.116882324,5.390625,-0.5,0.015625
1664564193281,-0.5456543,-0.60723877,0.054382324,7.25,5.4375,-2.25
1664564193327,-0.57543945,-0.553772,0.0602417,8.75,0.015625,-2.015625
1664564193356,-0.6152344,-0.57037354,0.07977295,12.78125,-3.421875,-4.828125
1664564193401,-0.5402832,-0.6043091,0.07904053,9.328125,-1.625,-0.78125
1664564193446,-0.5810547,-0.68048096,0.09295654,8.21875,-12.78125,3.328125
1664564193476,-0.6057129,-0.7078247,0.05267334,-3.90625,1.734375,2.984375
1664564193521,-0.6965332,-0.7276001,0.12591553,-3.75,-7.421875,5.15625
1664564193566,-0.71118164,-0.6885376,0.12445068,0.546875,0.46875,6.65625
1664564193596,-0.7475586,-0.6904907,0.1762085,6.734375,0.140625,0.1875
1664564193641,-0.7451172,-0.7984009,0.2098999,3.1875,-3.078125,1.046875
1664564193686,-0.78125,-0.7683716,0.19744873,-0.453125,-10.078125,2.984375
1664564193716,-0.92089844,-0.8196411,0.06707764,-4.65625,10.125,-7.21875
1664564193760,-0.732666,-1.0974731,0.031188965,-10.984375,2.78125,-4.734375
1664564193805,-0.91918945,-1.3047485,0.19866943,-9.34375,3.984375,-8.328125
1664564193839,-0.9506836,-0.92681885,-0.09527588,-4.359375,18.90625,-29.90625
1664564193926,-0.63183594,-0.7119751,-0.20562744,-8.78125,8.296875,3.765625
1664564193928,-0.5041504,-0.7444458,-0.101623535,-14.578125,-17.5,0.828125
1664564193956,-0.6948242,-0.70391846,0.2020874,0.765625,-5.0,5.140625
1664564193988,-0.70532227,-0.72540283,-0.0413208,-8.0625,-10.046875,18.4375
1664564194046,-0.5942383,-0.583313,0.08343506,13.40625,1.640625,2.015625
1664564194076,-0.5246582,-0.628479,0.019470215,24.796875,15.15625,9.65625
1664564194106,-0.48632812,-0.57037354,-0.017150879,23.4375,1.34375,10.796875
1664564194166,-0.44628906,-0.58306885,0.0065307617,25.265625,9.25,15.578125
1664564194180,-0.49145508,-0.66851807,-0.0413208,6.59375,7.890625,14.09375
1664564194226,-0.5654297,-0.7515259,-0.051086426,-8.265625,-24.0625,18.03125
1664564194286,-0.779541,-0.6934204,0.012145996,-37.21875,-49.578125,7.609375
1664564194301,-0.7788086,-0.6902466,0.14129639,1.1875,-33.53125,1.703125
1664564194347,-0.73413086,-0.72491455,0.09906006,1.953125,1.1875,-8.625
1664564194407,-0.7631836,-0.72735596,0.050964355,-9.921875,-10.953125,-9.390625
1664564194420,-0.79248047,-0.84259033,0.12030029,7.703125,-3.609375,-8.34375
1664564194466,-0.7919922,-1.0418091,-0.008117676,-18.984375,10.171875,10.078125
1664564194495,-0.98217773,-1.2422485,-0.043518066,-26.140625,-15.40625,2.21875
1664564194541,-0.8679199,-1.1724243,-0.042297363,10.40625,6.046875,-2.125
1664564194586,-0.4025879,-0.7251587,-0.2354126,11.859375,12.0,1.828125
1664564194616,-0.4230957,-0.7678833,-0.1453247,-8.28125,-11.53125,1.8125
1664564194661,-0.564209,-0.69195557,-0.019836426,2.453125,0.265625,-7.03125
1664564194705,-0.5185547,-0.7437134,-0.042053223,-0.203125,24.640625,-19.515625
1664564194736,-0.60791016,-0.83258057,0.013122559,3.390625,18.96875,-14.390625
1664564194780,-0.57543945,-0.6880493,0.016052246,-5.5,4.84375,1.09375
1664564194825,-0.52124023,-0.6038208,0.026306152,2.59375,10.203125,3.109375
1664564194856,-0.50756836,-0.6355591,0.042907715,3.34375,4.890625,-0.59375
1664564194900,-0.513916,-0.5942993,0.054138184,-8.5625,-2.484375,-4.015625
1664564194946,-0.6142578,-0.6091919,0.014343262,-12.421875,-21.765625,0.796875
1664564194975,-0.7224121,-0.70562744,0.26312256,10.09375,6.359375,6.21875
1664564195020,-0.5617676,-0.79815674,0.008728027,14.875,21.3125,0.109375
1664564195066,-0.6530762,-0.8296509,0.04119873,17.921875,-2.375,13.8125
1664564195095,-0.67871094,-0.79156494,0.19012451,-18.96875,-10.78125,12.3125
1664564195140,-0.75805664,-0.7034302,0.14349365,13.671875,9.09375,-4.6875
1664564195186,-0.91015625,-0.8023071,0.20892334,-3.28125,13.4375,-16.921875
1664564195216,-0.9211426,-1.08844,0.062927246,28.21875,37.9375,-17.890625
1664564195245,-0.88061523,-1.3555298,0.0026245117,17.28125,40.875,-5.796875
1664564195309,-0.7036133,-0.80792236,-0.06890869,2.296875,37.921875,-4.5
1664564195336,-0.44262695,-0.6436157,-0.21051025,-7.40625,26.859375,10.5
1664564195367,-0.7531738,-0.7727661,6.713867E-4,20.265625,6.6875,-10.8125
1664564195426,-0.65893555,-0.8008423,-0.14923096,44.0625,-26.09375,-0.78125
1664564195455,-0.5698242,-0.8574829,0.14154053,-68.0,-56.25,10.75
1664564195486,-0.54907227,-0.54937744,0.09100342,-15.71875,-23.1875,9.765625
1664564195546,-0.66137695,-0.6069946,0.11639404,17.171875,17.953125,-2.046875
1664564195606,-0.47094727,-0.62164307,0.015563965,19.765625,34.609375,3.3125
1664564195608,-0.5695801,-0.64971924,-0.02520752,4.96875,10.0,7.640625
1664564195666,-0.6274414,-0.64434814,-0.011779785,-16.203125,-18.734375,12.40625
1664564195681,-0.6357422,-0.68170166,0.10321045,9.34375,-10.75,3.984375
1664564195726,-0.7219238,-0.83258057,0.113464355,3.140625,3.921875,1.75
1664564195786,-0.6882324,-0.722229,0.049743652,-0.75,19.65625,4.078125
1664564195801,-0.68603516,-0.7883911,-0.059143066,-8.984375,-16.71875,0.4375
1664564195846,-0.87841797,-0.87872314,0.18377686,-0.640625,-7.28125,-4.484375
1664564195906,-0.8935547,-1.019104,-0.026916504,-30.171875,-5.625,-3.28125
1664564195921,-0.85961914,-1.1878052,0.12249756,17.5625,-2.609375,-10.890625
1664564195968,-0.5515137,-1.0274048,-0.077941895,-6.609375,10.796875,-14.515625
1664564195996,-0.41845703,-0.8665161,-0.047424316,10.453125,-1.890625,4.28125
1664564196041,-0.5944824,-0.70635986,0.04852295,-0.296875,-8.484375,-8.359375
1664564196085,-0.5397949,-0.7529907,0.051940918,1.3125,15.109375,-13.234375
1664564196116,-0.5415039,-0.815979,0.077819824,-10.390625,0.0625,-10.6875
1664564196161,-0.564209,-0.7437134,0.06561279,-19.265625,-6.609375,-3.78125
1664564196206,-0.5046387,-0.59820557,0.06781006,-10.875,-9.453125,7.5625
1664564196236,-0.52124023,-0.5679321,0.121032715,-12.78125,-18.84375,5.34375
1664564196281,-0.45117188,-0.53302,0.061462402,-12.328125,-6.375,0.578125
1664564196326,-0.56225586,-0.6465454,0.08148193,0.0,-18.3125,-2.578125
1664564196355,-0.6977539,-0.75567627,0.1798706,-9.578125,-9.953125,4.390625
1664564196401,-0.6882324,-0.6721802,0.12347412,3.375,-10.5,7.25
1664564196446,-0.69384766,-0.7319946,0.15789795,-2.0625,5.03125,-2.171875
1664564196476,-0.71240234,-0.71221924,0.1708374,6.765625,-9.875,6.796875
1664564196521,-0.65771484,-0.71295166,0.15374756,-0.046875,7.15625,1.078125
1664564196566,-0.7216797,-0.75738525,0.24871826,5.765625,-6.9375,1.453125
1664564196598,-0.9785156,-0.7522583,0.27972412,-1.796875,11.25,-10.3125
1664564196641,-0.98828125,-1.1143188,0.062927246,2.40625,5.484375,-16.34375
1664564196686,-1.064209,-1.3147583,0.16253662,0.328125,14.28125,-16.25
1664564196716,-0.7351074,-0.8909302,-0.020812988,3.671875,32.515625,2.953125
1664564196745,-0.38232422,-0.4973755,-0.07574463,0.21875,44.46875,19.453125
1664564196806,-0.6123047,-0.90753174,-0.10479736,-20.546875,10.3125,-22.046875
1664564196835,-0.76342773,-0.7637329,-0.013000488,13.046875,-37.671875,18.375
1664564196866,-0.55566406,-0.6123657,0.5219116,6.125,-42.734375,7.0625
1664564196926,-0.6694336,-0.72735596,0.028503418,-9.9375,18.421875,-3.78125
1664564196956,-0.5415039,-0.58258057,-0.007385254,29.15625,27.53125,-2.9375
1664564196985,-0.45117188,-0.585022,-0.050598145,35.828125,-1.828125,14.375
1664564197046,-0.50634766,-0.6067505,0.028259277,-26.453125,-50.125,14.6875
1664564197076,-0.670166,-0.55914307,0.17156982,1.21875,14.171875,-4.796875
1664564197106,-0.6333008,-0.7161255,-0.0012817383,7.0,-0.015625,-1.328125
1664564197166,-0.66625977,-0.7481079,0.117370605,-6.953125,-5.640625,-2.140625
1664564197180,-0.71069336,-0.7349243,0.09979248,-1.8125,-2.375,-2.875
1664564197227,-0.77490234,-0.75128174,0.18328857,-3.203125,-5.625,-4.265625
1664564197286,-0.8769531,-0.6897583,0.11981201,-20.890625,-4.734375,-9.625
1664564197301,-0.9855957,-0.9234009,0.11932373,-10.734375,-2.890625,-2.3125
1664564197347,-1.0263672,-1.1470337,0.0067749023,-12.3125,-0.03125,-3.0
1664564197406,-0.8015137,-1.2410278,0.16766357,11.046875,-10.953125,2.171875
1664564197420,-0.49365234,-0.86383057,-0.049865723,10.515625,1.671875,-2.875
1664564197469,-0.52856445,-0.62042236,-0.073791504,-11.453125,-9.859375,5.984375
1664564197495,-0.54833984,-0.7490845,0.10662842,1.21875,-2.890625,0.03125
1664564197541,-0.46606445,-0.73223877,0.035827637,13.5625,8.28125,2.9375
1664564197586,-0.5649414,-0.7761841,0.16546631,-5.03125,1.9375,3.484375
1664564197616,-0.5366211,-0.6782837,0.042419434,-0.09375,0.796875,4.0625
1664564197661,-0.4777832,-0.6538696,0.027038574,2.40625,-1.734375,6.53125
1664564197705,-0.52734375,-0.65875244,0.10076904,-0.03125,-10.78125,2.265625
1664564197736,-0.5463867,-0.67144775,0.059020996,-5.484375,-5.75,4.84375
1664564197781,-0.53808594,-0.7180786,0.097839355,-1.78125,-14.484375,6.078125
1664564197826,-0.6298828,-0.71295166,0.15765381,-3.875,-10.734375,6.046875
1664564197856,-0.6245117,-0.72320557,0.11053467,0.90625,-13.703125,4.3125
1664564197901,-0.58251953,-0.7456665,0.16229248,6.390625,-15.328125,6.140625
1664564197975,-0.63842773,-0.8399048,0.14105225,-9.46875,-7.78125,7.140625
1664564197976,-0.71435547,-0.8284302,0.24139404,8.21875,-11.1875,1.28125
1664564198021,-0.7937012,-0.8748169,0.16693115,-4.0,9.625,-6.171875
1664564198066,-0.7512207,-1.0183716,0.16815186,-8.375,-0.203125,-7.578125
1664564198096,-0.8811035,-1.3255005,0.16595459,-12.8125,-2.828125,-4.265625
1664564198141,-0.9099121,-1.0654907,-0.046447754,-3.515625,11.5625,-10.59375
1664564198186,-0.61694336,-0.8040161,-0.19317627,-8.375,20.984375,1.984375
1664564198215,-0.38623047,-0.69537354,-0.17706299,-23.046875,6.171875,3.75
1664564198246,-0.5974121,-0.86505127,-0.07598877,-17.484375,-5.84375,2.515625
1664564198306,-0.75,-0.71417236,-0.008117676,8.0,-19.546875,6.75
1664564198336,-0.7023926,-0.6646118,0.18621826,21.109375,10.84375,-2.75
1664564198365,-0.58447266,-0.70318604,0.07489014,-6.078125,9.0,0.15625
1664564198427,-0.55200195,-0.6277466,-0.014709473,8.375,4.046875,0.96875
1664564198455,-0.47705078,-0.61383057,0.022155762,8.53125,14.1875,-4.15625
1664564198486,-0.46240234,-0.63165283,0.058288574,-3.359375,-22.75,5.15625
1664564198546,-0.5136719,-0.581604,-0.006652832,-12.734375,2.296875,2.34375
1664564198575,-0.5554199,-0.6682739,0.10272217,-1.5625,-7.171875,4.328125
1664564198606,-0.6616211,-0.72979736,0.04876709,-9.390625,-5.0625,0.65625
1664564198666,-0.7302246,-0.77130127,0.137146,4.140625,-2.5625,-4.09375
1664564198681,-0.78125,-0.8062134,0.11810303,0.625,-0.390625,-9.046875
1664564198726,-0.83374023,-0.84552,0.19281006,-14.15625,-0.921875,-9.84375
1664564198786,-0.8718262,-0.86846924,0.22991943,-4.328125,1.5,-1.609375
1664564198800,-0.9814453,-1.0130005,0.1720581,-18.578125,6.90625,-7.921875
1664564198847,-0.9855957,-1.1043091,0.101501465,-3.359375,13.03125,-7.65625
1664564198906,-0.36767578,-0.9273071,-0.09210205,12.4375,10.984375,-7.890625
1664564198921,-0.50561523,-0.68878174,-0.040100098,-21.734375,-8.359375,2.953125
1664564198967,-0.6335449,-0.694397,0.035827637,-0.625,0.90625,0.359375
1664564198996,-0.54785156,-0.7293091,0.121276855,3.34375,7.5625,-8.15625
1664564199041,-0.66137695,-0.7373657,0.0848999,-0.375,13.96875,-7.375
1664564199086,-0.657959,-0.68756104,0.06536865,4.796875,5.140625,-5.578125
1664564199116,-0.59155273,-0.5996704,0.13787842,13.34375,10.265625,0.0
1664564199162,-0.55126953,-0.5615845,0.1071167,19.25,7.15625,-8.21875
1664564199206,-0.57470703,-0.6116333,0.1749878,15.96875,1.21875,-2.234375
1664564199236,-0.5529785,-0.6231079,0.09661865,9.984375,-2.1875,5.09375
1664564199281,-0.58691406,-0.6836548,0.18450928,7.90625,-3.53125,6.546875
1664564199329,-0.6796875,-0.6782837,0.14447021,4.875,0.078125,3.6875
1664564199356,-0.72314453,-0.7180786,0.16766357,4.21875,2.90625,2.953125
1664564199401,-0.70703125,-0.7258911,0.1486206,7.328125,-0.546875,5.546875
1664564199446,-0.7824707,-0.7227173,0.18157959,1.453125,9.703125,-0.234375
1664564199479,-0.79956055,-0.706604,0.24945068,13.875,1.953125,2.0625
1664564199521,-0.7150879,-0.74835205,0.19525146,11.90625,7.015625,-1.140625
1664564199566,-0.92529297,-0.9209595,0.2892456,-0.5,5.75,-5.5
1664564199596,-0.9135742,-1.1401978,0.16351318,-2.4375,-1.53125,-4.75
1664564199686,-0.9128418,-1.1521606,0.08392334,-6.75,7.921875,-3.875
1664564199688,-0.6726074,-0.8401489,-0.10430908,11.609375,6.046875,4.921875
1664564199716,-0.4013672,-0.6802368,-0.094055176,-3.640625,2.265625,6.890625
1664564199748,-0.5925293,-0.8335571,0.02557373,12.1875,3.265625,5.9375
1664564199806,-0.7319336,-0.71343994,0.11883545,5.75,7.8125,5.828125
1664564199838,-0.5932617,-0.7085571,0.05731201,-14.40625,2.84375,3.859375
1664564199866,-0.5793457,-0.62335205,0.09832764,-8.859375,2.78125,-4.734375
1664564199927,-0.5234375,-0.5796509,-0.009094238,3.34375,6.71875,-8.84375
1664564199956,-0.48999023,-0.61676025,0.08001709,10.421875,-6.53125,-6.25
1664564199986,-0.50341797,-0.58673096,0.11810303,8.21875,-0.375,-4.234375
1664564200046,-0.5654297,-0.64068604,0.06317139,6.5,1.140625,-2.921875
1664564200061,-0.67871094,-0.6577759,0.13665771,-2.625,-6.171875,-4.59375
1664564200106,-0.74365234,-0.7151489,0.16912842,-2.09375,-6.71875,-4.28125
1664564200166,-0.76904297,-0.7161255,0.11956787,-2.703125,-4.46875,-3.125
1664564200181,-0.81469727,-0.73809814,0.1437378,3.359375,-2.34375,-3.25
1664564200225,-0.9682617,-0.7842407,0.109802246,-4.53125,-6.796875,-16.3125
1664564200286,-1.0671387,-0.95147705,0.21820068,-9.53125,3.203125,-11.1875
1664564200300,-0.85546875,-0.99591064,0.047302246,-5.078125,-7.5,6.359375
1664564200347,-0.8330078,-1.0071411,0.04071045,-8.09375,-3.125,0.21875
1664564200406,-0.48217773,-0.802063,-0.008361816,25.28125,-5.34375,3.609375
1664564200420,-0.6208496,-0.5828247,-0.06768799,-31.296875,1.609375,3.828125
1664564200466,-0.638916,-0.73809814,0.090026855,-0.234375,-1.796875,0.734375
1664564200496,-0.595459,-0.7583618,0.074645996,3.625,10.4375,-9.640625
1664564200541,-0.6711426,-0.74005127,0.058532715,-4.59375,5.390625,-0.421875
1664564200585,-0.56640625,-0.6934204,0.08026123,1.796875,0.8125,6.515625
1664564200616,-0.5854492,-0.5779419,0.13275146,-2.71875,-2.609375,6.515625
1664564200660,-0.60668945,-0.49639893,0.09539795,2.4375,3.265625,1.171875
1664564200706,-0.49804688,-0.5437622,0.07952881,6.65625,1.953125,3.0625
1664564200735,-0.545166,-0.67144775,0.16668701,0.5,-10.703125,9.484375
1664564200780,-0.6381836,-0.6799927,0.17108154,0.5,-2.765625,5.484375
1664564200826,-0.6911621,-0.6729126,0.15594482,-2.859375,-0.078125,4.734375
1664564200856,-0.69433594,-0.66851807,0.20135498,-2.484375,-3.515625,2.578125
1664564200901,-0.74487305,-0.6970825,0.2008667,-3.5,-0.5,1.9375
1664564200946,-0.7844238,-0.79693604,0.23553467,-3.5,4.5,-3.609375
1664564200976,-0.77612305,-0.8101196,0.25628662,-0.40625,-2.328125,-3.8125
1664564201021,-0.98950195,-1.0427856,0.27972412,-0.75,5.171875,-7.265625
1664564201185,-0.9785156,-1.2627563,0.117614746,-8.546875,6.125,-7.6875
1664564201187,-0.8208008,-0.9089966,-0.0869751,3.625,7.46875,-14.328125
1664564201189,-0.4794922,-0.5886841,0.0014038086,4.484375,4.96875,0.40625
1664564201190,-0.58374023,-0.7493286,-0.0095825195,-8.578125,9.296875,-1.796875
1664564201216,-0.7429199,-0.67559814,0.07611084,9.84375,-6.546875,1.859375
1664564201246,-0.7092285,-0.6255493,0.12322998,-0.09375,3.609375,4.84375
1664564201307,-0.6022949,-0.7041626,0.09954834,9.546875,10.0,2.71875
1664564201336,-0.6291504,-0.5393677,0.07366943,17.3125,7.484375,-1.625
1664564201366,-0.49291992,-0.56622314,0.10101318,7.390625,3.015625,-0.21875
1664564201426,-0.50097656,-0.60528564,0.09710693,3.296875,4.328125,4.28125
1664564201455,-0.6923828,-0.54522705,0.16156006,-0.921875,-0.390625,12.53125
1664564201486,-0.6640625,-0.67193604,0.12689209,0.765625,1.28125,2.78125
1664564201546,-0.7072754,-0.69488525,0.07513428,12.796875,-1.734375,3.453125
1664564201561,-0.8054199,-0.7637329,0.25897217,8.34375,-10.90625,5.046875
1664564201606,-0.8256836,-0.74176025,0.117370605,0.546875,-5.953125,-3.390625
1664564201666,-0.94555664,-0.8328247,0.18719482,-12.15625,2.4375,-6.78125
1664564201681,-1.0571289,-1.0110474,0.05291748,-15.953125,3.8125,1.046875
1664564201728,-0.88061523,-1.1528931,0.12591553,-1.921875,-2.359375,-0.828125
1664564201801,-0.6105957,-1.1882935,0.054382324,23.921875,-8.65625,7.125
1664564201803,-0.38085938,-0.46343994,-0.16143799,37.59375,-0.640625,17.859375
1664564201847,-0.65625,-0.60528564,0.21429443,-30.296875,-17.46875,0.625
1664564201906,-0.5419922,-0.8394165,0.014831543,9.796875,23.90625,-11.984375
1664564201921,-0.60717773,-0.75860596,0.0072631836,7.515625,12.203125,-12.34375
1664564201966,-0.5461426,-0.7112427,0.089538574,-9.34375,-0.703125,2.59375
1664564201996,-0.44335938,-0.66241455,0.05999756,4.5,0.109375,9.0625
1664564202041,-0.4970703,-0.55426025,0.0848999,-5.5,-5.09375,4.765625
1664564202087,-0.51538086,-0.5635376,0.057800293,-8.375,-4.34375,1.0625
1664564202116,-0.5083008,-0.6433716,0.08050537,-0.328125,-2.578125,-3.484375
1664564202160,-0.5385742,-0.7214966,0.13568115,6.65625,-18.5,0.671875
1664564202207,-0.6340332,-0.694397,0.15081787,-1.921875,-8.625,1.484375
1664564202236,-0.7504883,-0.68585205,0.1305542,-6.25,-2.171875,-4.171875
1664564202281,-0.736084,-0.74420166,0.15325928,-4.984375,3.0625,-8.765625
1664564202327,-0.82250977,-0.79644775,0.23626709,4.578125,6.421875,-6.1875
1664564202356,-0.8635254,-0.85528564,0.19720459,-4.046875,1.015625,-13.9375
1664564202401,-0.93115234,-1.0481567,0.25823975,-6.546875,17.8125,-25.078125
1664564202446,-1.0317383,-1.1001587,0.15130615,-6.0625,-2.359375,-7.328125
1664564202476,-1.0231934,-0.99176025,-0.030090332,-9.390625,27.09375,-11.296875
1664564202536,-0.6003418,-0.7503052,-0.11993408,23.40625,25.03125,8.34375
1664564202566,-0.3503418,-0.6123657,-0.09210205,-12.484375,-29.109375,15.53125
1664564202596,-0.79467773,-0.8057251,0.06072998,-8.625,-7.90625,10.171875
1664564202641,-0.8112793,-0.7017212,0.034851074,-0.25,-16.828125,14.359375
1664564202686,-0.6850586,-0.5852661,0.18621826,-5.96875,4.046875,2.09375
1664564202716,-0.54956055,-0.66607666,0.040222168,31.265625,18.265625,7.75
1664564202745,-0.54418945,-0.5845337,0.0067749023,-12.375,-7.859375,5.375
1664564202806,-0.46899414,-0.49273682,0.15545654,11.125,-3.484375,6.734375
1664564202836,-0.5251465,-0.52960205,0.11151123,-17.625,-7.109375,5.671875
1664564202865,-0.5944824,-0.63287354,0.042175293,-16.015625,1.875,-0.3125
1664564202926,-0.6833496,-0.6499634,0.13153076,1.765625,1.6875,0.453125
1664564202957,-0.7248535,-0.73150635,0.24090576,-5.921875,0.96875,-2.625
1664564202985,-0.7307129,-0.7210083,0.22601318,-1.828125,0.203125,-4.53125
1664564203046,-0.75805664,-0.6746216,0.19451904,-9.234375,0.296875,-7.6875
1664564203061,-0.81689453,-0.71343994,0.15179443,-10.953125,-1.25,-7.703125
1664564203107,-0.88305664,-0.8008423,0.2296753,-2.8125,-4.6875,-3.953125
1664564203166,-1.1733398,-1.0237427,0.15594482,-22.359375,4.609375,-6.046875
1664564203181,-0.95336914,-1.350647,0.17401123,9.296875,-3.203125,4.609375
1664564203227,-0.6813965,-1.0706177,0.08782959,17.71875,-0.40625,-3.5625
1664564203286,-0.42236328,-0.47686768,-0.12408447,6.65625,-0.8125,13.9375
1664564203301,-0.5942383,-0.73760986,0.13226318,-10.296875,-4.203125,7.109375
1664564203346,-0.60375977,-0.7581177,0.08660889,18.9375,3.5625,-8.328125
1664564203375,-0.6437988,-0.690979,0.16815186,2.484375,14.9375,-7.21875
1664564203420,-0.58935547,-0.75201416,0.09051514,6.796875,2.671875,-2.109375
1664564203466,-0.47070312,-0.6543579,0.09906006,0.765625,-6.203125,8.671875
1664564203496,-0.5390625,-0.5901489,0.15618896,7.609375,-2.234375,6.109375
1664564203541,-0.57055664,-0.5630493,0.09637451,3.546875,-4.9375,2.6875
1664564203586,-0.5241699,-0.6382446,0.10687256,1.75,-1.90625,3.21875
1664564203616,-0.58374023,-0.6589966,0.15814209,2.78125,-2.4375,0.71875
1664564203661,-0.6442871,-0.70318604,0.15716553,4.6875,-0.84375,4.046875
1664564203705,-0.69262695,-0.70269775,0.18890381,6.515625,-0.984375,3.4375
1664564203736,-0.7302246,-0.71588135,0.21136475,11.6875,0.8125,1.46875
1664564203781,-0.7434082,-0.8521118,0.18817139,5.328125,-1.109375,0.859375
1664564203826,-0.8105469,-0.91192627,0.25604248,2.21875,-3.8125,-3.34375
1664564203855,-0.8757324,-1.0144653,0.16937256,-9.96875,6.25,-12.578125
1664564203901,-1.0202637,-1.1760864,0.12225342,-6.34375,2.0,-5.90625
1664564203946,-0.7788086,-0.9846802,-0.11529541,1.734375,15.875,-5.390625
1664564203976,-0.48510742,-0.6260376,-0.112854004,8.875,-0.65625,11.4375
1664564204021,-0.51220703,-0.7959595,0.028015137,-4.84375,4.140625,-6.328125
1664564204065,-0.7531738,-0.8230591,-0.046691895,23.4375,8.71875,0.90625
1664564204096,-0.6828613,-0.64019775,0.030944824,6.015625,1.984375,3.359375
1664564204126,-0.5546875,-0.6734009,0.10028076,13.09375,-1.875,0.5
1664564204186,-0.50341797,-0.6548462,0.043640137,7.28125,12.765625,4.6875
1664564204215,-0.47827148,-0.5442505,-0.0178833,8.34375,4.015625,10.578125
1664564204246,-0.43554688,-0.63116455,0.04119873,9.625,-21.5,11.265625
1664564204307,-0.58496094,-0.5886841,0.06829834,-11.4375,-6.59375,5.71875
1664564204335,-0.6472168,-0.71661377,0.015319824,-4.078125,-8.296875,-0.59375
1664564204368,-0.70043945,-0.7349243,0.024353027,0.578125,-1.65625,-5.046875
1664564204426,-0.7163086,-0.78302,0.17303467,1.265625,-12.09375,-0.984375
1664564204458,-0.71313477,-0.8442993,0.077819824,-4.90625,-5.3125,-7.828125
1664564204486,-0.8703613,-1.0049438,0.19134521,-12.8125,-12.53125,-5.03125
1664564204546,-0.94018555,-1.0137329,-0.057434082,-16.734375,2.046875,21.609375
1664564204561,-1.0524902,-1.1690063,0.07562256,-35.65625,-15.46875,-13.375
1664564204607,-0.671875,-1.0383911,-0.049621582,-2.734375,1.75,-10.9375
1664564204665,-0.38671875,-0.64801025,-0.19732666,10.421875,13.375,8.203125
1664564204681,-0.5239258,-0.70025635,0.0040893555,-23.15625,-22.828125,-0.859375
1664564204726,-0.5292969,-0.6890259,0.053649902,-0.625,5.25,-16.78125
1664564204786,-0.54711914,-0.6939087,0.0770874,2.203125,24.0625,-23.390625
1664564204802,-0.6269531,-0.68463135,0.053894043,-4.484375,20.28125,-11.59375
1664564204846,-0.548584,-0.7319946,-3.0517578E-4,-20.828125,-18.84375,-5.6875
1664564204876,-0.5251465,-0.62750244,0.058776855,-34.578125,-48.453125,17.0625
1664564204921,-0.65649414,-0.5015259,0.08685303,-12.734375,29.78125,-10.890625
1664564204966,-0.59936523,-0.51812744,0.07147217,19.640625,9.734375,-12.390625
1664564204996,-0.6201172,-0.8792114,0.28338623,3.015625,-16.34375,6.0
1664564205041,-0.71362305,-0.5418091,0.21209717,-19.09375,11.890625,1.734375
1664564205086,-0.7133789,-0.61309814,0.22625732,24.6875,-1.25,-1.578125
1664564205115,-0.7573242,-0.70562744,0.3036499,4.84375,4.53125,-4.078125
1664564205161,-0.7631836,-0.71710205,0.28851318,-3.734375,-3.125,0.203125
1664564205205,-0.7910156,-0.7053833,0.2579956,3.375,5.65625,-11.9375
1664564205236,-0.88134766,-0.9307251,0.29364014,13.875,9.90625,-12.546875
1664564205280,-1.0185547,-1.2263794,0.25164795,-3.375,2.703125,0.453125
1664564205327,-1.0375977,-0.9204712,0.13934326,3.546875,12.546875,-18.828125
1664564205356,-0.8276367,-0.89630127,-0.039611816,-10.25,45.546875,4.6875
1664564205401,-0.39379883,-0.67755127,-0.07501221,41.0625,27.734375,25.578125
1664564205446,-0.58496094,-0.75128174,-0.13873291,-28.265625,-9.96875,6.953125
1664564205476,-0.8718262,-0.7078247,-0.018859863,24.75,-55.390625,16.546875
1664564205521,-0.8190918,-0.6321411,0.30975342,7.859375,18.640625,3.515625
1664564205567,-0.6230469,-0.59454346,-0.018371582,9.828125,6.296875,11.25
1664564205598,-0.57592773,-0.54351807,0.12054443,20.609375,0.8125,-0.4375
1664564205626,-0.4958496,-0.65045166,0.06561279,15.0,7.546875,5.28125
1664564205685,-0.45654297,-0.53863525,0.041931152,3.859375,-3.0625,18.484375
1664564205716,-0.62524414,-0.58306885,0.07562256,15.921875,10.71875,4.1875
1664564205746,-0.61694336,-0.7307739,0.06439209,5.375,0.921875,1.78125
1664564205807,-0.65844727,-0.739563,0.10321045,6.453125,2.703125,1.8125
1664564205839,-0.67529297,-0.81573486,0.024108887,-4.96875,8.09375,1.75
1664564205866,-0.6936035,-0.7564087,0.10101318,1.046875,-20.75,-3.203125
1664564205928,-0.8630371,-0.8237915,0.11541748,-15.078125,6.0,-12.0
1664564205955,-0.9465332,-0.925354,0.13885498,-2.5,-5.59375,-0.296875
1664564205986,-0.9831543,-1.0737915,0.019714355,-24.578125,-0.125,-10.4375
1664564206046,-0.9362793,-1.2861938,0.11273193,2.234375,-16.265625,-5.953125
1664564206060,-0.42163086,-0.82476807,0.0038452148,23.328125,22.546875,-10.734375
1664564206106,-0.52246094,-0.5498657,-0.12310791,-7.125,22.28125,3.859375
1664564206167,-0.578125,-0.7498169,0.005065918,-15.546875,-16.234375,-10.140625
1664564206181,-0.5695801,-0.79278564,0.090026855,-2.484375,-15.59375,-12.53125
1664564206226,-0.69018555,-0.6929321,0.19915771,-11.859375,12.71875,4.140625
1664564206286,-0.47436523,-0.65411377,0.050476074,-7.546875,-2.421875,7.484375
1664564206300,-0.46240234,-0.5523071,0.09588623,-13.3125,-8.703125,8.375
1664564206347,-0.5187988,-0.5569458,0.053894043,-1.15625,-3.953125,5.125
1664564206376,-0.62231445,-0.6062622,0.26800537,6.0625,-4.984375,4.328125
1664564206421,-0.5515137,-0.5823364,0.11810303,-5.5,-2.359375,-2.703125
1664564206466,-0.62646484,-0.72320557,0.23480225,7.59375,-9.203125,6.28125
1664564206496,-0.6608887,-0.7593384,0.15350342,-2.265625,-5.125,8.15625
1664564206541,-0.7077637,-0.73443604,0.14178467,1.09375,-5.71875,-0.40625
1664564206585,-0.8261719,-0.83673096,0.2296753,7.328125,-4.34375,0.203125
1664564206616,-0.736084,-0.7461548,0.20037842,1.203125,6.5,-4.5
1664564206661,-0.85791016,-0.94244385,0.31365967,6.34375,8.421875,-23.8125
1664564206706,-1.0524902,-1.2930298,0.22064209,-20.078125,29.109375,-10.328125
1664564206736,-0.95336914,-1.0794067,0.011657715,3.171875,29.546875,-8.3125
1664564206781,-0.64331055,-0.7632446,-0.0491333,19.125,39.265625,6.09375
1664564206826,-0.29467773,-0.59381104,-0.08477783,14.703125,26.375,5.34375
1664564206855,-0.7746582,-0.7949829,-0.094055176,19.1875,-10.234375,-2.71875
1664564206901,-0.77124023,-0.79888916,0.06878662,-36.5,-59.6875,2.34375
1664564206947,-0.70214844,-0.41607666,0.6845093,-2.84375,-22.734375,3.765625
1664564206976,-0.59277344,-0.7605591,0.04925537,23.484375,10.34375,9.6875
1664564207020,-0.5998535,-0.53985596,-0.030334473,8.421875,1.796875,10.375
1664564207081,-0.48583984,-0.57354736,0.13519287,14.6875,-30.171875,9.078125
1664564207096,-0.5551758,-0.65875244,0.06903076,0.203125,13.203125,9.21875
1664564207127,-0.51586914,-0.5003052,-0.015197754,6.28125,7.234375,14.796875
1664564207186,-0.6333008,-0.6790161,0.06878662,-1.703125,-23.96875,0.296875
1664564207216,-0.70166016,-0.8052368,0.120788574,-9.03125,6.53125,-2.078125
1664564207246,-0.6008301,-0.7241821,0.10223389,1.59375,-8.5,2.5
1664564207306,-0.7661133,-0.80670166,0.14666748,-10.171875,4.109375,-8.359375
1664564207336,-0.83691406,-0.7920532,0.19866943,5.84375,-3.734375,-4.03125
1664564207366,-0.85717773,-1.0305786,0.08319092,-18.15625,3.484375,1.53125
1664564207426,-0.921875,-1.21344,0.10858154,-3.984375,5.75,-6.84375
1664564207440,-0.9428711,-1.1504517,0.09710693,-10.921875,-2.53125,-7.171875
1664564207486,-0.41601562,-0.77789307,-0.11236572,26.03125,5.75,0.4375
1664564207546,-0.5515137,-0.61602783,-0.07330322,-29.671875,-8.609375,3.5625
1664564207561,-0.5222168,-0.79351807,0.031921387,3.953125,13.28125,-1.90625
1664564207606,-0.56225586,-0.79034424,0.10638428,10.21875,11.265625,-3.15625
1664564207666,-0.59033203,-0.70928955,0.066101074,-3.078125,10.75,-0.171875
1664564207681,-0.44848633,-0.71539307,0.07244873,0.765625,1.421875,6.671875
1664564207726,-0.47680664,-0.6465454,0.09051514,-2.09375,-3.25,7.078125
1664564207786,-0.5107422,-0.61309814,0.08807373,6.1875,-0.59375,4.28125
1664564207801,-0.55249023,-0.62677,0.08782959,0.296875,-0.15625,0.296875
1664564207847,-0.5480957,-0.6946411,0.1864624,-0.140625,2.578125,0.046875
1664564207876,-0.5593262,-0.68536377,0.082214355,-0.90625,4.59375,1.078125
1664564207921,-0.6435547,-0.7510376,0.22943115,9.65625,-3.4375,4.5
1664564207966,-0.6369629,-0.7739868,0.20037842,6.5,-5.21875,3.21875
1664564207996,-0.6640625,-0.8464966,0.22723389,0.71875,-2.984375,0.15625
1664564208041,-0.82836914,-0.78302,0.26800537,2.140625,6.09375,-10.921875
1664564208086,-0.748291,-1.0125122,0.168396,2.34375,4.375,-16.703125
1664564208116,-0.91918945,-1.161438,0.28656006,-3.0,2.3125,-14.28125
1664564208161,-0.9133301,-1.0203247,-0.04156494,-0.765625,1.03125,-13.921875
1664564208206,-0.67993164,-0.7485962,-0.05206299,-16.796875,9.265625,-4.890625
1664564208236,-0.49047852,-0.7373657,-0.09942627,-5.359375,3.609375,5.6875
1664564208281,-0.51953125,-0.8555298,-0.09210205,-9.328125,11.4375,0.8125
1664564208327,-0.78564453,-0.6746216,0.20111084,25.71875,-21.09375,6.234375
1664564208356,-0.66748047,-0.68536377,0.08709717,-14.765625,3.3125,0.65625
1664564208401,-0.63061523,-0.6609497,0.11126709,10.515625,5.203125,-5.625
1664564208447,-0.58374023,-0.6536255,0.070495605,22.8125,0.25,0.46875
1664564208476,-0.49926758,-0.57818604,0.07562256,14.609375,2.140625,0.859375
1664564208522,-0.5839844,-0.58843994,0.09515381,10.546875,3.421875,2.75
1664564208566,-0.60839844,-0.61920166,0.09710693,-2.203125,-4.859375,4.25
1664564208596,-0.6472168,-0.661438,0.10418701,-4.8125,-1.234375,2.03125
1664564208626,-0.6401367,-0.7334595,0.105163574,-0.015625,-0.34375,0.3125
1664564208687,-0.77441406,-0.673645,0.12225342,-6.625,-6.21875,-2.96875
1664564208719,-0.75756836,-0.7329712,0.13861084,-0.625,-4.671875,-6.265625
1664564208746,-0.89038086,-0.8164673,0.1671753,-15.984375,0.875,-11.9375
1664564208807,-1.046875,-0.8640747,0.20648193,-17.140625,1.359375,-1.921875
1664564208837,-0.8757324,-0.9976196,9.1552734E-4,-21.984375,-0.375,-4.421875
1664564208866,-0.8869629,-1.1069946,0.16693115,3.796875,-0.734375,-3.25
1664564208927,-0.54589844,-0.9702759,-0.0022583008,4.9375,10.9375,-12.15625
1664564208941,-0.5078125,-0.5652466,-0.032043457,-1.359375,-6.296875,2.765625
1664564208987,-0.63549805,-0.73394775,0.18963623,-11.34375,-6.375,5.625
1664564209047,-0.59350586,-0.7991333,0.10882568,2.828125,6.78125,-6.46875
1664564209062,-0.67749023,-0.6680298,0.14422607,-6.484375,3.921875,2.90625
1664564209106,-0.56396484,-0.6272583,0.13006592,-0.65625,1.734375,10.96875
1664564209166,-0.5126953,-0.59503174,0.19158936,-1.1875,-0.359375,7.9375
1664564209181,-0.6044922,-0.6104126,0.1864624,1.578125,-2.65625,2.890625
1664564209227,-0.56689453,-0.59503174,0.16766357,11.640625,-1.625,-0.03125
1664564209285,-0.54663086,-0.6831665,0.16766357,-7.0,2.453125,-4.21875
1664564209301,-0.6765137,-0.6987915,0.3143921,7.390625,-11.0625,0.96875
1664564209347,-0.6477051,-0.6043091,0.16912842,15.578125,12.0625,-2.59375
1664564209376,-0.60546875,-0.74346924,0.1251831,-15.578125,-26.59375,-3.046875
1664564209421,-0.7084961,-0.661438,0.32196045,16.53125,-24.015625,4.703125
1664564209466,-0.78149414,-0.7559204,0.20379639,21.640625,11.8125,-1.8125
1664564209495,-0.80444336,-0.83013916,0.21551514,17.484375,4.46875,-4.703125
1664564209541,-0.86621094,-1.0796509,0.16668701,4.4375,5.828125,-4.6875
1664564209586,-0.94921875,-1.0930786,0.047790527,10.8125,4.234375,-5.046875
1664564209616,-0.9025879,-1.0747681,-0.026672363,0.734375,-1.625,-5.25
1664564209661,-0.6347656,-0.7329712,-0.20806885,11.3125,7.640625,-1.0
1664564209706,-0.5534668,-0.6231079,-0.09161377,10.90625,10.65625,-0.875
1664564209736,-0.6176758,-0.8086548,-0.04058838,13.671875,13.90625,1.71875
1664564209781,-0.70751953,-0.77716064,0.0067749023,3.6875,-5.703125,2.328125
1664564209826,-0.6760254,-0.6836548,0.031433105,-14.125,-1.484375,-2.234375
1664564209856,-0.67822266,-0.61846924,0.03753662,-10.25,-2.140625,-1.109375
1664564209901,-0.6113281,-0.5791626,0.020935059,3.765625,0.96875,1.953125
1664564209945,-0.5119629,-0.49371338,-0.003967285,5.0,2.828125,0.03125
1664564209976,-0.53222656,-0.5354614,0.053894043,1.546875,0.9375,1.0
1664564210021,-0.5812988,-0.5791626,0.019226074,2.109375,-6.765625,3.15625
1664564210066,-0.6489258,-0.6531372,0.018737793,-4.890625,-7.78125,2.375
1664564210096,-0.71777344,-0.6812134,0.070007324,-8.828125,-7.78125,1.15625
1664564210128,-0.78930664,-0.67974854,0.1359253,-5.984375,-3.359375,-0.015625
1664564210186,-0.84521484,-0.73101807,0.19573975,-10.171875,-5.40625,-4.0625
1664564210215,-0.91845703,-0.8184204,0.16595459,-12.140625,2.71875,-5.84375
1664564210246,-0.97998047,-0.97125244,0.10760498,-16.328125,-2.59375,0.15625
1664564210306,-1.0324707,-1.1392212,-0.013000488,-14.734375,-10.296875,4.046875
1664564210337,-0.9824219,-1.1382446,0.12371826,-4.671875,-6.984375,2.109375
1664564210367,-0.61743164,-0.75177,-0.14019775,2.671875,9.890625,0.6875
1664564210411,-0.42016602,-0.7280884,-0.035217285,-7.96875,-6.203125,5.53125
1664564210441,-0.5510254,-0.7908325,0.06488037,5.796875,-7.0,4.390625
1664564210487,-0.6689453,-0.74298096,0.073913574,1.25,-9.15625,4.84375
1664564210546,-0.57958984,-0.6831665,0.04144287,-2.859375,-6.484375,3.1875
1664564210561,-0.50268555,-0.5923462,0.021911621,3.84375,-6.015625,5.453125
1664564210606,-0.46484375,-0.5171509,0.027038574,2.9375,-6.375,5.59375
1664564210665,-0.47729492,-0.5261841,0.09515381,2.875,-6.546875,2.578125
1664564210681,-0.5476074,-0.61724854,0.09051514,3.921875,-9.359375,4.140625
1664564210726,-0.5900879,-0.6633911,6.713867E-4,-5.109375,-3.171875,1.5625
1664564210786,-0.6520996,-0.73931885,0.12860107,5.859375,-5.59375,4.453125
1664564210801,-0.6616211,-0.7661743,0.089538574,8.375,-4.3125,6.484375
1664564210845,-0.6828613,-0.73150635,0.10760498,5.640625,-3.5625,4.140625
1664564210877,-0.7314453,-0.8023071,0.16131592,9.703125,1.4375,2.53125
1664564210921,-0.8327637,-0.86505127,0.1317749,-3.015625,3.15625,-5.34375
1664564210966,-0.90356445,-1.0671997,0.10882568,-6.625,-1.125,-7.75
1664564210998,-1.0058594,-1.1528931,-0.0178833,-8.046875,1.21875,-8.703125
1664564211041,-0.74609375,-1.0479126,-0.20172119,-3.609375,7.109375,-7.359375
1664564211086,-0.5905762,-0.73394775,-0.101867676,2.59375,15.703125,0.40625
1664564211116,-0.52905273,-0.753479,-0.09185791,0.5625,14.453125,-3.265625
1664564211161,-0.66625977,-0.8110962,-0.00592041,7.328125,16.375,-1.59375
1664564211206,-0.6689453,-0.7144165,-0.03765869,1.3125,11.25,-3.71875
1664564211236,-0.6628418,-0.647522,0.14788818,2.15625,3.375,-3.03125
1664564211281,-0.5917969,-0.58795166,0.031433105,9.15625,14.390625,-4.515625
1664564211327,-0.5461426,-0.54644775,-0.007873535,8.875,13.140625,-4.125
1664564211356,-0.5119629,-0.56427,0.06072998,14.9375,10.46875,-3.3125
1664564211401,-0.5390625,-0.58184814,0.04046631,9.234375,9.625,-1.3125
1664564211446,-0.62280273,-0.6157837,0.024841309,1.328125,1.34375,1.046875
1664564211476,-0.6489258,-0.6860962,0.086120605,-2.53125,-2.890625,1.109375
1664564211507,-0.70751953,-0.7168579,0.07147217,-1.4375,1.90625,0.75
1664564211567,-0.703125,-0.70562744,0.09564209,1.9375,-2.15625,-0.296875
1664564211596,-0.8347168,-0.7588501,0.15008545,-4.375,-5.953125,-5.484375
1664564211626,-0.94433594,-0.8015747,0.21673584,-16.6875,-7.875,-4.078125
1664564211686,-0.9880371,-0.9429321,0.09490967,-14.953125,-4.40625,1.59375
1664564211716,-1.1166992,-1.2107544,0.13885498,-28.265625,-13.03125,4.34375
1664564211746,-0.9057617,-1.1658325,0.055358887,2.359375,-3.3125,5.703125
1664564211806,-0.51220703,-0.7647095,-0.11602783,3.953125,11.59375,1.84375
1664564211836,-0.45288086,-0.71539307,-0.059387207,-1.703125,-13.265625,11.71875
1664564211868,-0.5722656,-0.74468994,0.06365967,7.140625,-10.28125,3.0625
1664564211926,-0.58740234,-0.65631104,0.027282715,-6.765625,-9.53125,2.59375
1664564211941,-0.5187988,-0.6174927,0.019470215,-12.78125,-5.71875,2.953125
1664564211987,-0.42919922,-0.5466919,0.030212402,-0.984375,-2.609375,6.046875
1664564212046,-0.4050293,-0.5003052,0.049743652,7.359375,-2.609375,4.4375
1664564212061,-0.4658203,-0.59381104,0.07757568,7.390625,-5.015625,0.40625
1664564212107,-0.5749512,-0.7061157,0.11126709,12.375,-3.0625,-0.3125
1664564212166,-0.6608887,-0.70391846,0.10858154,9.265625,-4.359375,1.71875
1664564212181,-0.7026367,-0.69732666,0.047790527,0.328125,1.46875,-2.875
1664564212226,-0.73095703,-0.73150635,0.18206787,-1.296875,-6.796875,-0.015625
1664564212256,-0.73291016,-0.75128174,0.15106201,5.640625,0.6875,0.28125
1664564212301,-0.74975586,-0.77130127,0.18157959,7.4375,0.6875,1.765625
1664564212347,-0.82592773,-0.82281494,0.19866943,-0.015625,2.65625,-4.015625
1664564212376,-0.9057617,-0.92193604,0.1395874,-11.484375,9.84375,-10.078125
1664564212421,-0.907959,-1.1392212,0.07196045,-11.9375,9.578125,-4.0625
1664564212466,-0.9863281,-1.3059692,-0.004211426,15.546875,16.53125,-5.21875
1664564212496,-0.71899414,-0.9048462,-0.1819458,1.890625,8.984375,-2.75
1664564212543,-0.5180664,-0.69488525,-0.1194458,1.90625,7.578125,1.265625
1664564212586,-0.6401367,-0.7481079,0.03778076,-5.265625,8.234375,-0.703125
1664564212617,-0.67749023,-0.71661377,0.061950684,4.171875,3.203125,-0.546875
1664564212662,-0.6347656,-0.6585083,0.04901123,-1.0625,9.375,-1.328125
1664564212706,-0.5895996,-0.6218872,0.04827881,2.984375,9.453125,-4.03125
1664564212736,-0.5373535,-0.53253174,0.014099121,9.734375,4.5625,-3.34375
1664564212782,-0.46240234,-0.5054321,0.020935059,8.953125,4.046875,-1.578125
1664564212826,-0.54345703,-0.5562134,0.05706787,11.234375,3.375,-0.34375
1664564212856,-0.578125,-0.6380005,0.030944824,9.34375,-0.21875,3.1875
1664564212901,-0.6484375,-0.63116455,0.1239624,8.0625,-5.59375,3.78125
1664564212946,-0.67871094,-0.6553345,0.101745605,2.03125,-10.3125,3.859375
1664564212976,-0.72802734,-0.6843872,0.073913574,-3.234375,-7.34375,3.796875
1664564213005,-0.75805664,-0.70147705,0.1317749,-1.796875,-6.109375,1.71875
1664564213052,-0.795166,-0.756897,0.17230225,0.25,-0.4375,1.390625
1664564213096,-0.86083984,-0.81256104,0.20111084,-4.515625,1.171875,-0.078125
1664564213126,-0.9824219,-0.9993286,0.09564209,-13.96875,3.265625,-1.203125
1664564213186,-1.0429688,-1.2153931,0.11102295,-15.84375,-2.59375,0.546875
1664564213215,-0.9453125,-1.2310181,0.024108887,-11.953125,-0.953125,2.0625
1664564213246,-0.63500977,-0.8362427,-0.10430908,6.9375,10.0625,5.3125
1664564213306,-0.41577148,-0.7749634,-0.10235596,-8.25,4.484375,5.71875
1664564213366,-0.5810547,-0.83477783,-0.0012817383,8.40625,-2.21875,-0.75
1664564213368,-0.6047363,-0.7476196,0.101257324,10.109375,-6.53125,4.078125
1664564213427,-0.5410156,-0.63775635,0.04949951,-3.34375,-4.40625,1.96875
1664564213440,-0.46606445,-0.612854,0.077819824,3.015625,0.578125,1.25
1664564213486,-0.36645508,-0.5376587,0.001159668,6.171875,7.453125,0.109375
1664564213546,-0.41381836,-0.5471802,0.011657715,-2.765625,1.0625,-3.59375
1664564213561,-0.47705078,-0.64923096,0.07489014,-4.875,-7.59375,-1.78125
1664564213606,-0.5576172,-0.6856079,0.12982178,-2.859375,-9.5,1.8125
1664564213668,-0.62524414,-0.71051025,0.051208496,-9.65625,-1.265625,-3.53125
1664564213680,-0.6923828,-0.69903564,0.1708374,-4.640625,-10.1875,-1.515625
1664564213727,-0.638916,-0.69244385,0.09686279,-4.6875,-6.0625,0.109375
1664564213756,-0.66381836,-0.710022,0.21087646,-6.828125,-3.109375,-2.40625
1664564213800,-0.6623535,-0.7456665,0.21600342,-1.953125,-6.359375,0.421875
1664564213846,-0.7331543,-0.75128174,0.18060303,-8.15625,2.3125,-5.34375
1664564213876,-0.88061523,-0.7456665,0.30438232,-19.03125,-6.0625,-10.5
1664564213921,-0.88500977,-0.87286377,0.3024292,-3.0,4.6875,-11.5
1664564213966,-0.79467773,-1.0388794,0.20013428,4.5,7.40625,-8.125
1664564213996,-1.322998,-1.1538696,0.34051514,-24.875,0.484375,-15.6875
1664564214041,-0.9638672,-0.9524536,-0.07159424,-6.328125,10.71875,-11.71875
1664564214086,-0.60253906,-0.79937744,0.11199951,-19.265625,1.21875,-1.296875
1664564214116,-0.47485352,-0.8604126,-0.14239502,-19.53125,22.609375,-0.296875
1664564214161,-0.48535156,-0.8491821,-0.04107666,17.390625,14.6875,9.71875
1664564214206,-0.7998047,-0.6724243,-0.05303955,-24.15625,-29.90625,18.375
1664564214235,-0.7807617,-0.63116455,0.29803467,4.03125,7.90625,-4.171875
1664564214281,-0.6816406,-0.6538696,0.18450928,-9.546875,-7.328125,-2.46875
1664564214326,-0.65844727,-0.5901489,0.0758667,1.0625,1.03125,-3.484375
1664564214356,-0.6020508,-0.5913696,0.12371826,3.828125,0.40625,-1.546875
1664564214401,-0.59375,-0.5737915,0.10418701,7.78125,1.75,-1.484375
1664564214446,-0.5720215,-0.5730591,0.13201904,4.609375,-1.609375,2.015625
1664564214475,-0.57836914,-0.6265259,0.08685303,-3.734375,-1.984375,1.109375
1664564214506,-0.6447754,-0.6001587,0.15447998,-1.515625,-9.625,1.609375
1664564214565,-0.6767578,-0.6260376,0.12200928,-7.90625,-14.296875,5.796875
