# Sensor type: Respeck
# Activity type: Sitting
# Activity code: 0
# Subject id: s1800825
# Notes: 
timestamp,accel_x,accel_y,accel_z,gyro_x,gyro_y,gyro_z
1665673564070,0.1381836,-0.9795532,0.048034668,0.0625,0.25,-0.109375
1665673564115,0.13647461,-0.9885864,0.036071777,0.546875,-0.140625,0.078125
1665673564160,0.13867188,-0.9927368,0.04876709,-0.453125,-0.390625,-0.484375
1665673564190,0.13330078,-0.9834595,0.027282715,-0.265625,-0.296875,0.390625
1665673564235,0.14672852,-0.9973755,0.0211792,-1.421875,-0.59375,-0.34375
1665673564280,0.13256836,-0.9846802,0.0446167,-1.0625,0.3125,-0.640625
1665673564310,0.1303711,-0.9859009,0.038024902,-0.90625,1.1875,-0.03125
1665673564355,0.13989258,-0.98272705,0.03753662,0.28125,0.09375,-0.21875
1665673564399,0.13085938,-0.9902954,0.041931152,0.0,0.109375,-0.171875
1665673564430,0.12817383,-0.98272705,0.043151855,0.46875,0.03125,0.140625
1665673564475,0.13720703,-0.98809814,0.032409668,0.359375,0.171875,0.125
1665673564504,0.1352539,-0.9824829,0.038269043,0.84375,0.1875,0.09375
1665673564550,0.1394043,-0.9883423,0.03265381,0.109375,-0.375,0.015625
1665673564595,0.1352539,-0.9854126,0.03704834,0.234375,-0.1875,0.203125
1665673564625,0.13769531,-0.9885864,0.03338623,-0.6875,-0.140625,-0.25
1665673564670,0.13574219,-0.98687744,0.035827637,-0.890625,-0.46875,-0.390625
1665673564714,0.13330078,-0.9932251,0.04925537,-0.359375,0.4375,-0.15625
1665673564745,0.13134766,-0.98809814,0.048034668,0.125,0.15625,0.046875
1665673564790,0.12768555,-0.98150635,0.04095459,0.203125,-0.40625,-0.09375
1665673564836,0.13183594,-0.9883423,0.043151855,0.171875,0.359375,0.0625
1665673564865,0.13256836,-0.9885864,0.038513184,0.9375,0.078125,-0.046875
1665673564911,0.13500977,-0.991272,0.039489746,0.15625,0.234375,0.015625
1665673564956,0.13305664,-0.98272705,0.043151855,0.265625,0.1875,0.03125
1665673564985,0.13476562,-0.9824829,0.032165527,0.328125,0.34375,0.078125
1665673565031,0.1315918,-0.9873657,0.038513184,-0.1875,0.15625,0.0
1665673565076,0.1328125,-0.97906494,0.039001465,0.59375,-0.0625,0.0
1665673565106,0.14013672,-0.9924927,0.03363037,0.65625,0.171875,0.125
1665673565151,0.13769531,-0.9824829,0.04095459,0.3125,0.3125,0.171875
1665673565195,0.14038086,-0.9932251,0.03778076,-0.109375,-0.453125,-0.21875
1665673565225,0.13598633,-0.98272705,0.046813965,0.625,0.421875,0.421875
1665673565270,0.1418457,-0.9902954,0.024353027,-0.6875,-1.25,-0.125
1665673565315,0.12719727,-0.98516846,0.05731201,1.21875,0.1875,-0.171875
1665673565345,0.1352539,-0.98760986,0.03753662,0.546875,0.25,1.015625
1665673565390,0.13989258,-0.9898071,0.027282715,1.640625,-0.484375,0.609375
1665673565434,0.12988281,-0.9866333,0.029968262,-0.296875,-0.390625,0.15625
1665673565464,0.13183594,-0.9898071,0.03338623,-0.28125,0.8125,0.21875
1665673565510,0.13671875,-0.9795532,0.03289795,0.328125,0.15625,0.296875
1665673565556,0.1418457,-0.99102783,0.03729248,0.515625,-0.15625,0.0625
1665673565585,0.1394043,-0.9976196,0.04144287,0.875,-0.3125,0.53125
1665673565630,0.13793945,-0.986145,0.04071045,-0.265625,0.09375,0.328125
1665673565662,0.13696289,-0.9937134,0.035583496,0.546875,-0.6875,0.3125
1665673565706,0.13867188,-0.9859009,0.031677246,0.734375,-0.28125,0.265625
1665673565751,0.13867188,-0.98394775,0.034606934,0.515625,-0.28125,0.296875
1665673565781,0.14257812,-0.9859009,0.035095215,1.296875,-0.109375,-0.171875
1665673565825,0.13476562,-0.9859009,0.026550293,0.84375,-0.703125,0.28125
1665673565870,0.14111328,-0.9885864,0.032409668,0.203125,-0.296875,0.28125
1665673565900,0.13598633,-0.986145,0.032409668,0.671875,0.140625,-0.25
1665673565945,0.14575195,-0.9800415,0.027038574,0.6875,-0.421875,0.484375
1665673565991,0.14575195,-0.9829712,0.032409668,0.140625,0.640625,0.375
1665673566022,0.14624023,-0.9824829,0.029968262,0.359375,0.078125,0.328125
1665673566066,0.14697266,-0.98028564,0.027770996,0.546875,-0.171875,0.46875
1665673566110,0.1418457,-0.9805298,0.02508545,0.0,0.234375,0.296875
1665673566140,0.14624023,-0.9829712,0.0368042,0.609375,-0.8125,-0.1875
1665673566187,0.14770508,-0.98223877,0.035583496,0.59375,0.78125,-0.03125
1665673566230,0.14355469,-0.98443604,0.030456543,0.25,-0.140625,0.09375
1665673566260,0.14477539,-0.9854126,0.036315918,0.765625,1.109375,0.53125
1665673566305,0.1496582,-0.99176025,0.026794434,0.984375,-1.21875,0.1875
1665673566350,0.14575195,-0.9834595,0.0368042,0.65625,0.328125,-0.140625
1665673566382,0.14819336,-0.9702759,0.010925293,-0.375,1.078125,0.453125
1665673566425,0.14868164,-0.98760986,0.04119873,1.09375,-0.484375,0.203125
1665673566470,0.15209961,-0.9907837,0.019958496,-0.03125,-0.484375,0.03125
1665673566501,0.14892578,-0.9837036,0.020446777,0.390625,0.3125,0.140625
1665673566545,0.14355469,-0.9846802,0.034118652,1.28125,-0.125,0.34375
1665673566621,0.1496582,-0.98028564,0.0138549805,-0.25,0.09375,-0.109375
1665673566624,0.14672852,-0.9763794,0.022155762,-0.328125,-0.015625,-0.140625
1665673566667,0.15258789,-0.98394775,0.02508545,0.21875,-0.03125,-0.140625
1665673566711,0.15405273,-0.986145,0.020202637,0.203125,0.65625,-0.203125
1665673566740,0.14916992,-0.9819946,0.024108887,-0.21875,-0.21875,-0.328125
1665673566786,0.14819336,-0.9812622,0.024108887,-0.265625,0.109375,0.03125
1665673566817,0.14794922,-0.9795532,0.022155762,-0.046875,0.328125,-0.109375
1665673566860,0.1459961,-0.9854126,0.027526855,-0.546875,0.234375,-0.015625
1665673566906,0.14575195,-0.9795532,0.030456543,-0.1875,0.109375,-0.140625
1665673566935,0.15283203,-0.98223877,0.022644043,0.53125,0.015625,-0.125
1665673566981,0.1496582,-0.9788208,0.02166748,0.03125,-0.015625,-0.109375
1665673567026,0.14868164,-0.98443604,0.02947998,-0.28125,-0.078125,-0.203125
1665673567058,0.1472168,-0.97613525,0.0289917,-0.25,0.328125,0.140625
1665673567100,0.14916992,-0.9812622,0.028259277,0.015625,0.328125,-0.203125
1665673567147,0.14794922,-0.97906494,0.022399902,0.265625,0.046875,-0.109375
1665673567176,0.14697266,-0.9885864,0.0289917,-0.578125,0.0,-0.046875
1665673567236,0.1418457,-0.98028564,0.035827637,0.46875,1.515625,0.1875
1665673567265,0.1484375,-0.9937134,0.02142334,-0.484375,-0.625,-0.09375
1665673567296,0.14355469,-0.99053955,0.04534912,-0.34375,0.265625,-0.328125
1665673567341,0.14428711,-0.96881104,0.023864746,-0.359375,2.171875,0.171875
1665673567386,0.14746094,-0.97979736,0.0289917,-0.078125,-0.8125,-0.125
1665673567415,0.14990234,-0.9907837,0.035827637,-0.796875,-0.3125,-0.15625
1665673567461,0.14038086,-0.9846802,0.03338623,0.46875,0.546875,0.234375
1665673567506,0.14428711,-0.98443604,0.04046631,0.21875,-0.015625,-0.015625
1665673567534,0.14624023,-0.9873657,0.03289795,0.09375,-0.5625,-0.328125
1665673567581,0.14160156,-0.9866333,0.035583496,-0.90625,0.21875,0.078125
1665673567656,0.14672852,-0.98223877,0.032165527,0.15625,-0.578125,0.0625
1665673567659,0.14355469,-0.9890747,0.04071045,-0.34375,0.921875,-0.25
1665673567701,0.14794922,-0.9902954,0.043884277,0.5625,0.609375,-0.03125
1665673567745,0.1484375,-0.97979736,0.039245605,0.3125,0.421875,-0.046875
1665673567775,0.14086914,-0.9873657,0.035827637,-0.46875,0.640625,0.1875
1665673567836,0.14672852,-0.9788208,0.042419434,-0.21875,-0.296875,0.046875
1665673567849,0.1418457,-0.98101807,0.03265381,0.328125,0.328125,-0.21875
1665673567896,0.14282227,-0.98931885,0.039245605,0.328125,0.296875,0.15625
1665673567941,0.14477539,-0.98638916,0.03387451,-0.0625,-0.015625,-0.1875
1665673567970,0.14526367,-0.98101807,0.04071045,0.0625,0.515625,-0.09375
1665673568016,0.14941406,-0.9824829,0.038024902,0.328125,-0.171875,0.109375
1665673568061,0.140625,-0.98638916,0.026550293,0.296875,0.28125,0.140625
1665673568092,0.14160156,-0.99053955,0.039245605,-0.15625,0.21875,-0.109375
1665673568137,0.13769531,-0.98321533,0.038024902,0.875,0.046875,0.40625
1665673568180,0.15136719,-0.97613525,0.027038574,0.515625,1.484375,0.390625
1665673568210,0.15454102,-0.9968872,0.03753662,1.234375,-1.25,0.40625
1665673568256,0.1394043,-0.991272,0.039733887,-0.34375,0.796875,-0.09375
1665673568301,0.14257812,-0.9768677,0.026794434,-0.171875,0.96875,0.03125
1665673568330,0.14575195,-0.9834595,0.035583496,0.578125,0.3125,0.234375
1665673568376,0.14526367,-0.9793091,0.032165527,0.84375,-0.0625,0.453125
1665673568421,0.15454102,-0.9885864,0.02923584,0.96875,-0.140625,0.0625
1665673568450,0.1484375,-0.9800415,0.022888184,0.9375,0.46875,-0.1875
1665673568496,0.14428711,-0.9871216,0.035095215,-0.453125,0.109375,-0.09375
1665673568541,0.15478516,-0.98150635,0.024597168,0.328125,-0.078125,0.0625
1665673568571,0.14794922,-0.9793091,0.028747559,-1.296875,0.9375,-0.390625
1665673568616,0.14819336,-0.9849243,0.038269043,0.015625,-0.21875,-0.328125
1665673568661,0.14477539,-0.987854,0.039489746,-0.484375,1.015625,-0.21875
1665673568690,0.1430664,-0.9834595,0.039001465,-0.484375,0.125,-0.234375
1665673568736,0.1459961,-0.97857666,0.036071777,-0.015625,0.03125,-0.03125
1665673568781,0.1472168,-0.98760986,0.026550293,0.09375,1.015625,-0.046875
1665673568810,0.1430664,-0.98272705,0.0368042,0.046875,-0.109375,-0.09375
1665673568856,0.14624023,-0.9793091,0.039733887,0.53125,0.34375,0.015625
1665673568887,0.14257812,-0.9849243,0.031433105,0.265625,1.625,0.25
1665673568931,0.14379883,-0.9788208,0.031921387,-0.671875,1.40625,0.21875
1665673568976,0.14550781,-0.9871216,0.034851074,-1.203125,0.515625,0.125
1665673569006,0.14208984,-0.9824829,0.04486084,-0.71875,1.203125,-0.15625
1665673569050,0.14453125,-0.98101807,0.03363037,-0.625,0.265625,-0.140625
1665673569096,0.14404297,-0.9824829,0.040222168,-0.890625,0.125,-0.3125
1665673569125,0.13964844,-0.9866333,0.046813965,-0.203125,0.703125,-0.15625
1665673569170,0.15161133,-0.98321533,0.03656006,-0.453125,-0.171875,-0.234375
1665673569216,0.14208984,-0.98223877,0.046325684,-0.75,1.03125,-0.546875
1665673569245,0.13647461,-0.9849243,0.043151855,-0.78125,1.046875,0.125
1665673569290,0.14794922,-0.97540283,0.043395996,0.046875,0.640625,-0.046875
1665673569335,0.13842773,-0.98687744,0.051452637,0.609375,1.734375,0.0
1665673569365,0.14013672,-0.98150635,0.032409668,2.078125,0.21875,0.25
1665673569411,0.14501953,-0.991272,0.049987793,-0.296875,0.96875,-0.03125
1665673569455,0.14428711,-0.987854,0.038757324,0.015625,0.625,-0.015625
1665673569488,0.14282227,-0.987854,0.04144287,-0.078125,1.109375,0.28125
1665673569531,0.1381836,-0.98883057,0.04119873,-0.515625,0.234375,0.203125
1665673569576,0.14697266,-0.98101807,0.044128418,-1.671875,1.34375,-0.578125
1665673569605,0.13793945,-0.99102783,0.043151855,-2.484375,1.609375,-0.25
1665673569651,0.14672852,-0.98565674,0.04046631,-1.703125,-0.640625,-0.609375
1665673569696,0.15283203,-0.98516846,0.053894043,-1.734375,1.703125,-0.65625
1665673569726,0.14331055,-0.9915161,0.04119873,-1.65625,2.28125,-0.578125
1665673569771,0.13769531,-0.9807739,0.06390381,-1.546875,1.4375,-0.484375
1665673569816,0.13574219,-0.9890747,0.058044434,-0.15625,0.40625,-0.59375
1665673569847,0.1381836,-0.99102783,0.061462402,-0.53125,1.03125,-0.5
1665673569891,0.1394043,-0.98931885,0.058044434,-0.265625,1.625,-0.421875
1665673569921,0.1315918,-0.9841919,0.06707764,1.171875,1.171875,0.046875
1665673569966,0.14453125,-0.98687744,0.053649902,-0.28125,0.703125,-0.265625
1665673570011,0.13867188,-0.9793091,0.06439209,-0.140625,0.796875,-0.140625
1665673570040,0.13623047,-0.991272,0.05316162,-0.640625,0.375,-0.015625
1665673570086,0.13867188,-0.99102783,0.06121826,0.59375,1.234375,0.109375
1665673570130,0.14453125,-0.98931885,0.042663574,-0.296875,-1.03125,-0.3125
1665673570160,0.13378906,-0.99420166,0.06829834,-0.484375,1.5,-0.59375
1665673570206,0.12597656,-0.9776001,0.057800293,-0.125,1.09375,0.15625
1665673570252,0.13598633,-0.98223877,0.06512451,0.015625,0.296875,-0.109375
1665673570280,0.13696289,-0.9932251,0.06341553,-0.0625,0.78125,-0.140625
1665673570326,0.13061523,-0.9924927,0.058532715,0.71875,0.234375,0.328125
1665673570371,0.13867188,-0.98760986,0.053649902,0.515625,1.046875,0.0625
1665673570402,0.13427734,-0.98809814,0.06341553,0.5625,0.609375,-0.125
1665673570446,0.13745117,-0.99176025,0.05267334,0.609375,-0.3125,0.203125
1665673570491,0.13330078,-0.98516846,0.053894043,-0.53125,1.125,0.21875
1665673570523,0.13793945,-0.98638916,0.05340576,0.515625,-0.25,0.015625
1665673570566,0.13232422,-0.9873657,0.04559326,-0.296875,0.8125,-0.15625
1665673570611,0.13745117,-0.9866333,0.058532715,-0.734375,0.75,-0.375
1665673570643,0.12695312,-0.9937134,0.059265137,-1.109375,1.71875,0.015625
1665673570686,0.1394043,-0.99005127,0.062438965,0.5,0.390625,0.0
1665673570731,0.13574219,-0.9837036,0.06903076,-0.296875,0.453125,0.3125
1665673570760,0.14038086,-0.98931885,0.059753418,-0.140625,0.578125,0.21875
1665673570806,0.13769531,-0.9871216,0.061462402,0.9375,-0.65625,0.34375
1665673570851,0.13549805,-0.98443604,0.053894043,0.25,0.078125,0.21875
1665673570881,0.1381836,-0.9866333,0.06732178,0.453125,0.0,0.171875
1665673570927,0.1340332,-0.9812622,0.054382324,0.109375,0.0,0.234375
1665673570971,0.14331055,-0.9902954,0.051208496,-0.1875,-0.671875,-0.21875
1665673571000,0.12939453,-0.98321533,0.06829834,0.03125,0.46875,-0.140625
1665673571046,0.12841797,-0.975647,0.05316162,-0.40625,0.765625,0.484375
1665673571076,0.13623047,-1.0029907,0.074645996,-0.140625,-1.03125,0.40625
1665673571120,0.14331055,-0.97320557,0.05633545,-1.015625,0.5625,-0.5
1665673571166,0.14453125,-0.9768677,0.058044434,0.140625,0.546875,-0.296875
1665673571211,0.13061523,-0.9866333,0.073913574,0.609375,-0.109375,-0.109375
1665673571241,0.13720703,-0.99176025,0.057800293,0.203125,0.328125,-0.03125
1665673571286,0.13598633,-0.98150635,0.0602417,0.0625,0.984375,-0.015625
1665673571331,0.1381836,-0.9907837,0.06976318,0.953125,0.0,0.234375
1665673571360,0.14160156,-0.9883423,0.05609131,0.859375,-0.03125,0.171875
1665673571406,0.1418457,-0.99053955,0.057800293,1.1875,-0.109375,0.34375
1665673571436,0.13476562,-0.98272705,0.06048584,-0.609375,0.765625,0.046875
1665673571481,0.13867188,-0.98687744,0.051940918,-0.1875,-0.21875,-0.0625
1665673571526,0.13647461,-0.9883423,0.0602417,0.5625,0.21875,-0.046875
1665673571558,0.13769531,-0.9932251,0.058776855,0.234375,0.109375,0.015625
1665673571600,0.13232422,-0.97613525,0.062683105,-0.5625,0.15625,-0.171875
1665673571646,0.13549805,-0.99591064,0.06536865,0.015625,0.21875,0.09375
1665673571675,0.13134766,-0.98883057,0.061462402,0.03125,0.3125,-0.078125
1665673571721,0.1418457,-0.98809814,0.058288574,-0.171875,-0.5,0.15625
1665673571766,0.14086914,-0.9866333,0.058532715,-0.265625,0.328125,0.15625
1665673571796,0.13427734,-0.9812622,0.062683105,-0.234375,0.375,-0.328125
1665673571841,0.14111328,-0.98101807,0.055603027,0.96875,-1.03125,-0.0625
1665673571886,0.13232422,-0.9849243,0.07196045,0.0625,0.953125,0.0
1665673571915,0.1352539,-0.98321533,0.053649902,-0.296875,0.21875,0.21875
1665673571961,0.1394043,-1.0027466,0.062438965,0.78125,-0.796875,-0.265625
1665673572006,0.13305664,-0.9780884,0.05218506,-0.875,0.859375,-0.015625
1665673572036,0.13867188,-0.97247314,0.06854248,0.109375,0.46875,0.0
1665673572081,0.14477539,-0.991272,0.061462402,1.453125,-0.890625,-0.09375
1665673572110,0.1394043,-0.98883057,0.059020996,0.46875,-0.015625,-0.359375
1665673572157,0.13452148,-0.9805298,0.059265137,-0.359375,0.15625,-0.03125
1665673572216,0.14208984,-0.99102783,0.06781006,0.921875,-0.1875,0.140625
1665673572229,0.13964844,-0.986145,0.062683105,0.578125,-0.078125,-0.15625
1665673572277,0.14111328,-0.98638916,0.066833496,-0.859375,0.109375,-0.265625
1665673572322,0.13330078,-0.9807739,0.06561279,-0.546875,0.796875,0.28125
1665673572351,0.1328125,-0.98443604,0.05291748,1.28125,0.359375,0.25
1665673572396,0.14038086,-0.986145,0.057800293,0.453125,-0.390625,0.15625
1665673572441,0.14111328,-0.99053955,0.066345215,-0.171875,-0.328125,-0.1875
1665673572471,0.13549805,-0.97857666,0.059265137,-0.28125,0.453125,0.09375
1665673572515,0.140625,-0.96759033,0.059265137,0.421875,-0.203125,-0.0625
1665673572575,0.13769531,-0.989563,0.06951904,0.0625,0.609375,0.078125
1665673572608,0.13696289,-0.98883057,0.061462402,-0.171875,-0.046875,0.453125
1665673572635,0.13867188,-0.9817505,0.05657959,-0.296875,0.34375,0.125
1665673572681,0.1418457,-0.9837036,0.066589355,-0.046875,0.234375,-0.046875
1665673572710,0.1328125,-0.9793091,0.061706543,0.328125,1.1875,0.46875
1665673572756,0.14135742,-0.986145,0.062927246,0.265625,-0.890625,0.0625
1665673572800,0.1394043,-0.99224854,0.0692749,-0.40625,0.828125,-0.265625
1665673572831,0.1394043,-0.9734497,0.049743652,-0.53125,0.359375,0.03125
1665673572875,0.1484375,-0.9849243,0.066101074,1.109375,-0.375,-0.1875
1665673572921,0.13671875,-0.9849243,0.054870605,0.609375,0.078125,-0.140625
1665673572951,0.13574219,-0.9902954,0.06756592,0.359375,0.265625,-0.140625
1665673572996,0.14038086,-0.9807739,0.062683105,0.515625,0.125,-0.296875
1665673573072,0.13867188,-0.98565674,0.06439209,0.171875,0.0625,-0.34375
1665673573074,0.13378906,-0.9834595,0.057556152,-0.53125,0.265625,-0.3125
1665673573117,0.13720703,-0.98760986,0.06463623,0.25,-0.234375,-0.15625
1665673573161,0.13452148,-0.9837036,0.06829834,-0.171875,0.546875,-0.296875
1665673573190,0.13745117,-0.9915161,0.062683105,0.3125,-0.53125,-0.015625
1665673573237,0.13549805,-0.9837036,0.05999756,-0.234375,0.40625,-0.140625
1665673573266,0.13305664,-0.9846802,0.066101074,0.234375,0.46875,-0.234375
1665673573311,0.13476562,-0.9883423,0.06317139,-0.25,0.34375,0.0625
1665673573356,0.12939453,-0.9824829,0.06341553,0.203125,1.0625,0.1875
1665673573388,0.1381836,-0.987854,0.0680542,0.015625,-0.171875,-0.140625
1665673573431,0.13842773,-0.9834595,0.07220459,-0.171875,0.640625,0.109375
1665673573476,0.13696289,-0.98321533,0.06341553,0.109375,-0.34375,-0.03125
1665673573505,0.14355469,-0.98272705,0.07220459,-0.328125,1.0625,0.125
1665673573551,0.13671875,-0.97613525,0.05706787,-0.25,0.3125,0.09375
1665673573595,0.13745117,-0.9939575,0.06707764,-0.09375,-0.1875,-0.15625
1665673573625,0.13208008,-0.97979736,0.06903076,-0.09375,0.703125,0.28125
1665673573671,0.13989258,-0.98516846,0.062927246,-0.25,0.328125,0.015625
1665673573731,0.13623047,-0.9859009,0.06707764,-0.203125,1.015625,0.0625
1665673573745,0.13183594,-0.9841919,0.06463623,0.421875,-0.234375,0.3125
1665673573791,0.13769531,-0.9834595,0.07293701,0.328125,0.375,-0.09375
1665673573836,0.13574219,-0.98272705,0.062438965,-0.34375,1.171875,0.21875
1665673573866,0.13989258,-0.9902954,0.06829834,0.296875,-0.03125,-0.109375
1665673573910,0.13720703,-0.98565674,0.06488037,-0.078125,0.171875,0.078125
1665673573955,0.140625,-0.9841919,0.06341553,-0.546875,0.375,0.0
1665673573986,0.13720703,-0.98223877,0.070739746,0.671875,0.265625,-0.015625
1665673574031,0.13989258,-0.9990845,0.06390381,0.125,-0.578125,0.03125
1665673574076,0.1303711,-0.9824829,0.07147217,-0.625,0.515625,-0.234375
1665673574105,0.13134766,-0.98809814,0.070007324,-0.171875,0.015625,0.125
1665673574151,0.13574219,-0.9795532,0.066833496,0.546875,0.59375,0.078125
1665673574196,0.13696289,-0.9846802,0.07171631,-0.03125,-0.078125,-0.09375
1665673574226,0.14038086,-0.9883423,0.07293701,-0.703125,-0.03125,-0.046875
1665673574271,0.12597656,-0.9812622,0.07611084,-0.3125,0.78125,-0.15625
1665673574300,0.1394043,-0.987854,0.07147217,-0.109375,-0.375,-0.328125
1665673574346,0.13232422,-0.9871216,0.06707764,-1.0625,0.375,-0.078125
1665673574391,0.13769531,-0.9846802,0.086120605,-0.546875,0.6875,-0.484375
1665673574423,0.13354492,-0.975647,0.07659912,0.046875,-0.25,-0.25
1665673574466,0.14770508,-1.0015259,0.08148193,0.28125,-0.09375,-0.484375
1665673574511,0.12182617,-0.98516846,0.08270264,-0.296875,0.21875,-0.421875
1665673574541,0.13867188,-0.98687744,0.07220459,-0.265625,0.453125,-0.015625
1665673574585,0.1328125,-0.9751587,0.08123779,0.296875,0.390625,-0.296875
1665673574631,0.13378906,-0.9829712,0.06976318,0.5625,-0.3125,-0.15625
1665673574661,0.13427734,-0.98321533,0.078063965,0.234375,0.59375,-0.1875
1665673574706,0.13769531,-0.98101807,0.08001709,0.46875,0.375,-0.140625
1665673574751,0.12915039,-0.9873657,0.08026123,0.453125,0.046875,-0.203125
1665673574780,0.13256836,-0.9837036,0.06732178,0.375,0.09375,0.078125
1665673574826,0.13745117,-0.987854,0.06854248,-0.015625,0.234375,-0.078125
1665673574871,0.13452148,-0.98516846,0.07513428,0.078125,0.03125,-0.0625
1665673574901,0.12402344,-0.989563,0.06756592,-0.25,0.015625,-0.0625
1665673574945,0.13842773,-0.9890747,0.07269287,0.171875,0.734375,0.140625
1665673574991,0.13208008,-0.9812622,0.074157715,-0.109375,0.234375,-0.015625
1665673575021,0.13354492,-0.98443604,0.07733154,-0.03125,0.359375,-0.34375
1665673575067,0.12768555,-0.9873657,0.077819824,-0.421875,0.828125,-0.125
1665673575111,0.12890625,-0.98443604,0.078063965,0.390625,0.25,-0.046875
1665673575143,0.12646484,-0.9961548,0.078552246,-0.15625,0.984375,0.140625
1665673575186,0.1328125,-0.9780884,0.070007324,-0.265625,0.46875,0.0
1665673575231,0.13671875,-0.98150635,0.07537842,0.203125,0.140625,-0.234375
1665673575261,0.13134766,-0.9924927,0.07952881,0.171875,0.59375,-0.046875
1665673575306,0.12841797,-0.98272705,0.07733154,0.453125,0.921875,0.078125
1665673575335,0.1381836,-0.9924927,0.06585693,0.28125,-0.9375,-0.0625
1665673575381,0.1262207,-0.987854,0.09588623,-0.359375,1.109375,-0.484375
1665673575441,0.1237793,-0.98272705,0.06756592,-0.3125,0.890625,0.390625
1665673575456,0.13500977,-0.9812622,0.078063965,0.5625,-0.65625,-0.234375
1665673575502,0.13305664,-0.987854,0.06732178,0.515625,0.28125,-0.109375
1665673575548,0.12719727,-0.98638916,0.0758667,0.203125,1.015625,0.28125
1665673575576,0.12939453,-0.98028564,0.0758667,0.296875,0.171875,-0.03125
1665673575621,0.13305664,-0.9902954,0.07318115,0.40625,0.453125,-0.0625
1665673575666,0.1340332,-0.98638916,0.066589355,0.1875,-0.140625,0.015625
1665673575696,0.13134766,-0.97906494,0.07342529,-0.3125,0.5625,-0.078125
1665673575741,0.1315918,-0.9939575,0.07171631,0.609375,-0.640625,-0.046875
1665673575786,0.13745117,-0.98760986,0.07952881,0.21875,-0.046875,0.15625
1665673575817,0.1303711,-0.99053955,0.08099365,0.015625,0.046875,-0.078125
1665673575861,0.123535156,-0.97979736,0.06488037,0.203125,0.40625,0.015625
1665673575906,0.12792969,-0.986145,0.08001709,0.734375,-0.109375,0.03125
1665673575936,0.1340332,-0.9812622,0.07269287,0.234375,0.703125,-0.078125
1665673575981,0.1352539,-0.9898071,0.07220459,0.640625,0.25,0.3125
1665673576026,0.13452148,-0.98883057,0.06878662,0.65625,0.09375,-0.0625
1665673576056,0.1328125,-0.98394775,0.062927246,0.328125,0.140625,0.03125
1665673576101,0.13378906,-0.98760986,0.07098389,-0.09375,0.234375,-0.03125
1665673576145,0.13208008,-0.9800415,0.07537842,0.15625,0.46875,0.0
1665673576177,0.12792969,-0.9807739,0.07171631,1.359375,0.875,0.421875
1665673576221,0.13671875,-0.9907837,0.07122803,0.5625,-0.8125,-0.109375
1665673576265,0.12841797,-0.9920044,0.08319092,-0.09375,1.125,0.03125
1665673576311,0.13085938,-0.9793091,0.06439209,-0.125,0.671875,0.09375
1665673576343,0.13110352,-0.986145,0.0692749,0.65625,0.015625,0.046875
1665673576387,0.13745117,-0.99468994,0.06488037,-0.34375,-0.25,-0.21875
1665673576416,0.13110352,-0.9834595,0.066345215,0.234375,0.96875,0.359375
1665673576461,0.12451172,-0.9956665,0.07366943,0.578125,-0.375,0.203125
1665673576491,0.13696289,-0.9805298,0.07659912,0.609375,-0.203125,0.0
1665673576536,0.13061523,-0.98931885,0.06439209,-0.21875,0.0625,0.109375
1665673576581,0.12768555,-0.9824829,0.07611084,-0.0625,0.65625,0.296875
1665673576611,0.12963867,-0.986145,0.07196045,0.078125,0.109375,-0.109375
1665673576656,0.13256836,-0.9915161,0.07220459,-0.015625,0.28125,-0.0625
1665673576701,0.13305664,-0.9819946,0.06561279,-0.203125,0.203125,0.109375
1665673576777,0.13305664,-0.9854126,0.07220459,0.03125,0.15625,-0.140625
1665673576779,0.12817383,-0.9898071,0.07098389,-0.546875,0.40625,-0.109375
1665673576822,0.13598633,-0.9795532,0.070495605,-0.21875,0.484375,-0.03125
1665673576851,0.13354492,-0.98809814,0.07952881,-0.59375,0.671875,0.03125
1665673576896,0.12817383,-0.9819946,0.074645996,-0.546875,0.375,0.203125
1665673576941,0.13427734,-0.98809814,0.07366943,-0.625,0.078125,-0.1875
1665673576970,0.12817383,-0.9837036,0.070251465,-0.53125,0.171875,-0.09375
1665673577016,0.1303711,-0.99346924,0.082458496,-1.15625,0.609375,-0.015625
1665673577061,0.13232422,-0.9763794,0.07684326,0.21875,0.40625,0.421875
1665673577091,0.13378906,-0.9924927,0.07196045,0.421875,-0.53125,-0.078125
1665673577135,0.13085938,-0.9817505,0.08319092,-0.375,0.96875,-0.1875
1665673577182,0.13989258,-0.97613525,0.07293701,-0.78125,1.484375,0.171875
1665673577226,0.13232422,-0.987854,0.08831787,-0.0625,-0.34375,0.0625
1665673577256,0.13647461,-0.9873657,0.07635498,-0.625,0.5625,0.046875
1665673577301,0.13500977,-0.9795532,0.07513428,0.921875,0.46875,0.28125
1665673577330,0.13574219,-0.9885864,0.09124756,-0.140625,0.171875,0.234375
1665673577376,0.12988281,-0.97979736,0.07659912,-0.03125,-0.015625,0.34375
1665673577421,0.13232422,-0.9859009,0.07952881,0.3125,0.625,-0.09375
1665673577451,0.1315918,-0.9800415,0.07562256,-0.140625,0.40625,0.15625
1665673577496,0.14038086,-0.9871216,0.082458496,0.09375,0.3125,-0.234375
1665673577526,0.1303711,-0.98028564,0.09075928,-0.40625,0.625,-0.296875
1665673577571,0.1328125,-0.97979736,0.082458496,-0.125,0.09375,-0.078125
1665673577616,0.13208008,-0.9854126,0.08709717,0.59375,-0.34375,-0.234375
1665673577648,0.13208008,-0.98638916,0.077819824,0.203125,0.171875,-0.28125
1665673577691,0.13647461,-0.9841919,0.08001709,-0.078125,0.5,-0.203125
1665673577736,0.13500977,-0.98443604,0.08416748,0.109375,0.671875,-0.0625
1665673577765,0.13232422,-0.9866333,0.07537842,-0.453125,0.171875,-0.28125
1665673577810,0.12402344,-0.9866333,0.08905029,-0.21875,0.984375,-0.40625
1665673577855,0.13085938,-0.9883423,0.08099365,0.21875,0.0,-0.25
1665673577885,0.13232422,-0.98272705,0.09466553,0.328125,0.75,-0.03125
1665673577931,0.1340332,-0.98394775,0.0758667,-0.28125,0.171875,-0.015625
1665673577976,0.12988281,-0.98638916,0.08929443,0.09375,0.15625,-0.546875
1665673578008,0.13623047,-0.9837036,0.078552246,-0.109375,1.1875,0.171875
1665673578051,0.13256836,-0.9866333,0.08148193,-0.15625,0.453125,-0.171875
1665673578096,0.12915039,-0.98565674,0.08929443,0.234375,0.5,-0.234375
1665673578126,0.12963867,-0.99346924,0.086364746,0.578125,0.984375,0.03125
1665673578172,0.13061523,-0.9812622,0.08758545,0.578125,0.421875,0.25
1665673578216,0.13330078,-0.991272,0.08001709,0.4375,0.15625,0.21875
1665673578248,0.13500977,-0.9834595,0.073913574,-0.46875,0.421875,-0.234375
1665673578291,0.12792969,-0.9819946,0.08148193,-0.578125,0.3125,-0.046875
1665673578336,0.12963867,-0.98687744,0.078308105,-0.078125,0.65625,-0.15625
1665673578366,0.12963867,-0.98883057,0.08782959,0.59375,0.3125,-0.03125
1665673578411,0.12792969,-0.98565674,0.08538818,-0.734375,0.109375,0.03125
1665673578456,0.13134766,-0.9898071,0.07952881,0.03125,0.421875,0.234375
1665673578486,0.123535156,-0.98565674,0.08905029,0.1875,0.515625,-0.328125
1665673578531,0.12573242,-0.98687744,0.07928467,-0.46875,0.46875,-0.109375
1665673578576,0.13110352,-0.9883423,0.09173584,0.078125,0.140625,-0.265625
1665673578608,0.122558594,-0.9834595,0.07952881,0.1875,0.234375,-0.046875
1665673578651,0.13598633,-0.98687744,0.07977295,0.03125,0.09375,-0.171875
1665673578681,0.13330078,-0.9817505,0.07879639,-0.8125,0.703125,-0.3125
1665673578727,0.123291016,-0.98394775,0.10443115,0.796875,0.46875,0.140625
1665673578771,0.13769531,-0.9776001,0.070739746,-0.234375,-0.515625,-0.1875
1665673578801,0.12573242,-0.989563,0.09588623,0.375,-0.6875,-0.328125
1665673578845,0.1262207,-0.98931885,0.08416748,-0.40625,0.6875,0.078125
1665673578891,0.13378906,-0.98516846,0.090270996,0.078125,0.046875,-0.03125
1665673578921,0.13696289,-0.9841919,0.08050537,0.0625,-0.03125,-0.15625
1665673578966,0.13232422,-0.98638916,0.090026855,0.078125,-0.21875,0.0
1665673579011,0.1262207,-0.97979736,0.08465576,0.484375,0.625,0.296875
1665673579040,0.1303711,-0.9915161,0.08782959,0.6875,-0.09375,-0.015625
1665673579086,0.12817383,-0.989563,0.089538574,0.453125,0.5625,-0.09375
1665673579131,0.13110352,-0.98931885,0.08001709,0.1875,-0.25,0.3125
1665673579162,0.13330078,-0.9812622,0.082214355,0.421875,0.328125,-0.203125
1665673579208,0.12768555,-0.9866333,0.081970215,0.03125,0.359375,0.03125
1665673579251,0.12475586,-0.9837036,0.08392334,-0.28125,0.109375,-0.03125
1665673579280,0.12939453,-0.9841919,0.07220459,0.09375,0.140625,-0.296875
1665673579326,0.12841797,-0.9837036,0.09124756,-0.578125,0.34375,-0.296875
1665673579371,0.12695312,-0.9849243,0.08270264,-0.421875,0.203125,-0.109375
1665673579401,0.13671875,-0.98883057,0.0848999,-0.03125,0.25,-0.390625
1665673579446,0.12402344,-0.9859009,0.089782715,-0.234375,0.6875,-0.03125
1665673579491,0.13256836,-0.9902954,0.077819824,0.265625,-0.125,-0.21875
1665673579521,0.1274414,-0.97857666,0.09637451,0.109375,0.46875,-0.125
1665673579566,0.12915039,-0.9788208,0.08001709,0.15625,-0.3125,0.03125
1665673579642,0.12890625,-1.0015259,0.10638428,0.609375,-0.5625,-0.21875
1665673579644,0.11376953,-0.98101807,0.07952881,-0.640625,0.296875,-0.03125
1665673579687,0.12646484,-0.98223877,0.09515381,-0.171875,0.265625,0.234375
1665673579715,0.12890625,-0.98809814,0.08392334,0.640625,-0.171875,-0.046875
1665673579761,0.12841797,-0.9949341,0.08856201,0.046875,0.234375,0.03125
1665673579807,0.1262207,-0.98394775,0.08514404,0.140625,0.6875,0.234375
1665673579836,0.12988281,-0.9927368,0.09100342,0.171875,0.4375,0.0625
1665673579881,0.12670898,-0.98443604,0.08929443,0.203125,0.5625,-0.03125
1665673579926,0.12939453,-0.9937134,0.0914917,-0.515625,0.46875,0.046875
1665673579956,0.13061523,-0.97540283,0.08685303,0.0,0.5625,-0.09375
1665673580001,0.12939453,-0.9885864,0.08319092,0.390625,0.078125,0.0
1665673580046,0.12084961,-0.98394775,0.093933105,-0.03125,0.421875,0.15625
1665673580075,0.12695312,-0.986145,0.08782959,0.359375,-0.25,-0.046875
1665673580121,0.125,-0.98687744,0.08782959,0.4375,0.0625,-0.125
1665673580168,0.12866211,-0.98516846,0.08709717,0.34375,0.046875,0.03125
1665673580196,0.12182617,-0.99053955,0.08538818,0.078125,0.0625,-0.140625
1665673580241,0.122802734,-0.9824829,0.08343506,-0.3125,-0.015625,-0.28125
1665673580286,0.12597656,-0.9939575,0.09857178,-0.015625,0.734375,-0.046875
1665673580316,0.122802734,-0.9824829,0.073913574,-1.078125,0.796875,-0.09375
1665673580360,0.12817383,-0.9981079,0.09222412,0.296875,-1.09375,-0.171875
1665673580405,0.12231445,-0.98687744,0.09197998,-0.578125,0.6875,-0.359375
1665673580437,0.12670898,-0.9849243,0.082214355,0.03125,0.140625,0.375
1665673580480,0.12988281,-0.9890747,0.09710693,0.5,-0.28125,-0.171875
1665673580525,0.12060547,-0.99005127,0.090026855,0.109375,0.234375,-0.015625
1665673580554,0.1274414,-0.973938,0.08343506,-0.578125,0.15625,0.203125
1665673580601,0.12841797,-0.9824829,0.097595215,0.484375,0.234375,-0.046875
1665673580676,0.12084961,-0.9968872,0.08709717,-0.59375,0.203125,-0.046875
1665673580678,0.12573242,-0.98565674,0.09222412,0.09375,0.015625,0.140625
1665673580721,0.12719727,-0.99176025,0.08294678,0.125,0.0625,-0.015625
1665673580766,0.12402344,-0.98443604,0.09490967,-0.078125,0.234375,-0.078125
1665673580796,0.12402344,-0.9859009,0.08831787,0.03125,0.109375,0.015625
1665673580841,0.12890625,-0.98931885,0.09246826,0.0625,0.015625,-0.234375
1665673580870,0.11694336,-0.98516846,0.0927124,-0.21875,0.25,0.03125
1665673580916,0.1303711,-0.99224854,0.0927124,-0.109375,0.203125,-0.109375
1665673580961,0.123535156,-0.9944458,0.09197998,-1.0,0.359375,-0.28125
1665673580991,0.13134766,-0.98223877,0.08270264,-0.6875,-0.328125,-0.375
1665673581036,0.12451172,-0.98883057,0.10760498,0.515625,0.546875,-0.203125
1665673581081,0.1262207,-0.97979736,0.085632324,-0.484375,0.421875,-0.25
1665673581113,0.118896484,-0.99591064,0.10223389,0.5,-0.6875,-0.25
1665673581155,0.11816406,-0.9795532,0.090270996,-0.625,1.203125,-0.09375
1665673581201,0.119628906,-0.9727173,0.097839355,-0.03125,0.046875,-0.109375
1665673581231,0.122802734,-0.99176025,0.097595215,0.515625,0.625,-0.40625
1665673581276,0.119140625,-0.98321533,0.09686279,0.296875,0.5625,0.0625
1665673581321,0.12475586,-0.9849243,0.090270996,0.6875,0.96875,-0.1875
1665673581351,0.11450195,-0.9829712,0.09442139,0.1875,0.296875,-0.125
1665673581396,0.1237793,-0.9939575,0.09857178,-0.09375,0.0625,-0.140625
1665673581441,0.13012695,-0.9829712,0.08465576,0.421875,-0.078125,-0.09375
1665673581472,0.115478516,-0.98687744,0.09246826,-0.078125,0.578125,-0.171875
1665673581516,0.11791992,-0.98809814,0.09197998,0.40625,-0.046875,0.0625
1665673581561,0.123291016,-0.9859009,0.0927124,0.25,0.484375,-0.09375
1665673581590,0.12719727,-0.98760986,0.089782715,0.1875,0.546875,-0.03125
1665673581636,0.12084961,-0.987854,0.09173584,0.234375,0.578125,-0.0625
1665673581696,0.11401367,-0.99053955,0.09197998,-0.03125,0.265625,-0.15625
1665673581711,0.12207031,-0.9829712,0.08294678,-0.25,0.484375,-0.09375
1665673581756,0.12548828,-0.98394775,0.089782715,0.3125,0.515625,-0.171875
1665673581801,0.114746094,-0.9924927,0.105895996,0.703125,0.859375,0.140625
1665673581846,0.12451172,-0.98223877,0.08343506,-0.203125,0.34375,0.109375
1665673581876,0.12573242,-0.9961548,0.1005249,-0.0625,-0.078125,-0.375
1665673581907,0.1159668,-0.9883423,0.09320068,-0.53125,0.515625,-0.109375
1665673581950,0.12402344,-0.9834595,0.10076904,-0.953125,0.53125,-0.078125
1665673581996,0.12548828,-0.9866333,0.098083496,0.390625,-0.15625,-0.21875
1665673582026,0.12133789,-0.98516846,0.09588623,0.515625,0.5625,-0.03125
1665673582071,0.11816406,-0.98760986,0.10028076,-0.453125,0.09375,-0.046875
1665673582116,0.1184082,-0.98809814,0.097595215,-0.234375,0.21875,-0.046875
1665673582146,0.115478516,-0.9866333,0.097351074,-0.40625,0.15625,-0.15625
1665673582191,0.12084961,-0.9924927,0.10003662,-0.046875,0.171875,-0.125
1665673582236,0.118652344,-0.98565674,0.09075928,-0.375,0.734375,0.015625
1665673582266,0.1274414,-0.9873657,0.0993042,0.3125,0.125,0.078125
1665673582311,0.1171875,-0.9890747,0.09539795,0.328125,0.484375,0.046875
1665673582356,0.119628906,-0.99346924,0.101745605,-0.0625,0.46875,0.15625
1665673582386,0.118896484,-0.9771118,0.101257324,-0.265625,0.40625,-0.125
1665673582431,0.1237793,-0.98931885,0.09637451,-0.640625,0.015625,-0.046875
1665673582475,0.119140625,-0.99005127,0.10467529,0.03125,0.484375,-0.078125
1665673582505,0.119384766,-0.9927368,0.10491943,-0.859375,0.765625,-0.15625
1665673582550,0.12231445,-0.986145,0.09442139,-0.546875,-0.359375,-0.203125
1665673582597,0.111816406,-0.9817505,0.113464355,0.015625,1.375,0.09375
1665673582626,0.12548828,-0.97857666,0.09686279,-0.125,-0.390625,0.0625
1665673582671,0.119140625,-0.9939575,0.10809326,0.015625,0.40625,-0.421875
1665673582716,0.110839844,-0.99346924,0.10760498,-0.609375,1.125,-0.28125
1665673582745,0.123046875,-0.98150635,0.10003662,0.28125,0.171875,0.0625
1665673582791,0.12402344,-0.9866333,0.10296631,-0.0625,-0.03125,-0.078125
1665673582836,0.115722656,-0.99542236,0.105895996,0.71875,0.125,0.0625
1665673582865,0.11987305,-0.9873657,0.09613037,-0.125,0.484375,-0.046875
1665673582911,0.119628906,-0.987854,0.11151123,0.125,0.1875,0.0625
1665673582941,0.1262207,-0.9795532,0.09613037,0.546875,0.15625,-0.203125
1665673582986,0.1237793,-0.991272,0.098083496,0.078125,-0.34375,-0.125
1665673583032,0.11767578,-0.9783325,0.10882568,-0.078125,0.765625,0.078125
1665673583061,0.11987305,-0.9902954,0.09832764,0.40625,-0.953125,-0.109375
1665673583106,0.12646484,-0.9873657,0.109558105,0.328125,0.171875,0.046875
1665673583150,0.11303711,-0.9883423,0.105163574,-0.25,0.296875,-0.171875
1665673583196,0.1171875,-0.98272705,0.10101318,0.109375,-0.015625,0.265625
1665673583226,0.12133789,-0.9834595,0.10076904,0.25,0.546875,0.09375
1665673583271,0.12133789,-0.9924927,0.10443115,0.65625,-0.03125,-0.09375
1665673583301,0.11621094,-0.99005127,0.10296631,0.078125,0.15625,0.0625
1665673583346,0.12036133,-0.9902954,0.10858154,-0.203125,0.375,-0.03125
1665673583391,0.12768555,-0.9846802,0.101989746,0.15625,-0.109375,-0.09375
1665673583421,0.12426758,-0.9834595,0.101257324,-0.296875,0.28125,-0.0625
1665673583466,0.11254883,-0.9824829,0.10614014,0.8125,1.0,0.28125
1665673583526,0.122802734,-0.9837036,0.09613037,0.1875,-0.46875,0.015625
1665673583540,0.11279297,-1.0005493,0.113464355,0.6875,0.328125,-0.25
1665673583586,0.12158203,-0.9841919,0.08758545,-0.46875,0.78125,0.171875
1665673583631,0.11206055,-0.9783325,0.11224365,1.03125,0.46875,-0.15625
1665673583661,0.11743164,-0.9961548,0.093933105,1.0,-0.140625,-0.109375
1665673583706,0.11767578,-0.9927368,0.097839355,0.5,0.15625,-0.078125
1665673583750,0.11987305,-0.98760986,0.098083496,0.84375,0.46875,-0.265625
1665673583781,0.11621094,-0.9924927,0.11102295,0.65625,-0.140625,0.078125
1665673583826,0.119384766,-0.9859009,0.09710693,0.1875,-0.859375,-0.1875
1665673583871,0.12207031,-0.98687744,0.09515381,1.0,-0.53125,0.140625
1665673583900,0.12915039,-0.9817505,0.09246826,0.796875,-0.171875,0.109375
1665673583946,0.11767578,-0.9949341,0.10394287,0.578125,-0.375,-0.046875
1665673583991,0.12011719,-0.98809814,0.09320068,0.671875,-0.09375,0.0
1665673584021,0.11743164,-0.9885864,0.093933105,0.640625,-0.015625,0.203125
1665673584066,0.12060547,-0.9890747,0.09906006,1.921875,0.203125,0.328125
1665673584096,0.12011719,-0.9841919,0.093688965,0.203125,0.265625,-0.1875
1665673584140,0.1171875,-0.9885864,0.101501465,0.234375,0.328125,0.109375
1665673584187,0.12060547,-0.9859009,0.09442139,0.75,0.21875,0.078125
1665673584215,0.1237793,-0.9898071,0.093444824,0.5625,0.109375,0.0
1665673584261,0.12133789,-0.98516846,0.09124756,0.375,0.15625,-0.15625
1665673584306,0.12426758,-0.99053955,0.08929443,-0.0625,-0.140625,0.078125
1665673584382,0.11645508,-0.9805298,0.10003662,1.09375,0.8125,0.203125
1665673584384,0.118652344,-0.9819946,0.08001709,0.578125,-0.765625,-0.125
1665673584426,0.12036133,-0.9920044,0.101745605,1.109375,-0.109375,-0.0625
1665673584456,0.119628906,-0.97906494,0.08001709,-0.265625,0.765625,0.03125
1665673584501,0.12084961,-0.98516846,0.093688965,0.40625,-0.53125,-0.046875
1665673584546,0.12548828,-0.991272,0.08905029,-0.390625,0.34375,-0.078125
1665673584576,0.118652344,-0.9915161,0.09979248,0.0625,0.578125,0.09375
1665673584621,0.122558594,-0.97662354,0.086120605,0.1875,0.09375,-0.21875
1665673584666,0.11645508,-0.99591064,0.09490967,-0.171875,-0.140625,-0.03125
1665673584696,0.12695312,-0.9800415,0.08392334,0.1875,0.0625,-0.03125
1665673584741,0.125,-0.9907837,0.08685303,-0.328125,0.203125,0.078125
1665673584786,0.11816406,-0.9805298,0.08905029,-0.171875,0.828125,-0.171875
1665673584816,0.11694336,-0.9890747,0.093688965,0.125,0.296875,-0.09375
1665673584861,0.123535156,-0.9859009,0.097595215,-0.203125,0.171875,-0.203125
1665673584906,0.119628906,-0.9920044,0.08831787,-0.46875,1.3125,-0.140625
1665673584938,0.123535156,-0.987854,0.09881592,-0.09375,0.28125,-0.09375
1665673584981,0.12011719,-0.98638916,0.09197998,-0.25,0.40625,-0.140625
1665673585026,0.119140625,-0.987854,0.09442139,-0.171875,0.3125,-0.09375
1665673585056,0.11669922,-0.98883057,0.097839355,-0.640625,0.8125,-0.09375
1665673585101,0.12109375,-0.9854126,0.09613037,0.140625,-0.125,0.03125
1665673585130,0.12060547,-0.99053955,0.093444824,-0.234375,0.3125,-0.109375
1665673585177,0.115234375,-0.9866333,0.094177246,-0.40625,-0.078125,-0.09375
1665673585221,0.122802734,-0.98809814,0.09906006,0.0,0.6875,-0.203125
1665673585251,0.11328125,-0.98687744,0.09613037,0.078125,1.34375,0.171875
1665673585296,0.12426758,-0.9939575,0.097839355,0.46875,-1.078125,-0.09375
1665673585341,0.11743164,-0.98760986,0.10247803,-0.59375,1.765625,-0.234375
1665673585373,0.11791992,-0.9788208,0.093688965,-0.375,0.53125,0.25
1665673585416,0.11816406,-0.9871216,0.10736084,-0.015625,0.390625,-0.234375
1665673585461,0.115234375,-0.9866333,0.09222412,-0.515625,0.21875,-0.03125
1665673585491,0.12548828,-0.9854126,0.0993042,0.5625,0.34375,0.234375
1665673585536,0.11401367,-0.99005127,0.105163574,-0.328125,0.546875,0.34375
1665673585581,0.1171875,-0.98760986,0.10296631,-0.09375,0.28125,-0.078125
1665673585611,0.1105957,-0.99298096,0.105163574,-0.453125,0.421875,0.046875
1665673585657,0.12109375,-0.9859009,0.09881592,-0.34375,0.5625,0.140625
1665673585701,0.114746094,-0.98101807,0.10443115,-0.03125,0.90625,-0.375
1665673585732,0.11791992,-0.9961548,0.101257324,-0.265625,-0.078125,-0.046875
1665673585776,0.122558594,-0.98516846,0.10736084,-0.203125,0.5625,0.0625
1665673585821,0.114746094,-0.9846802,0.10662842,0.21875,0.46875,-0.078125
1665673585850,0.12158203,-0.9990845,0.09588623,-0.234375,0.09375,0.21875
1665673585896,0.12011719,-0.98321533,0.10321045,0.078125,0.140625,-0.21875
1665673585941,0.115234375,-0.9873657,0.10272217,-0.25,0.796875,0.015625
1665673585971,0.118896484,-0.9776001,0.11004639,0.1875,-0.0625,-0.0625
1665673586016,0.11254883,-0.99053955,0.105651855,-0.234375,0.90625,-0.078125
1665673586061,0.11254883,-0.9812622,0.09857178,0.28125,0.140625,-0.125
1665673586093,0.11694336,-0.99224854,0.09832764,-0.140625,0.5625,0.015625
1665673586136,0.119384766,-0.98931885,0.120788574,0.25,0.875,-0.046875
1665673586182,0.11401367,-0.98687744,0.09442139,0.4375,0.421875,0.203125
1665673586211,0.11791992,-1.000061,0.101257324,-0.296875,-0.40625,-0.328125
1665673586256,0.104003906,-0.9920044,0.11468506,-0.453125,0.96875,-0.046875
1665673586286,0.115234375,-0.98101807,0.09906006,-0.078125,0.90625,0.078125
1665673586331,0.12133789,-0.9873657,0.1071167,-0.15625,0.3125,-0.328125
1665673586376,0.118896484,-0.9968872,0.09320068,-0.375,0.171875,-0.109375
1665673586406,0.115234375,-0.9829712,0.11663818,0.484375,0.65625,0.078125
1665673586451,0.11450195,-0.9885864,0.101745605,0.171875,0.34375,-0.03125
1665673586496,0.11694336,-0.98931885,0.10687256,0.109375,0.234375,-0.078125
1665673586526,0.111083984,-0.99224854,0.10638428,0.078125,0.515625,0.015625
1665673586572,0.11767578,-0.98516846,0.10394287,0.046875,0.46875,-0.015625
1665673586616,0.12109375,-0.9846802,0.10809326,-0.625,0.96875,-0.078125
1665673586646,0.12573242,-0.9890747,0.1083374,0.859375,-0.484375,0.0
1665673586691,0.11743164,-0.98516846,0.10418701,-0.359375,0.859375,-0.09375
1665673586736,0.11645508,-0.9834595,0.10882568,0.3125,-0.1875,-0.09375
1665673586766,0.119384766,-0.98516846,0.09906006,-0.1875,0.359375,-0.203125
1665673586826,0.111083984,-0.98394775,0.11273193,0.140625,0.296875,-0.109375
1665673586856,0.114990234,-0.9866333,0.10345459,0.65625,0.328125,0.125
1665673586885,0.115722656,-0.98809814,0.10784912,0.03125,0.734375,-0.015625
1665673586931,0.11694336,-0.9859009,0.097839355,-0.0625,0.578125,0.03125
1665673586976,0.12084961,-0.9890747,0.10687256,0.53125,0.71875,-0.234375
1665673587006,0.11352539,-0.9956665,0.10345459,-0.328125,-0.046875,-0.21875
1665673587051,0.12060547,-0.9859009,0.11639404,0.84375,0.390625,-0.28125
1665673587096,0.11743164,-0.9890747,0.09954834,0.703125,0.28125,0.171875
1665673587128,0.12231445,-0.9949341,0.10272217,0.796875,-0.953125,-0.28125
1665673587170,0.103271484,-0.98931885,0.10076904,0.0625,0.703125,-0.265625
1665673587246,0.10644531,-0.9793091,0.09857178,0.296875,0.328125,0.0625
1665673587248,0.1159668,-0.9795532,0.11077881,0.8125,0.28125,-0.15625
1665673587294,0.118652344,-0.9915161,0.08758545,0.171875,-0.65625,-0.234375
1665673587321,0.11621094,-0.9902954,0.11102295,0.125,0.609375,-0.3125
1665673587366,0.10961914,-0.9776001,0.089782715,-0.0625,0.03125,0.15625
1665673587411,0.114990234,-0.98565674,0.10760498,0.515625,-0.046875,-0.453125
1665673587441,0.10498047,-0.9968872,0.098083496,-0.203125,-0.28125,-0.09375
1665673587486,0.1159668,-0.9817505,0.101989746,0.453125,0.421875,0.078125
1665673587530,0.10986328,-0.9871216,0.1005249,0.125,-0.078125,-0.03125
1665673587561,0.11352539,-0.99005127,0.10638428,0.484375,-0.0625,-0.125
1665673587606,0.10888672,-0.98931885,0.1005249,0.203125,0.265625,0.078125
1665673587651,0.10522461,-0.99005127,0.10809326,0.34375,0.640625,0.03125
1665673587681,0.111083984,-0.99005127,0.0993042,0.6875,-0.09375,0.15625
1665673587727,0.111816406,-0.99053955,0.11224365,0.0,0.34375,0.015625
1665673587770,0.11254883,-0.9915161,0.1005249,0.390625,0.375,0.03125
1665673587801,0.11254883,-0.9866333,0.10101318,0.3125,0.0,0.125
1665673587846,0.111816406,-0.9924927,0.090026855,0.25,-0.484375,-0.125
1665673587891,0.11035156,-0.9883423,0.10223389,-0.125,0.40625,-0.15625
1665673587921,0.10961914,-0.9854126,0.09881592,0.453125,-0.28125,-0.109375
1665673587966,0.1159668,-0.9939575,0.10028076,0.546875,0.109375,-0.03125
1665673588011,0.103271484,-0.99053955,0.0927124,-0.0625,0.546875,0.3125
1665673588041,0.114746094,-1.0071411,0.10638428,1.0,-1.421875,-0.03125
1665673588086,0.111816406,-0.9885864,0.09564209,0.0625,0.53125,-0.234375
1665673588131,0.115722656,-0.97613525,0.09173584,0.0625,0.390625,0.125
1665673588162,0.11450195,-0.9866333,0.101745605,0.484375,0.1875,-0.078125
1665673588206,0.111816406,-0.9890747,0.09320068,0.1875,-0.109375,-0.1875
1665673588281,0.111816406,-0.98809814,0.10076904,0.84375,-0.21875,0.21875
1665673588284,0.111083984,-0.9907837,0.10321045,0.984375,0.28125,0.21875
1665673588327,0.11035156,-0.98101807,0.09637451,0.484375,-0.5625,0.109375
1665673588371,0.11767578,-0.99298096,0.089782715,-0.28125,-0.0625,0.0
1665673588401,0.11254883,-0.9846802,0.101257324,0.296875,0.53125,0.0625
1665673588446,0.107177734,-0.989563,0.09124756,0.140625,-0.515625,0.03125
1665673588477,0.11694336,-0.9871216,0.09954834,0.125,-0.09375,-0.109375
1665673588521,0.11791992,-0.98321533,0.094177246,0.484375,-0.0625,0.109375
1665673588566,0.111328125,-0.9890747,0.09515381,0.09375,0.265625,0.03125
1665673588597,0.11401367,-0.986145,0.09881592,0.21875,0.234375,-0.109375
1665673588641,0.115234375,-0.99224854,0.09588623,0.296875,0.0,0.3125
1665673588687,0.1184082,-0.9927368,0.101501465,0.078125,0.453125,-0.203125
1665673588716,0.11352539,-0.99102783,0.09295654,0.15625,0.15625,0.078125
1665673588761,0.11767578,-0.98687744,0.097351074,0.078125,0.125,-0.125
1665673588806,0.11254883,-0.9902954,0.09320068,0.0625,0.0625,-0.0625
1665673588835,0.122558594,-0.9939575,0.09197998,-0.296875,0.53125,-0.25
1665673588881,0.11010742,-0.9854126,0.09197998,-0.234375,1.078125,0.09375
1665673588926,0.12084961,-0.9956665,0.09637451,0.546875,-0.96875,0.140625
1665673588971,0.115478516,-0.98638916,0.10296631,-0.703125,0.953125,-0.375
1665673589001,0.115478516,-0.975647,0.08929443,-1.09375,0.625,0.21875
1665673589046,0.109375,-0.9854126,0.10614014,0.109375,-0.015625,-0.15625
1665673589076,0.11254883,-0.9973755,0.097351074,-0.59375,0.5,-0.1875
1665673589121,0.11230469,-0.99053955,0.10736084,0.140625,0.078125,-0.078125
1665673589166,0.11328125,-0.987854,0.10467529,0.40625,0.390625,0.21875
1665673589196,0.107910156,-0.9961548,0.10321045,-0.453125,0.25,-0.03125
1665673589241,0.115234375,-0.97662354,0.09564209,-0.21875,0.421875,0.171875
1665673589286,0.11450195,-0.9890747,0.09710693,-0.1875,0.46875,0.125
1665673589316,0.11376953,-0.98809814,0.101989746,-0.4375,0.390625,-0.015625
1665673589361,0.115234375,-0.9961548,0.10296631,-0.015625,0.3125,0.171875
1665673589392,0.11254883,-0.9890747,0.10247803,-0.359375,0.4375,-0.109375
1665673589436,0.11279297,-0.9866333,0.10247803,-0.21875,0.515625,0.09375
1665673589498,0.103027344,-0.9871216,0.10223389,0.0,0.859375,0.015625
1665673589510,0.115478516,-0.9907837,0.10028076,-0.078125,0.21875,0.015625
1665673589557,0.115234375,-0.9890747,0.10736084,0.140625,1.125,-0.21875
1665673589601,0.111572266,-0.9883423,0.09979248,0.3125,0.890625,-0.171875
1665673589646,0.1105957,-0.9866333,0.10638428,0.0,0.21875,-0.25
1665673589676,0.11450195,-0.9898071,0.10296631,-0.1875,0.09375,-0.09375
1665673589721,0.11401367,-0.98443604,0.109313965,-0.046875,1.109375,0.15625
1665673589751,0.12109375,-0.9817505,0.10247803,0.453125,-0.1875,0.109375
1665673589797,0.11791992,-1.0059204,0.109802246,0.1875,-0.96875,-0.125
1665673589840,0.10864258,-0.9849243,0.10223389,-0.4375,1.265625,-0.03125
1665673589873,0.10668945,-0.9746704,0.09979248,-0.15625,0.4375,0.078125
1665673589917,0.122802734,-0.989563,0.109069824,-0.328125,-0.125,-0.171875
1665673589961,0.11303711,-0.98931885,0.10101318,-0.375,0.625,-0.09375
1665673589991,0.10424805,-0.9951782,0.10638428,-0.09375,0.78125,-0.0625
1665673590037,0.11230469,-0.98760986,0.098083496,-0.125,-0.09375,0.046875
1665673590097,0.1105957,-0.98931885,0.11517334,-0.5,0.734375,-0.28125
1665673590111,0.11035156,-0.9849243,0.10736084,-0.28125,0.265625,0.03125
1665673590156,0.111572266,-0.98931885,0.10418701,-0.546875,0.625,-0.21875
1665673590202,0.11425781,-0.98638916,0.10882568,0.296875,0.34375,-0.109375
1665673590232,0.11206055,-0.9927368,0.11102295,-0.515625,0.4375,-0.09375
1665673590292,0.107421875,-0.9854126,0.11810303,-0.234375,0.484375,0.015625
1665673590321,0.111083984,-0.9907837,0.11053467,-0.109375,0.21875,-0.0625
1665673590351,0.110839844,-0.9807739,0.10369873,-0.03125,0.578125,0.03125
1665673590411,0.110839844,-0.99005127,0.117614746,0.203125,0.203125,-0.015625
1665673590441,0.10620117,-0.99102783,0.11077881,-0.3125,0.0,-0.140625
1665673590471,0.111328125,-0.98931885,0.11199951,0.484375,0.15625,-0.109375
1665673590516,0.10668945,-0.9883423,0.10467529,0.1875,0.6875,-0.140625
1665673590546,0.106933594,-0.9837036,0.11859131,0.203125,0.671875,0.203125
1665673590591,0.11425781,-0.98272705,0.105407715,0.9375,0.734375,0.609375
1665673590636,0.1105957,-1.00177,0.11663818,0.359375,0.046875,0.078125
1665673590668,0.09887695,-0.9990845,0.11419678,0.203125,1.484375,-0.109375
1665673590711,0.11303711,-0.9788208,0.101745605,0.140625,0.515625,0.296875
1665673590757,0.119140625,-0.9885864,0.10028076,0.1875,0.359375,-0.0625
1665673590785,0.11254883,-0.99664307,0.10443115,0.28125,0.171875,0.140625
1665673590831,0.111572266,-0.98931885,0.11053467,0.5,0.328125,0.296875
1665673590876,0.11376953,-0.99005127,0.10760498,0.421875,0.09375,-0.015625
1665673590906,0.10644531,-0.9795532,0.11444092,0.546875,0.171875,0.21875
1665673590951,0.11450195,-0.9846802,0.105163574,0.828125,-0.09375,0.296875
1665673590996,0.119140625,-0.98223877,0.10614014,0.078125,0.4375,-0.03125
1665673591026,0.11401367,-0.99176025,0.10614014,0.078125,-0.015625,0.09375
1665673591071,0.1159668,-0.9776001,0.10272217,-0.0625,0.171875,-0.109375
1665673591116,0.11035156,-0.9985962,0.10345459,0.078125,1.15625,0.0625
1665673591146,0.11450195,-0.9866333,0.10882568,-0.28125,0.703125,0.09375
1665673591192,0.11401367,-0.9819946,0.11102295,0.3125,0.21875,0.3125
1665673591236,0.11669922,-0.9885864,0.109069824,0.28125,0.1875,0.171875
1665673591266,0.11669922,-0.9849243,0.105895996,0.59375,0.484375,0.140625
1665673591312,0.119140625,-0.9871216,0.10003662,-0.15625,-0.15625,0.09375
1665673591358,0.11279297,-0.99224854,0.1251831,0.515625,1.015625,0.34375
1665673591385,0.12231445,-0.9783325,0.09515381,0.328125,0.203125,0.265625
1665673591430,0.11621094,-0.99542236,0.10760498,0.5,-1.03125,-0.140625
1665673591477,0.111572266,-0.9907837,0.113464355,-0.375,1.109375,-0.078125
1665673591506,0.119140625,-0.98223877,0.09710693,-0.28125,0.6875,-0.03125
1665673591566,0.119384766,-0.9812622,0.11004639,0.21875,-0.28125,0.0
1665673591596,0.118896484,-0.9924927,0.09832764,0.28125,0.5625,-0.109375
1665673591625,0.10668945,-0.98638916,0.11224365,-0.046875,0.609375,0.140625
1665673591671,0.12133789,-0.98883057,0.10076904,0.203125,-0.0625,0.09375
1665673591703,0.11425781,-0.9939575,0.10736084,0.234375,0.015625,-0.28125
1665673591746,0.11401367,-0.9915161,0.10882568,-0.015625,-0.203125,0.09375
1665673591791,0.11743164,-0.98443604,0.10784912,0.375,0.265625,-0.09375
1665673591821,0.10961914,-0.9902954,0.10809326,0.109375,0.34375,0.03125
1665673591866,0.10986328,-0.9819946,0.11175537,0.390625,0.1875,0.15625
1665673591911,0.11401367,-0.9898071,0.10247803,0.96875,0.25,0.265625
1665673591987,0.11669922,-0.98565674,0.10369873,0.0625,0.328125,-0.078125
1665673591989,0.1159668,-0.9812622,0.10418701,0.359375,0.359375,0.171875
1665673592032,0.11669922,-0.9898071,0.10296631,0.484375,0.0,0.0
1665673592061,0.11767578,-0.9873657,0.105407715,0.3125,0.671875,-0.109375
1665673592107,0.10913086,-0.98028564,0.09466553,-0.359375,-0.15625,0.078125
1665673592150,0.11743164,-0.9924927,0.1161499,0.9375,1.4375,0.328125
1665673592181,0.11376953,-0.9824829,0.098083496,0.578125,-0.59375,0.078125
1665673592225,0.11669922,-0.9993286,0.117370605,0.015625,0.265625,-0.078125
1665673592271,0.11401367,-0.9866333,0.09515381,-0.609375,0.9375,0.0625
1665673592301,0.12036133,-0.97906494,0.10467529,0.375,-0.296875,-0.25
1665673592346,0.11279297,-0.99713135,0.10003662,-0.25,0.390625,-0.125
1665673592392,0.11450195,-0.9885864,0.10809326,0.21875,0.96875,0.09375
1665673592423,0.11669922,-0.9859009,0.11077881,0.09375,0.046875,-0.046875
1665673592466,0.115478516,-0.99346924,0.10687256,0.171875,0.203125,-0.015625
1665673592512,0.107177734,-0.9939575,0.1071167,-0.34375,0.609375,0.078125
1665673592541,0.12060547,-0.98565674,0.09954834,-0.046875,0.265625,-0.28125
1665673592586,0.11230469,-0.9932251,0.10418701,-0.296875,0.5625,-0.140625
1665673592646,0.10961914,-0.98931885,0.10736084,-0.09375,0.578125,0.0
1665673592661,0.114746094,-0.99542236,0.0993042,-0.03125,0.125,0.046875
1665673592705,0.11376953,-0.97979736,0.10369873,0.375,0.515625,-0.015625
1665673592737,0.1159668,-0.9854126,0.10076904,-0.3125,0.34375,0.046875
1665673592781,0.12036133,-0.9885864,0.11029053,0.078125,0.46875,0.109375
1665673592826,0.11425781,-0.9890747,0.101501465,0.09375,0.28125,-0.140625
1665673592856,0.11450195,-0.98883057,0.11053467,-0.390625,0.265625,-0.140625
1665673592901,0.107910156,-0.9883423,0.1149292,0.546875,0.734375,0.328125
1665673592946,0.11694336,-0.9819946,0.09661865,0.1875,-0.4375,-0.03125
1665673592976,0.1237793,-1.0012817,0.109802246,-0.140625,0.421875,-0.03125
1665673593021,0.11401367,-0.98638916,0.10394287,-0.125,0.578125,0.234375
1665673593066,0.11743164,-0.9915161,0.10687256,0.09375,0.453125,0.171875
1665673593096,0.111572266,-0.9871216,0.11077881,-0.09375,0.046875,-0.0625
1665673593141,0.11767578,-0.9890747,0.11199951,0.0,0.0,0.234375
1665673593186,0.118896484,-0.9841919,0.11077881,-0.15625,0.78125,-0.0625
1665673593216,0.114746094,-0.9800415,0.10491943,0.421875,0.296875,0.0625
1665673593261,0.11376953,-0.99176025,0.105895996,-0.34375,0.53125,0.109375
1665673593306,0.111083984,-0.98443604,0.10882568,-0.046875,0.59375,0.09375
1665673593336,0.11767578,-0.98516846,0.10491943,-0.09375,0.0625,-0.09375
1665673593381,0.109375,-0.9793091,0.10760498,0.015625,0.78125,-0.125
1665673593426,0.1105957,-0.9854126,0.113220215,-0.296875,0.03125,0.0625
1665673593456,0.11254883,-0.9866333,0.10736084,0.421875,0.8125,0.15625
1665673593501,0.11791992,-0.98101807,0.11199951,-0.09375,0.0,-0.015625
1665673593546,0.114990234,-0.99005127,0.11102295,0.171875,0.46875,0.0625
1665673593576,0.11669922,-0.9812622,0.10491943,0.296875,0.125,0.109375
1665673593621,0.11743164,-0.99468994,0.101501465,-0.25,0.140625,0.09375
1665673593666,0.1171875,-0.9961548,0.113464355,0.171875,0.03125,0.078125
1665673593696,0.11206055,-0.99102783,0.109069824,0.03125,0.96875,0.390625
1665673593741,0.12084961,-0.9849243,0.10028076,0.171875,-0.6875,-0.078125
1665673593786,0.10644531,-1.0007935,0.1227417,-0.25,1.21875,-0.078125
1665673593816,0.115478516,-0.97540283,0.10662842,-0.4375,0.46875,0.078125
1665673593861,0.11743164,-0.98687744,0.10858154,0.265625,0.703125,-0.09375
1665673593891,0.115478516,-0.98883057,0.11151123,0.4375,0.453125,-0.015625
1665673593936,0.115478516,-1.0003052,0.117614746,0.375,0.609375,0.328125
1665673593981,0.118896484,-0.99102783,0.11004639,-0.0625,0.4375,-0.140625
1665673594010,0.1159668,-0.98638916,0.11785889,0.265625,-0.15625,-0.078125
1665673594056,0.119140625,-0.9939575,0.10662842,-0.296875,0.640625,0.21875
1665673594101,0.118896484,-0.9849243,0.10784912,-0.1875,-0.203125,-0.171875
1665673594131,0.11621094,-0.98931885,0.11419678,0.109375,0.03125,-0.109375
1665673594176,0.11303711,-0.987854,0.109313965,-0.34375,0.203125,-0.078125
1665673594222,0.11767578,-0.98028564,0.113464355,0.203125,0.125,-0.21875
1665673594251,0.11816406,-0.9932251,0.112976074,-0.1875,0.25,-0.140625
1665673594297,0.11279297,-0.987854,0.11834717,-0.09375,0.78125,-0.078125
1665673594341,0.11743164,-0.989563,0.109558105,-0.3125,0.21875,-0.21875
1665673594371,0.11767578,-0.9788208,0.1161499,-0.046875,0.375,-0.171875
1665673594416,0.11621094,-0.9932251,0.11053467,-0.171875,-0.03125,-0.03125
1665673594461,0.12036133,-0.98394775,0.11517334,-0.15625,0.734375,-0.34375
1665673594493,0.109375,-0.99420166,0.121276855,0.5,0.25,0.25
1665673594536,0.12011719,-0.9812622,0.105407715,-0.265625,-0.0625,-0.28125
1665673594581,0.11303711,-0.99224854,0.12591553,-0.140625,0.40625,-0.453125
1665673594610,0.11645508,-0.98687744,0.10662842,-0.375,0.71875,0.046875
1665673594671,0.11035156,-0.98223877,0.121032715,-0.0625,0.4375,-0.140625
1665673594701,0.11767578,-0.9849243,0.11004639,0.796875,0.015625,-0.234375
1665673594731,0.114990234,-0.99346924,0.11419678,0.171875,0.078125,0.0625
1665673594776,0.11621094,-0.9819946,0.11468506,0.109375,0.53125,0.0
1665673594821,0.10986328,-0.9849243,0.11907959,0.5625,-0.015625,0.0
1665673594851,0.11254883,-0.98223877,0.109313965,-0.28125,-0.046875,-0.0625
1665673594896,0.114990234,-0.9812622,0.11077881,0.28125,0.484375,0.125
1665673594928,0.115722656,-0.9871216,0.112976074,0.328125,-0.015625,0.1875
1665673594971,0.11767578,-0.9859009,0.113708496,0.25,0.28125,-0.015625
1665673595016,0.111816406,-0.98760986,0.11517334,0.40625,0.125,0.1875
1665673595046,0.114990234,-0.9837036,0.10809326,0.390625,0.515625,0.171875
1665673595091,0.11376953,-0.9898071,0.11077881,0.484375,0.21875,0.140625
1665673595136,0.11621094,-0.986145,0.109802246,0.3125,0.171875,0.375
1665673595166,0.1105957,-0.98028564,0.109558105,0.890625,0.171875,0.203125
1665673595211,0.107421875,-0.9866333,0.11004639,0.515625,0.34375,0.234375
1665673595256,0.11767578,-0.98394775,0.117614746,0.453125,0.0625,0.296875
1665673595286,0.111816406,-0.98516846,0.10882568,0.046875,0.03125,0.1875
1665673595332,0.111328125,-0.9883423,0.117370605,0.90625,0.359375,0.234375
1665673595376,0.12060547,-0.9841919,0.09954834,0.578125,-0.078125,0.484375
1665673595405,0.12109375,-1.0037231,0.11517334,0.375,-0.328125,-0.25
1665673595450,0.1081543,-0.9846802,0.11029053,-0.4375,0.921875,0.109375
1665673595496,0.1184082,-0.9824829,0.10809326,0.53125,0.15625,0.265625
1665673595525,0.12182617,-0.9915161,0.113464355,0.109375,0.671875,-0.34375
1665673595571,0.110839844,-0.9915161,0.105895996,0.390625,0.203125,0.421875
1665673595616,0.119140625,-0.9795532,0.109313965,0.484375,0.1875,0.0625
1665673595645,0.118896484,-0.99005127,0.11248779,0.46875,0.5625,0.015625
1665673595691,0.11767578,-0.99298096,0.10809326,0.359375,0.171875,-0.234375
1665673595736,0.10986328,-0.9866333,0.10223389,-0.375,0.546875,0.203125
1665673595765,0.12207031,-0.989563,0.105651855,0.078125,0.328125,-0.15625
1665673595811,0.12011719,-0.986145,0.11224365,0.109375,0.53125,0.0
1665673595887,0.11694336,-0.98272705,0.11224365,-0.34375,0.4375,-0.03125
1665673595890,0.11767578,-0.9834595,0.10809326,0.0625,0.171875,-0.078125
1665673595932,0.11303711,-0.98443604,0.11541748,-0.09375,0.671875,-0.09375
1665673595977,0.11743164,-0.9883423,0.1071167,0.203125,-0.453125,-0.171875
1665673596006,0.12646484,-0.99420166,0.1005249,-0.171875,0.578125,-0.203125
1665673596051,0.10961914,-0.98516846,0.11224365,0.515625,0.703125,0.03125
1665673596081,0.11694336,-0.98443604,0.11151123,-0.125,-0.125,0.0625
1665673596126,0.11694336,-0.9854126,0.11468506,-0.421875,0.546875,-0.21875
1665673596171,0.11816406,-0.986145,0.10638428,0.453125,0.09375,0.046875
1665673596202,0.11987305,-0.9834595,0.11102295,0.296875,0.53125,-0.28125
1665673596246,0.111328125,-0.98516846,0.10736084,0.015625,0.328125,0.328125
1665673596291,0.12475586,-0.9915161,0.1071167,0.25,-0.484375,-0.15625
1665673596323,0.10571289,-0.98883057,0.116882324,-0.296875,1.15625,-0.125
1665673596367,0.11254883,-0.97906494,0.109558105,-0.609375,0.78125,-0.09375
1665673596411,0.11791992,-0.9873657,0.11981201,-0.15625,0.265625,-0.03125
1665673596441,0.123535156,-0.9866333,0.1071167,0.0625,0.28125,-0.078125
1665673596487,0.11816406,-0.991272,0.1161499,0.203125,1.03125,0.171875
1665673596531,0.12036133,-0.9854126,0.113708496,0.4375,0.09375,0.21875
1665673596561,0.119628906,-0.98883057,0.11517334,0.0,0.453125,-0.125
1665673596606,0.11401367,-0.9871216,0.11102295,-0.015625,-0.28125,0.25
1665673596651,0.12158203,-0.9849243,0.10223389,0.0625,0.421875,0.109375
1665673596681,0.111572266,-0.9837036,0.11053467,-0.046875,0.53125,-0.125
1665673596727,0.11254883,-0.9846802,0.11859131,-0.734375,0.65625,0.078125
1665673596772,0.1262207,-0.98565674,0.112976074,0.09375,0.609375,0.046875
1665673596801,0.11791992,-0.9890747,0.105651855,-0.0625,-0.125,-0.046875
1665673596846,0.11206055,-0.9944458,0.11932373,-0.453125,0.84375,0.078125
1665673596891,0.11791992,-0.987854,0.10736084,-0.03125,-0.015625,0.078125
1665673596921,0.1171875,-0.99005127,0.113464355,0.109375,0.171875,-0.234375
1665673596967,0.11328125,-0.9898071,0.11834717,-0.3125,0.375,-0.1875
1665673597011,0.107666016,-0.9788208,0.11566162,-0.234375,0.265625,0.0
1665673597041,0.119140625,-0.9939575,0.113464355,-0.015625,0.09375,-0.25
1665673597087,0.11425781,-0.9817505,0.11590576,0.171875,0.0625,-0.1875
1665673597116,0.115234375,-0.99835205,0.12713623,0.1875,0.40625,0.09375
1665673597161,0.111083984,-0.97979736,0.10882568,0.03125,0.5,-0.078125
1665673597207,0.12695312,-1.0046997,0.11004639,0.171875,-0.828125,-0.328125
1665673597236,0.11279297,-0.986145,0.12615967,-0.296875,1.109375,-0.296875
1665673597281,0.11767578,-0.97735596,0.109313965,-0.015625,0.265625,0.21875
1665673597327,0.122802734,-0.98223877,0.1239624,0.71875,0.15625,-0.21875
1665673597356,0.11352539,-0.9937134,0.11248779,0.515625,0.421875,0.140625
1665673597401,0.114746094,-0.9915161,0.117126465,0.4375,0.40625,0.0625
1665673597446,0.12109375,-0.9915161,0.109802246,-0.203125,0.421875,-0.15625
1665673597476,0.11328125,-0.9837036,0.11932373,0.703125,-0.203125,-0.09375
1665673597521,0.11401367,-0.9907837,0.11395264,0.265625,0.359375,-0.046875
1665673597565,0.11279297,-0.987854,0.10784912,-0.125,0.453125,-0.21875
1665673597596,0.12011719,-0.9780884,0.11810303,0.515625,0.078125,0.046875
1665673597641,0.10864258,-0.9932251,0.11102295,0.109375,0.578125,-0.328125
1665673597701,0.10498047,-0.9907837,0.121032715,0.328125,0.328125,0.0
1665673597716,0.119628906,-0.98272705,0.10736084,0.5,0.078125,-0.21875
1665673597762,0.118652344,-0.9859009,0.116882324,0.0625,0.421875,-0.359375
1665673597806,0.107177734,-0.99176025,0.11663818,0.09375,0.296875,0.0
1665673597835,0.11816406,-0.9883423,0.11468506,-0.296875,-0.1875,-0.28125
1665673597881,0.1159668,-0.98687744,0.11590576,0.203125,0.125,-0.171875
1665673597926,0.11035156,-0.9902954,0.11273193,0.078125,0.109375,-0.109375
1665673597957,0.106933594,-0.9859009,0.11566162,0.0625,-0.375,-0.046875
1665673598001,0.10839844,-0.9961548,0.11273193,0.4375,0.34375,-0.125
1665673598046,0.111328125,-0.9829712,0.11981201,0.578125,0.28125,0.125
1665673598076,0.122558594,-0.99713135,0.11590576,1.28125,-1.265625,0.09375
1665673598121,0.11010742,-0.9907837,0.113220215,-0.46875,0.90625,-0.1875
1665673598150,0.11303711,-0.9780884,0.10809326,0.1875,0.75,0.125
1665673598196,0.11401367,-0.9859009,0.11810303,0.71875,0.296875,0.0625
1665673598241,0.111572266,-0.99176025,0.11077881,0.265625,0.03125,0.015625
1665673598271,0.11621094,-0.9924927,0.11273193,0.359375,0.234375,0.34375
1665673598316,0.111816406,-0.9885864,0.11248779,0.859375,0.578125,0.015625
1665673598361,0.104003906,-0.98394775,0.11883545,0.375,-0.09375,0.078125
1665673598393,0.11254883,-0.99053955,0.10858154,0.375,0.109375,0.234375
1665673598436,0.12060547,-0.98883057,0.10784912,-0.296875,0.5,-0.046875
1665673598482,0.114990234,-0.9776001,0.11248779,0.65625,0.140625,-0.09375
1665673598511,0.111816406,-1.0005493,0.11248779,-0.21875,0.234375,0.1875
1665673598556,0.11791992,-0.97979736,0.10858154,0.21875,0.171875,-0.078125
1665673598601,0.107666016,-0.9920044,0.11639404,-0.109375,0.515625,-0.03125
1665673598631,0.11303711,-0.97491455,0.10467529,-0.046875,0.03125,0.046875
1665673598676,0.11816406,-0.9885864,0.10784912,-0.625,0.46875,-0.078125
1665673598721,0.11328125,-0.9846802,0.113220215,-0.28125,0.265625,0.03125
1665673598751,0.11645508,-0.9944458,0.120788574,0.015625,0.328125,0.0625
1665673598796,0.1081543,-0.99176025,0.11590576,-0.28125,0.125,0.03125
1665673598841,0.10961914,-0.9834595,0.11053467,-0.203125,0.0625,0.078125
1665673598871,0.123535156,-0.98272705,0.12176514,-0.125,0.34375,0.171875
1665673598916,0.11206055,-0.9873657,0.101501465,-0.21875,1.0625,0.234375
1665673598962,0.1171875,-0.9998169,0.11444092,0.03125,-0.546875,-0.046875
1665673599006,0.111328125,-0.9883423,0.11907959,-0.28125,1.265625,0.015625
1665673599036,0.11230469,-0.986145,0.11053467,-0.65625,0.53125,0.0
1665673599081,0.11645508,-0.987854,0.11785889,-0.21875,0.171875,-0.15625
1665673599110,0.107421875,-0.9907837,0.11883545,-0.234375,0.765625,0.046875
1665673599156,0.11010742,-0.98321533,0.12298584,0.609375,0.234375,0.296875
1665673599201,0.1237793,-0.9866333,0.112976074,-0.078125,0.515625,-0.046875
1665673599231,0.107910156,-0.99102783,0.121276855,-0.15625,0.40625,-0.15625
1665673599277,0.11621094,-0.9873657,0.11126709,0.0625,-0.171875,-0.015625
1665673599306,0.1159668,-0.9885864,0.11395264,0.03125,0.640625,-0.171875
1665673599351,0.11035156,-0.9834595,0.11639404,-0.234375,0.546875,0.09375
1665673599396,0.11767578,-0.99420166,0.11541748,-0.0625,0.265625,-0.015625
1665673599426,0.115478516,-0.98687744,0.11859131,-0.125,0.15625,-0.03125
1665673599472,0.11425781,-0.98760986,0.1227417,-0.21875,0.5625,0.0
1665673599515,0.11376953,-0.9890747,0.121276855,-0.21875,0.46875,-0.046875
1665673599544,0.11010742,-0.98394775,0.11810303,-0.0625,0.46875,-0.09375
