# Sensor type: Respeck
# Activity type: Climbing stairs
# Activity code: 12
# Subject id: s1800825
# Notes: 
timestamp,accel_x,accel_y,accel_z,gyro_x,gyro_y,gyro_z
1664563737784,-0.4987793,-0.8345337,0.28289795,1.484375,0.671875,0.359375
1664563737831,-0.5019531,-0.8399048,0.3060913,2.171875,0.109375,0.421875
1664563737859,-0.4716797,-0.8389282,0.26898193,1.6875,-0.546875,0.671875
1664563737905,-0.4946289,-0.85284424,0.28460693,0.671875,0.703125,1.203125
1664563737950,-0.47558594,-0.8447876,0.30096436,2.5625,-1.796875,1.09375
1664563737979,-0.45581055,-0.85284424,0.291687,2.203125,-0.3125,1.421875
1664563738025,-0.45654297,-0.8574829,0.2994995,2.15625,-2.5625,1.96875
1664563738069,-0.44726562,-0.8538208,0.28704834,1.046875,0.21875,2.703125
1664563738099,-0.46240234,-0.8435669,0.3102417,0.296875,-2.375,2.359375
1664563738144,-0.43920898,-0.86431885,0.27923584,1.015625,-3.15625,3.875
1664563738177,-0.5136719,-0.8406372,0.27850342,0.65625,0.71875,1.328125
1664563738219,-0.45629883,-0.8574829,0.23382568,2.75,0.109375,1.5625
1664563738265,-0.48046875,-0.85162354,0.26776123,-1.3125,-4.578125,1.984375
1664563738294,-0.5275879,-0.83721924,0.1984253,1.984375,-3.234375,1.171875
1664563738341,-0.5214844,-0.85113525,0.22698975,4.796875,-1.28125,0.734375
1664563738385,-0.5270996,-0.89678955,0.15863037,9.65625,6.15625,1.96875
1664563738415,-0.45874023,-0.8479614,0.23602295,2.59375,-1.296875,3.625
1664563738459,-0.5637207,-0.7991333,0.29925537,2.53125,1.46875,3.390625
1664563738535,-0.5415039,-0.8423462,0.24090576,5.734375,4.265625,5.75
1664563738537,-0.4790039,-0.8948364,0.15203857,12.5,0.171875,7.203125
1664563738580,-0.44335938,-0.88946533,0.25726318,3.28125,-4.6875,6.046875
1664563738611,-0.48706055,-0.84332275,0.2880249,9.765625,-0.890625,3.625
1664563738655,-0.46362305,-0.84576416,0.23724365,11.625,0.109375,5.765625
1664563738700,-0.43310547,-0.8308716,0.22113037,7.46875,-2.0625,3.71875
1664563738730,-0.4650879,-0.8623657,0.24017334,9.59375,-1.578125,4.359375
1664563738776,-0.46069336,-0.8779907,0.24139404,8.125,-3.140625,4.65625
1664563738820,-0.4482422,-0.8945923,0.20916748,7.703125,-3.328125,4.296875
1664563738850,-0.42358398,-0.88726807,0.199646,5.65625,-1.890625,4.03125
1664563738896,-0.44360352,-0.8743286,0.25506592,1.390625,-6.1875,2.6875
1664563738924,-0.52075195,-0.87701416,0.20428467,0.921875,-5.09375,1.9375
1664563738971,-0.44091797,-0.92852783,0.20013428,4.125,-5.09375,3.40625
1664563739015,-0.4880371,-0.9685669,0.16986084,-2.171875,-11.453125,2.46875
1664563739045,-0.54663086,-0.9619751,0.20037842,-5.4375,-12.171875,-0.015625
1664563739090,-0.5908203,-0.98638916,0.24627686,0.3125,-7.75,-0.875
1664563739135,-0.51660156,-0.9692993,0.08270264,3.015625,3.046875,-0.5625
1664563739164,-0.3894043,-1.164856,0.18890381,2.90625,-6.046875,7.59375
1664563739210,-0.4494629,-1.1677856,0.14251709,-4.078125,-16.984375,7.203125
1664563739255,-0.47827148,-1.0230103,0.002380371,-4.734375,-1.921875,-1.140625
1664563739285,-0.28808594,-1.0369263,-0.07623291,1.46875,-7.28125,7.453125
1664563739330,-0.24047852,-1.0098267,0.02947998,5.171875,-2.0625,9.625
1664563739360,-0.3251953,-0.89971924,0.062438965,-8.28125,-0.734375,5.34375
1664563739405,-0.34057617,-0.8755493,0.11981201,-9.125,1.546875,3.0
1664563739450,-0.2565918,-0.7866821,0.04827881,0.390625,4.625,2.3125
1664563739480,-0.22680664,-0.7913208,0.07684326,2.421875,2.40625,4.5
1664563739525,-0.24145508,-0.800354,0.08905029,-0.796875,3.8125,4.953125
1664563739570,-0.28271484,-0.81451416,0.11444092,0.40625,2.609375,2.859375
1664563739600,-0.30493164,-0.8689575,0.1461792,0.8125,2.109375,3.046875
1664563739646,-0.31274414,-0.8904419,0.12030029,2.375,2.828125,3.34375
1664563739676,-0.31079102,-0.8755493,0.13250732,6.65625,3.515625,3.375
1664563739721,-0.27783203,-0.94488525,0.16864014,5.5625,1.890625,3.5625
1664563739765,-0.2998047,-0.95977783,0.18914795,1.453125,-1.703125,1.46875
1664563739795,-0.34472656,-0.9089966,0.19525146,0.84375,1.390625,0.8125
1664563739840,-0.27172852,-0.92559814,0.16888428,3.59375,-0.390625,0.671875
1664563739886,-0.37060547,-0.9451294,0.30706787,-2.6875,9.5625,-5.0
1664563739917,-0.40063477,-0.93341064,0.20599365,-3.3125,11.703125,-7.5
1664563739960,-0.24731445,-1.3494263,0.1071167,17.84375,4.96875,5.53125
1664563740005,-0.4663086,-1.2703247,0.22943115,-11.5,5.359375,-8.90625
1664563740034,-0.46166992,-1.2398071,0.04901123,-2.6875,0.875,-0.359375
1664563740080,-0.38305664,-1.0567017,-0.0095825195,-4.484375,11.109375,-1.078125
1664563740110,-0.21875,-0.927063,-0.074523926,14.21875,16.765625,1.203125
1664563740155,-0.26904297,-1.039856,-0.124572754,10.265625,3.96875,-0.984375
1664563740200,-0.45336914,-0.95391846,0.11566162,-11.28125,-13.0,-2.015625
1664563740231,-0.39038086,-0.8870239,0.06878662,6.3125,7.203125,-4.671875
1664563740276,-0.27197266,-0.8069458,0.074401855,5.09375,-1.1875,-5.859375
1664563740320,-0.24365234,-0.7461548,0.06781006,6.28125,-5.71875,-4.3125
1664563740352,-0.28515625,-0.6836548,0.066345215,2.046875,-6.921875,-2.8125
1664563740395,-0.37304688,-0.7136841,0.08050537,1.6875,-3.546875,-3.28125
1664563740428,-0.40063477,-0.7739868,0.014587402,6.671875,6.640625,-0.921875
1664563740470,-0.32910156,-0.88897705,0.043395996,0.21875,-2.140625,1.265625
1664563740515,-0.40454102,-0.93585205,0.12640381,-3.25,0.3125,1.171875
1664563740545,-0.4013672,-0.9224243,0.0993042,-8.546875,-1.703125,-1.59375
1664563740590,-0.4633789,-0.8897095,0.15814209,-3.40625,-2.765625,-2.484375
1664563740635,-0.42041016,-0.9312134,0.113220215,5.640625,8.5625,-1.703125
1664563740665,-0.44091797,-0.91973877,0.1317749,-7.828125,-9.578125,-5.796875
1664563740710,-0.5678711,-0.8599243,0.22576904,-2.125,10.53125,-9.890625
1664563740740,-0.5192871,-1.1514282,0.12249756,5.96875,9.171875,-4.75
1664563740786,-0.31225586,-1.1604614,0.13665771,0.078125,-1.046875,2.140625
1664563740830,-0.55981445,-0.96832275,0.23602295,-24.25,-17.484375,-2.78125
1664563740860,-0.57666016,-1.1621704,0.21185303,-6.90625,6.078125,-6.875
1664563740905,-0.36376953,-1.1157837,0.044128418,12.34375,20.78125,-6.984375
1664563740950,-0.2006836,-1.0391235,-0.13165283,9.53125,2.59375,0.828125
1664563740980,-0.3527832,-0.9607544,0.04095459,-21.578125,-25.5,11.34375
1664563741026,-0.4074707,-0.8171997,0.14837646,2.0625,11.140625,2.890625
1664563741070,-0.26635742,-0.96759033,0.03363037,19.390625,9.84375,6.71875
1664563741100,-0.24951172,-0.9727173,0.12860107,-12.953125,-18.0,12.796875
1664563741145,-0.39746094,-0.5911255,0.23651123,-4.734375,-2.0625,4.0
1664563741175,-0.25390625,-0.77178955,0.010681152,28.859375,18.21875,9.328125
1664563741221,-0.20336914,-0.7937622,0.08538818,-9.03125,-16.046875,10.90625
1664563741266,-0.29907227,-0.77471924,0.16864014,6.453125,6.59375,6.296875
1664563741298,-0.28100586,-0.8364868,0.124938965,1.953125,-2.40625,3.640625
1664563741340,-0.33569336,-0.9685669,0.14886475,8.609375,3.71875,2.5
1664563741385,-0.36010742,-0.9360962,0.16888428,-3.0625,-4.046875,4.53125
1664563741415,-0.28759766,-0.9043579,0.14447021,19.078125,8.8125,3.65625
1664563741461,-0.25854492,-0.98321533,0.124938965,-1.609375,-8.46875,4.203125
1664563741490,-0.3708496,-0.83477783,0.20404053,4.109375,0.359375,1.75
1664563741536,-0.2626953,-1.0632935,0.15740967,19.671875,13.140625,0.71875
1664563741580,-0.3005371,-1.1167603,0.07269287,-1.75,-6.8125,2.46875
1664563741610,-0.44384766,-1.2510376,0.39398193,-0.8125,15.84375,-9.0625
1664563741655,-0.26098633,-1.3347778,-0.0491333,5.75,15.390625,-3.515625
1664563741700,-0.37158203,-1.3399048,0.11102295,-13.109375,-5.34375,-6.6875
1664563741730,-0.46240234,-0.8882446,-0.03765869,-7.65625,20.234375,-4.921875
1664563741775,-0.14477539,-0.8440552,-0.16827393,30.265625,26.40625,-1.84375
1664563741821,-0.20581055,-1.1060181,-0.21710205,-10.953125,-18.5,-3.546875
1664563741850,-0.38623047,-0.8399048,0.15057373,-21.859375,-16.15625,-2.8125
1664563741896,-0.31958008,-0.8574829,-0.023742676,7.15625,12.28125,-7.65625
1664563741925,-0.3010254,-0.7625122,0.021911621,-11.6875,-16.015625,-6.90625
1664563741971,-0.29638672,-0.73028564,0.06878662,8.875,5.734375,-6.5625
1664563742015,-0.25439453,-0.7962036,-0.004211426,0.96875,-7.546875,-3.09375
1664563742045,-0.3347168,-0.7769165,0.07366943,-4.8125,-10.171875,0.125
1664563742090,-0.38427734,-0.81451416,0.074157715,-5.546875,-4.953125,-0.25
1664563742135,-0.39770508,-0.88604736,0.11004639,-2.140625,-3.046875,0.90625
1664563742166,-0.375,-0.89508057,0.10345459,-0.046875,-1.6875,1.59375
1664563742210,-0.39257812,-0.8748169,0.14202881,-2.0625,-8.21875,1.25
1664563742242,-0.4255371,-0.8748169,0.16473389,-0.359375,-4.21875,-1.140625
1664563742285,-0.48413086,-0.9170532,0.1671753,-1.21875,-0.234375,-2.953125
1664563742331,-0.47924805,-0.9522095,0.12591553,-1.671875,-5.53125,-1.75
1664563742360,-0.48046875,-0.9834595,0.1281128,-9.203125,-4.5625,-7.203125
1664563742405,-0.5671387,-1.0813599,0.23773193,-10.109375,-4.453125,-6.5625
1664563742451,-0.5366211,-1.1836548,0.10418701,0.109375,5.9375,-6.40625
1664563742480,-0.47314453,-1.2825317,0.14837646,4.171875,0.40625,-5.203125
1664563742525,-0.5175781,-1.2210083,0.14788818,0.46875,10.296875,-9.1875
1664563742571,-0.32641602,-0.9468384,0.012145996,2.171875,17.75,-5.234375
1664563742600,-0.27661133,-0.862854,-0.044006348,0.65625,2.0,4.296875
1664563742645,-0.29516602,-1.0059204,0.058776855,-0.234375,3.734375,4.0
1664563742676,-0.37426758,-0.83135986,0.14544678,-11.421875,-2.515625,4.109375
1664563742720,-0.33666992,-0.9365845,0.1227417,4.921875,11.921875,9.953125
1664563742766,-0.24951172,-0.647522,-7.9345703E-4,-9.921875,-1.828125,9.71875
1664563742795,-0.31396484,-0.6465454,0.20819092,-4.125,-21.25,6.53125
1664563742841,-0.3034668,-0.69610596,0.19451904,14.890625,17.75,5.921875
1664563742886,-0.24902344,-0.77349854,0.070251465,8.578125,15.421875,1.671875
1664563742916,-0.30395508,-0.86187744,0.1317749,5.78125,2.046875,1.296875
1664563742960,-0.33398438,-0.8977661,0.2177124,5.5,-4.09375,6.234375
1664563742991,-0.34326172,-0.9500122,0.12957764,5.859375,10.84375,0.625
1664563743036,-0.33325195,-0.8987427,0.21624756,6.390625,2.421875,2.375
1664563743080,-0.33374023,-0.8911743,0.1852417,7.6875,2.9375,3.46875
1664563743110,-0.34985352,-0.909729,0.21502686,5.984375,3.796875,4.328125
1664563743156,-0.3178711,-1.0108032,0.19671631,5.890625,5.625,1.21875
1664563743201,-0.39086914,-1.0623169,0.24212646,2.359375,2.9375,1.546875
1664563743230,-0.3894043,-1.1506958,0.19622803,4.078125,7.375,-2.0
1664563743275,-0.3725586,-1.5049438,0.16668701,4.703125,7.40625,-0.84375
1664563743305,-0.4741211,-1.3086548,0.15350342,-17.015625,-2.53125,-9.65625
1664563743351,-0.35742188,-1.0264282,-0.07598877,8.765625,21.984375,-1.109375
1664563743396,-0.18701172,-0.7991333,-0.10015869,22.03125,17.765625,0.0625
1664563743425,-0.20288086,-1.0974731,-0.20074463,28.125,9.265625,-2.09375
1664563743470,-0.46289062,-0.88531494,0.05291748,-43.984375,-54.90625,3.46875
1664563743515,-0.38671875,-0.73809814,0.29486084,14.4375,11.609375,-6.171875
1664563743545,-0.19799805,-0.79766846,-0.11114502,22.328125,25.125,-8.84375
1664563743590,-0.32421875,-0.73760986,0.05609131,-22.3125,-29.03125,-6.625
1664563743636,-0.2915039,-0.73321533,0.10809326,9.671875,14.90625,-9.484375
1664563743666,-0.27270508,-0.8015747,-0.03326416,-2.625,-4.203125,-5.265625
1664563743711,-0.36865234,-0.81622314,0.08660889,-7.765625,-0.328125,-4.09375
1664563743740,-0.35742188,-0.88238525,0.073913574,-4.390625,-4.90625,-2.078125
1664563743786,-0.4111328,-0.8831177,0.13421631,-8.453125,-8.171875,-2.625
1664563743831,-0.4482422,-0.91900635,0.11151123,-5.21875,-4.375,-3.390625
1664563743860,-0.44433594,-0.9524536,0.070495605,2.984375,-3.671875,-2.828125
1664563743906,-0.51953125,-1.0012817,0.15570068,-8.6875,-9.34375,-3.890625
1664563743951,-0.50268555,-1.0637817,0.17474365,-4.734375,-6.3125,-2.203125
1664563743980,-0.49804688,-1.0896606,0.14422607,-12.921875,-12.390625,-1.0625
1664563744026,-0.592041,-1.1885376,0.1329956,-11.15625,-4.671875,-6.328125
1664563744055,-0.4230957,-1.3491821,0.08123779,18.15625,4.9375,1.390625
1664563744100,-0.30932617,-0.9011841,-0.08673096,13.953125,30.953125,-3.296875
1664563744146,-0.34155273,-0.8245239,-0.050109863,-8.703125,-10.53125,2.609375
1664563744175,-0.33740234,-0.92144775,0.09954834,-0.703125,-19.515625,1.5
1664563744220,-0.42260742,-0.89556885,0.10076904,1.765625,25.359375,3.34375
1664563744265,-0.31323242,-0.86138916,0.097351074,8.21875,18.28125,4.34375
1664563744296,-0.25341797,-0.76568604,0.04144287,5.59375,20.890625,7.09375
1664563744341,-0.30737305,-0.786438,0.06072998,-0.71875,-3.96875,8.75
1664563744385,-0.29370117,-0.6638794,0.12860107,-9.34375,-9.796875,7.890625
1664563744416,-0.3076172,-0.7444458,0.13568115,16.375,1.09375,-2.890625
1664563744461,-0.30786133,-0.9356079,0.10784912,4.328125,5.484375,-2.171875
1664563744491,-0.29663086,-0.850647,0.07684326,-1.03125,-1.046875,2.75
1664563744535,-0.36987305,-0.9158325,0.13201904,2.46875,-13.21875,0.15625
1664563744582,-0.4025879,-0.96417236,0.13250732,-8.46875,-25.828125,2.03125
1664563744610,-0.3798828,-0.9109497,0.20916748,-7.609375,-12.421875,2.59375
1664563744656,-0.40356445,-0.940979,0.22454834,5.8125,5.21875,1.8125
1664563744700,-0.37109375,-0.9883423,0.15765381,4.140625,7.984375,0.25
1664563744730,-0.39794922,-0.94073486,0.20111084,3.15625,7.84375,-0.359375
1664563744777,-0.35766602,-0.97247314,0.21844482,2.65625,9.578125,-2.84375
1664563744805,-0.4272461,-1.2498169,0.109558105,-0.125,5.203125,2.078125
1664563744851,-0.4946289,-1.0835571,0.1618042,-12.515625,2.234375,-5.921875
1664563744896,-0.4453125,-1.2000122,0.11151123,7.0625,14.625,-4.609375
1664563744925,-0.42382812,-1.1572876,0.030944824,-3.9375,4.484375,-4.890625
1664563744972,-0.3701172,-0.8838501,0.06903076,-13.65625,11.109375,-5.890625
1664563745015,-0.31762695,-0.835022,0.012634277,12.84375,0.09375,4.859375
1664563745045,-0.24243164,-1.015686,-0.0635376,14.6875,19.59375,-3.3125
1664563745091,-0.3173828,-0.9902954,-0.05303955,-5.03125,-11.28125,0.203125
1664563745135,-0.42626953,-0.85821533,0.035583496,-18.515625,-37.90625,0.828125
1664563745165,-0.421875,-0.7498169,0.2682495,-32.84375,-37.75,-1.4375
1664563745211,-0.3947754,-0.694397,0.15960693,27.5,7.09375,-3.765625
1664563745240,-0.32470703,-0.8140259,0.06561279,5.515625,9.1875,-2.375
1664563745286,-0.3322754,-0.737854,0.062927246,2.9375,-11.421875,4.109375
1664563745331,-0.3803711,-0.76153564,0.13519287,-1.546875,-14.421875,5.625
1664563745361,-0.39575195,-0.831604,0.093688965,-4.046875,0.296875,-0.609375
1664563745406,-0.43066406,-0.9104614,0.06976318,-1.59375,-4.75,-1.265625
1664563745451,-0.43554688,-0.9343872,0.19622803,-0.65625,-15.234375,-4.390625
1664563745480,-0.43603516,-0.9446411,0.12567139,-2.734375,-1.0,-3.640625
1664563745526,-0.5324707,-0.9158325,0.17816162,-6.484375,-8.984375,-5.015625
1664563745556,-0.6184082,-0.98028564,0.1630249,-7.34375,1.0,-7.234375
1664563745601,-0.5354004,-1.1714478,0.13983154,-2.53125,-7.6875,-0.484375
1664563745646,-0.55200195,-1.1670532,0.18450928,-0.84375,-1.421875,-5.125
1664563745675,-0.5307617,-1.22052,0.11199951,-4.46875,-0.828125,-2.25
1664563745721,-0.38500977,-0.96343994,0.03265381,6.15625,15.171875,-4.0625
1664563745766,-0.3779297,-0.86187744,-0.05230713,0.15625,22.296875,2.546875
1664563745796,-0.3479004,-0.9295044,0.0053100586,12.203125,6.703125,0.03125
1664563745840,-0.34985352,-0.8699341,0.07611084,4.0625,9.3125,4.5
1664563745885,-0.33764648,-0.9055786,0.10003662,0.421875,6.125,3.75
1664563745916,-0.3095703,-0.7073364,0.1005249,-9.46875,-6.421875,12.859375
1664563745963,-0.26171875,-0.64019775,0.10638428,4.71875,13.6875,6.03125
1664563745991,-0.28442383,-0.784729,0.03729248,10.875,15.5,2.375
1664563746035,-0.33691406,-0.7617798,0.09637451,-10.234375,-2.9375,-1.390625
1664563746081,-0.3347168,-0.85894775,0.11077881,5.203125,-5.296875,-5.25
1664563746111,-0.3671875,-0.9348755,0.105895996,-15.328125,-22.25,2.5
1664563746156,-0.43432617,-0.9038696,0.28997803,14.53125,15.40625,3.0
1664563746201,-0.34033203,-0.9468384,0.12322998,5.71875,4.4375,3.28125
1664563746230,-0.3881836,-0.9805298,0.19329834,5.5,1.390625,1.40625
1664563746276,-0.42578125,-0.9795532,0.24627686,0.21875,6.828125,-2.984375
1664563746306,-0.4086914,-1.0383911,0.22064209,4.296875,7.09375,-3.46875
1664563746351,-0.5473633,-1.1340942,0.23651123,-4.078125,7.65625,-8.15625
1664563746395,-0.4020996,-1.1489868,0.05633545,2.953125,7.515625,-5.90625
1664563746426,-0.5012207,-1.2459106,0.121032715,-4.890625,5.4375,-0.421875
1664563746470,-0.39282227,-0.8687134,1.8310547E-4,1.40625,14.546875,1.640625
1664563746516,-0.15576172,-0.8308716,-0.030334473,13.96875,15.359375,1.234375
1664563746545,-0.4645996,-1.1104126,-0.06524658,11.109375,31.40625,-11.21875
1664563746591,-0.48364258,-0.9314575,-0.0134887695,-16.0,-40.125,5.828125
1664563746621,-0.33618164,-0.84625244,0.23944092,-21.484375,-37.9375,-0.6875
1664563746666,-0.43823242,-0.81622314,0.121032715,13.796875,6.796875,-4.328125
1664563746711,-0.35888672,-0.7161255,0.061462402,-3.09375,3.015625,-4.9375
1664563746740,-0.36157227,-0.68634033,0.070251465,10.578125,-14.875,-1.8125
1664563746785,-0.33398438,-0.75445557,0.112976074,-0.1875,-0.625,-3.828125
1664563746831,-0.39526367,-0.81988525,0.09515381,5.953125,4.171875,-2.59375
1664563746860,-0.40600586,-0.81988525,0.07928467,1.421875,0.90625,0.046875
1664563746906,-0.4724121,-0.8899536,0.09710693,-6.15625,-11.1875,-3.75
1664563746951,-0.46264648,-0.88409424,0.13665771,-4.609375,-13.390625,-2.09375
1664563746981,-0.5546875,-0.8887329,0.1293335,-8.375,-5.6875,-5.203125
1664563747026,-0.60302734,-0.97369385,0.16107178,-8.65625,-11.078125,-7.5625
1664563747055,-0.61743164,-0.9668579,0.24456787,-8.609375,-3.390625,-7.453125
1664563747101,-0.5378418,-1.1079712,0.15887451,-8.3125,2.125,-4.4375
1664563747146,-0.59350586,-1.1443481,0.17791748,-17.796875,-12.25,-2.03125
1664563747175,-0.6074219,-1.2036743,0.16888428,-2.859375,7.0625,-8.1875
1664563747220,-0.42749023,-0.98223877,0.0048217773,6.984375,15.859375,-4.0
1664563747266,-0.35498047,-0.81329346,-0.043762207,4.625,16.265625,7.8125
1664563747296,-0.34545898,-0.8633423,0.01361084,19.953125,-5.234375,5.734375
1664563747342,-0.35253906,-0.8777466,0.10369873,-0.125,-1.53125,6.234375
1664563747371,-0.44140625,-0.8621216,0.14935303,0.71875,-9.984375,6.875
1664563747415,-0.33544922,-0.7468872,0.17108154,-3.40625,-2.484375,14.40625
1664563747461,-0.31079102,-0.6939087,0.061706543,10.46875,17.421875,2.6875
1664563747491,-0.36767578,-0.8345337,0.09075928,2.578125,-7.75,4.859375
1664563747536,-0.39160156,-0.802063,0.15911865,-2.703125,-5.359375,3.34375
1664563747580,-0.38598633,-0.833313,0.15496826,4.015625,6.65625,-1.28125
1664563747611,-0.36694336,-0.88775635,0.15301514,2.5625,-0.171875,3.9375
1664563747655,-0.4321289,-0.8665161,0.17425537,-0.1875,0.28125,2.015625
1664563747702,-0.38549805,-0.90411377,0.11956787,8.78125,8.515625,1.421875
1664563747731,-0.31420898,-0.91607666,0.14300537,4.671875,-5.234375,7.09375
1664563747775,-0.41430664,-0.894104,0.24188232,0.328125,2.515625,1.6875
1664563747806,-0.41210938,-0.92193604,0.22698975,3.53125,4.421875,0.921875
1664563747851,-0.38720703,-0.96343994,0.14837646,-1.90625,6.578125,-2.65625
1664563747898,-0.44604492,-1.1277466,0.21063232,-5.390625,4.625,-6.75
1664563747925,-0.4650879,-1.2991333,0.13372803,2.796875,1.75,2.03125
1664563747971,-0.5437012,-1.2610474,0.1984253,-8.359375,4.03125,-6.0625
1664563748016,-0.4873047,-1.0913696,-0.0037231445,-9.71875,5.78125,-8.296875
1664563748046,-0.37841797,-0.6956177,0.054626465,-17.359375,10.984375,0.3125
1664563748091,-0.15673828,-0.8167114,-0.010559082,36.25,48.8125,-9.75
1664563748123,-0.4111328,-1.0530396,-0.12237549,18.375,57.875,-4.734375
1664563748166,-0.4645996,-0.8323364,-0.06549072,-10.15625,-22.5,4.125
1664563748211,-0.42749023,-0.835022,0.039978027,-17.578125,-80.578125,4.375
1664563748241,-0.52075195,-0.8994751,0.36541748,-43.28125,-55.21875,-0.171875
1664563748286,-0.36523438,-0.7666626,0.09710693,33.578125,24.65625,-6.546875
1664563748331,-0.3623047,-0.8154907,0.06707764,-0.828125,0.5,-2.421875
1664563748362,-0.40405273,-0.73101807,0.1005249,-2.296875,-18.0,2.0
1664563748406,-0.44628906,-0.7776489,0.15252686,-2.484375,-3.71875,-3.734375
1664563748451,-0.42895508,-0.87335205,0.12786865,4.96875,5.515625,-1.28125
1664563748480,-0.43066406,-0.8381958,0.09515381,-3.515625,-0.921875,0.296875
1664563748526,-0.49780273,-0.8245239,0.1149292,-4.5,-9.15625,-3.5
1664563748556,-0.4909668,-0.85723877,0.17669678,-2.34375,-7.34375,-3.03125
1664563748601,-0.55371094,-0.91534424,0.13543701,-6.71875,-1.25,-5.09375
1664563748646,-0.58081055,-0.94537354,0.15325928,-6.21875,-7.78125,-2.859375
1664563748675,-0.592041,-0.9834595,0.19573975,-2.046875,-2.34375,-1.390625
1664563748721,-0.5678711,-0.9595337,0.19110107,-12.15625,-0.265625,-1.296875
1664563748766,-0.545166,-1.1065063,0.19671631,-5.765625,-9.4375,-2.0625
1664563748799,-0.6455078,-1.1919556,0.21551514,-4.953125,4.53125,-5.890625
1664563748840,-0.52441406,-1.1091919,0.055358887,7.140625,10.84375,-6.46875
1664563748870,-0.2697754,-0.87506104,0.0079956055,6.640625,24.03125,1.6875
1664563748918,-0.39746094,-0.8308716,-0.020568848,8.1875,7.46875,5.09375
1664563748961,-0.3569336,-0.91119385,0.08319092,0.015625,-17.59375,3.921875
1664563748992,-0.38623047,-0.8640747,0.1395874,-0.53125,-0.5,5.734375
1664563749036,-0.45092773,-0.90338135,0.11981201,-9.046875,-8.8125,8.265625
1664563749083,-0.40771484,-0.69195557,0.15667725,5.90625,-1.390625,11.984375
1664563749110,-0.3251953,-0.74005127,0.09320068,9.953125,8.984375,6.28125
1664563749156,-0.3334961,-0.71954346,0.12249756,7.78125,-2.484375,4.5625
1664563749186,-0.32299805,-0.7781372,0.17913818,11.953125,6.515625,3.328125
1664563749230,-0.3491211,-0.8804321,0.10760498,2.375,9.25,0.625
1664563749275,-0.42041016,-0.8845825,0.14837646,-1.734375,-2.59375,2.15625
1664563749305,-0.41503906,-0.84820557,0.17327881,11.03125,1.5625,1.65625
1664563749353,-0.39233398,-0.8953247,0.14935303,3.875,6.671875,1.15625
1664563749395,-0.36279297,-0.9336548,0.17156982,5.859375,-5.5625,4.953125
1664563749427,-0.42407227,-0.878479,0.17645264,-0.5625,0.875,2.578125
1664563749471,-0.44189453,-0.9307251,0.17645264,1.328125,1.5625,1.828125
1664563749516,-0.43310547,-0.9656372,0.19915771,1.3125,4.6875,-1.125
1664563749546,-0.4375,-0.9817505,0.24993896,4.453125,8.09375,-1.703125
1664563749592,-0.41308594,-1.0852661,0.18499756,6.375,9.21875,-4.46875
1664563749621,-0.54467773,-1.2717896,0.17547607,0.671875,8.484375,-5.15625
1664563749666,-0.5253906,-1.1846313,0.1564331,-9.09375,5.28125,-7.59375
1664563749710,-0.46313477,-1.0916138,0.050964355,-6.59375,5.296875,-6.5625
1664563749740,-0.38793945,-0.7505493,0.036071777,-6.171875,11.03125,2.671875
1664563749786,-0.19799805,-0.90167236,-0.002746582,23.921875,43.765625,-6.484375
1664563749831,-0.41308594,-1.0403442,-0.11016846,17.78125,40.90625,-3.546875
1664563749865,-0.44628906,-0.8225708,-0.028381348,-10.3125,-38.6875,5.46875
1664563749905,-0.3647461,-0.84942627,0.07318115,-20.078125,-69.59375,2.421875
1664563749936,-0.4946289,-0.72540283,0.34979248,-3.71875,-27.328125,4.265625
1664563749980,-0.4140625,-0.7803345,0.10321045,11.140625,27.328125,-9.359375
1664563750025,-0.35180664,-0.8262329,0.019470215,9.171875,23.4375,-4.640625
1664563750058,-0.3684082,-0.8110962,0.034118652,2.6875,-7.96875,1.765625
1664563750101,-0.3774414,-0.7769165,0.0836792,-3.828125,-22.375,2.34375
1664563750146,-0.48095703,-0.8213501,0.17401123,0.578125,-19.015625,0.765625
1664563750175,-0.42016602,-0.85894775,0.13006592,0.09375,3.046875,-0.359375
1664563750220,-0.45629883,-0.87872314,0.073913574,-5.578125,-6.953125,-3.734375
1664563750266,-0.49487305,-0.91607666,0.11419678,-3.859375,-15.703125,-2.859375
1664563750296,-0.54785156,-0.9307251,0.15838623,-3.25,-5.734375,-6.921875
1664563750340,-0.6164551,-1.0371704,0.19207764,-6.0,-8.28125,-4.359375
1664563750373,-0.5600586,-1.0239868,0.12322998,-9.6875,-0.1875,-4.96875
1664563750416,-0.58251953,-1.2095337,0.16937256,-3.484375,-5.46875,-0.328125
1664563750461,-0.49145508,-1.180481,0.06951904,0.765625,-1.125,-0.625
1664563750491,-0.515625,-0.90631104,-0.01373291,-8.703125,16.90625,-7.84375
1664563750535,-0.29736328,-0.8599243,0.003112793,11.9375,26.84375,6.09375
1664563750581,-0.3383789,-0.9463501,-0.0064086914,16.109375,17.890625,2.59375
1664563750611,-0.3869629,-0.85894775,0.046813965,-13.125,-12.28125,3.8125
1664563750657,-0.37768555,-0.8418579,0.109313965,2.046875,-16.703125,10.1875
1664563750686,-0.3527832,-0.8755493,0.121032715,3.171875,4.796875,8.265625
1664563750731,-0.39086914,-0.81866455,0.13250732,-4.171875,-2.203125,5.484375
1664563750776,-0.38305664,-0.74591064,0.1395874,10.359375,7.375,6.984375
1664563750807,-0.3083496,-0.76348877,0.066101074,9.59375,9.78125,5.796875
1664563750851,-0.35864258,-0.7612915,0.17108154,5.484375,2.1875,2.53125
1664563750896,-0.35473633,-0.84210205,0.13006592,15.203125,10.015625,3.5
1664563750926,-0.38891602,-0.91241455,0.12542725,9.21875,2.828125,3.09375
1664563750972,-0.36987305,-0.9151001,0.14593506,-2.203125,-6.21875,4.1875
1664563751016,-0.43554688,-0.87750244,0.19354248,1.484375,-7.421875,4.359375
1664563751045,-0.40942383,-0.8936157,0.14886475,3.140625,4.9375,-1.109375
1664563751091,-0.359375,-0.97491455,0.17449951,2.625,-5.84375,3.9375
1664563751121,-0.3696289,-1.0032349,0.18255615,-5.625,-0.015625,-0.75
1664563751166,-0.45581055,-1.0344849,0.22039795,-8.40625,6.875,-8.78125
1664563751211,-0.3088379,-1.3787231,0.02508545,8.015625,5.203125,1.640625
1664563751240,-0.5336914,-1.2122192,0.20355225,-14.203125,2.6875,-6.453125
1664563751286,-0.5053711,-1.1836548,0.027282715,-5.609375,4.265625,-3.0625
1664563751332,-0.45776367,-0.835022,-0.022277832,-20.28125,11.265625,-1.875
1664563751361,-0.18481445,-0.7600708,-0.042785645,23.609375,33.78125,-1.421875
1664563751406,-0.32421875,-1.0252075,-0.061584473,21.234375,46.03125,-6.140625
1664563751436,-0.4909668,-0.8484497,-0.105773926,-19.671875,-19.296875,3.578125
1664563751481,-0.40307617,-0.80548096,0.04534912,-4.234375,-66.140625,-0.375
1664563751527,-0.46484375,-0.7319946,0.41522217,-4.875,-1.203125,-0.71875
1664563751556,-0.34814453,-0.8093872,-0.026184082,6.453125,16.6875,-1.84375
1664563751601,-0.39575195,-0.7815552,0.020446777,2.546875,-15.03125,-2.09375
1664563751646,-0.38330078,-0.7752075,0.17327881,5.15625,-7.109375,0.0
1664563751677,-0.34692383,-0.79473877,0.026794434,9.21875,10.21875,0.734375
1664563751721,-0.43286133,-0.83135986,0.06317139,0.640625,-10.0,-1.234375
1664563751751,-0.44628906,-0.92974854,0.1005249,7.328125,7.171875,-2.421875
1664563751796,-0.46435547,-0.90411377,0.082214355,-5.53125,-9.078125,-3.25
1664563751841,-0.5332031,-0.878479,0.1083374,-5.421875,-2.1875,-1.125
1664563751871,-0.5378418,-0.9692993,0.11810303,-4.6875,-3.90625,-6.078125
1664563751916,-0.5288086,-1.0076294,0.13690186,-9.578125,-6.9375,-7.453125
1664563751961,-0.57788086,-1.003479,0.2501831,-13.8125,-5.53125,-3.65625
1664563751991,-0.5576172,-1.0933228,0.10369873,-16.6875,-4.59375,-7.234375
1664563752036,-0.60595703,-1.1758423,0.19818115,-3.984375,0.375,-6.171875
1664563752111,-0.37524414,-1.041565,0.0446167,10.921875,16.546875,-5.609375
1664563752115,-0.3425293,-0.7966919,-0.02911377,-9.21875,15.03125,5.28125
1664563752156,-0.36010742,-0.90875244,0.009460449,9.015625,2.390625,1.53125
1664563752187,-0.3269043,-0.9212036,0.06781006,8.1875,-2.125,1.375
1664563752232,-0.42700195,-0.81329346,0.11883545,-7.453125,1.640625,3.53125
1664563752276,-0.33154297,-0.9138794,0.09320068,4.03125,-1.859375,9.9375
1664563752308,-0.30419922,-0.75128174,0.08319092,-3.453125,-5.265625,10.21875
1664563752381,-0.36523438,-0.80303955,0.08905029,-7.890625,-23.140625,2.984375
1664563752396,-0.41625977,-0.77178955,0.21063232,-0.125,3.53125,3.5
1664563752426,-0.33984375,-0.8464966,0.09295654,9.0625,7.328125,1.625
1664563752471,-0.37719727,-0.84161377,0.14471436,-0.734375,2.3125,1.640625
1664563752501,-0.4255371,-0.831604,0.22332764,-1.59375,7.515625,-2.140625
1664563752546,-0.42358398,-0.89801025,0.16400146,9.875,12.390625,1.515625
1664563752592,-0.34692383,-0.9126587,0.16326904,8.1875,5.875,3.25
1664563752621,-0.40112305,-0.9373169,0.20672607,-1.375,-1.484375,0.640625
1664563752666,-0.41967773,-0.8855591,0.21990967,0.546875,5.5,-1.25
1664563752714,-0.4309082,-1.0183716,0.19744873,2.078125,8.453125,-3.59375
1664563752740,-0.45385742,-0.9837036,0.27166748,-4.625,5.40625,-8.625
1664563752786,-0.51708984,-0.928772,0.26019287,0.046875,10.453125,-7.234375
1664563752861,-0.45288086,-1.133606,0.12689209,17.703125,9.484375,0.78125
1664563752865,-0.48901367,-1.239563,0.2518921,-4.0625,-2.75,-2.109375
1664563752907,-0.55737305,-1.0422974,0.17108154,-15.96875,5.1875,-8.046875
1664563752936,-0.4501953,-0.769104,-0.019104004,-6.40625,12.203125,0.84375
1664563752981,-0.19384766,-0.90631104,-0.0037231445,24.234375,30.34375,-3.828125
1664563753026,-0.36035156,-1.0281372,-0.07867432,11.40625,18.640625,-0.828125
1664563753057,-0.48779297,-0.81427,-0.014221191,-13.09375,-45.46875,6.796875
1664563753101,-0.49780273,-0.83428955,0.38128662,-4.484375,-48.671875,6.28125
1664563753146,-0.38989258,-0.74542236,0.09954834,20.390625,20.859375,-1.359375
1664563753175,-0.36791992,-0.7827759,0.001159668,-1.421875,-2.53125,-4.25
1664563753221,-0.39208984,-0.7959595,0.18182373,3.828125,-24.640625,-1.296875
1664563753253,-0.43188477,-0.81573486,0.10369873,4.921875,12.84375,-1.546875
1664563753295,-0.4362793,-0.8179321,-0.007873535,2.21875,11.65625,-2.15625
1664563753341,-0.39233398,-0.89385986,0.089782715,5.796875,-17.3125,-0.71875
1664563753370,-0.4584961,-0.8545532,0.17523193,-5.75,-2.265625,0.265625
1664563753416,-0.4855957,-0.8303833,0.03753662,-6.609375,-7.34375,-0.9375
1664563753461,-0.52612305,-0.9031372,0.13128662,1.6875,-2.546875,-3.34375
1664563753491,-0.5366211,-0.93951416,0.12786865,1.140625,-5.9375,-8.8125
1664563753536,-0.57543945,-0.95513916,0.25335693,-13.859375,-9.96875,-4.65625
1664563753581,-0.5522461,-0.98101807,0.16571045,-10.921875,-3.0,-2.296875
1664563753611,-0.6220703,-1.1372681,0.1798706,-11.375,-5.875,-5.46875
1664563753656,-0.7001953,-1.2070923,0.17425537,-9.171875,-3.84375,-0.84375
1664563753687,-0.40063477,-1.1223755,0.007019043,15.03125,9.625,0.34375
1664563753731,-0.22680664,-0.8225708,-0.06768799,11.21875,20.78125,12.078125
1664563753776,-0.45532227,-0.80303955,-0.027404785,1.984375,-8.21875,7.34375
1664563753806,-0.3059082,-0.928772,0.13104248,16.75,-11.0625,2.953125
1664563753851,-0.47607422,-0.8479614,0.105651855,-16.84375,-1.96875,3.796875
1664563753896,-0.41992188,-0.7817993,0.0848999,-2.953125,-6.96875,9.25
1664563753926,-0.2705078,-0.7649536,0.07342529,12.375,6.984375,8.203125
1664563753971,-0.32910156,-0.7793579,0.04095459,-7.046875,-5.921875,6.0625
1664563754001,-0.41210938,-0.77911377,0.1918335,-8.859375,-12.203125,5.1875
1664563754046,-0.3239746,-0.8765259,0.08782959,8.21875,15.375,-2.484375
1664563754091,-0.41845703,-0.87506104,0.1293335,-5.953125,2.28125,1.609375
1664563754121,-0.38745117,-0.84576416,0.17034912,10.78125,10.859375,1.015625
1664563754166,-0.36450195,-0.90997314,0.1239624,7.53125,3.53125,3.21875
1664563754213,-0.34765625,-0.8870239,0.17376709,3.578125,3.796875,2.078125
1664563754241,-0.37548828,-0.9319458,0.17718506,7.21875,1.046875,3.625
1664563754287,-0.42382812,-0.93707275,0.16595459,-4.90625,0.53125,-0.84375
1664563754316,-0.44067383,-0.9043579,0.21697998,3.859375,17.1875,-6.15625
1664563754362,-0.3791504,-1.1370239,0.16033936,25.59375,15.765625,-5.09375
1664563754406,-0.46411133,-1.1670532,0.0099487305,-10.25,-0.359375,-2.71875
1664563754436,-0.5085449,-1.1382446,0.20037842,-0.359375,6.875,-2.28125
1664563754481,-0.45483398,-1.2669067,0.11029053,-6.546875,-4.53125,-0.5625
1664563754526,-0.46679688,-0.99884033,0.028503418,-14.359375,0.25,-8.375
1664563754559,-0.39892578,-0.73223877,-0.043762207,-12.34375,5.484375,1.09375
1664563754601,-0.36694336,-0.9273071,-0.039367676,24.234375,26.296875,-5.65625
1664563754677,-0.30273438,-0.97076416,-0.09307861,-11.828125,9.078125,-6.546875
1664563754680,-0.39233398,-0.819397,-0.024230957,-1.578125,-29.40625,0.40625
1664563754723,-0.5053711,-0.83843994,0.23846436,-39.359375,-53.34375,3.890625
1664563754751,-0.45825195,-0.73443604,0.14324951,11.5,8.28125,-2.25
1664563754796,-0.36621094,-0.770813,-0.0044555664,8.609375,10.21875,-2.5625
1664563754841,-0.41430664,-0.80963135,0.08123779,4.515625,-24.609375,3.828125
1664563754872,-0.4716797,-0.7373657,0.19354248,3.5,5.75,1.828125
1664563754917,-0.38012695,-0.8430786,0.05731201,11.015625,14.328125,0.890625
1664563754964,-0.44921875,-0.8543091,0.0138549805,5.015625,-8.59375,4.703125
1664563754990,-0.48046875,-0.86309814,0.20574951,-0.734375,-13.703125,1.734375
1664563755036,-0.46411133,-0.895813,0.04437256,0.953125,4.6875,-1.875
1664563755066,-0.4885254,-0.84869385,0.14324951,-6.703125,-15.671875,-2.125
1664563755111,-0.5437012,-0.88946533,0.109069824,-7.28125,1.9375,-4.390625
1664563755156,-0.5280762,-0.95806885,0.13446045,-4.875,-2.03125,-5.6875
1664563755186,-0.6303711,-1.0540161,0.08538818,-8.515625,2.5,-1.90625
1664563755231,-0.62109375,-1.1841431,0.08905029,-10.890625,-6.0625,-4.984375
1664563755276,-0.5300293,-1.2754517,0.14154053,5.078125,5.15625,-5.84375
1664563755306,-0.35205078,-1.0188599,0.008239746,9.375,21.03125,-0.234375
1664563755351,-0.38745117,-0.79351807,-0.077941895,1.578125,9.390625,8.5625
1664563755396,-0.3618164,-0.8687134,-0.036193848,20.0625,6.109375,4.34375
1664563755428,-0.3137207,-0.8760376,0.042175293,4.421875,0.5,0.578125
1664563755471,-0.39208984,-0.91656494,0.112976074,-3.703125,-3.71875,3.015625
1664563755503,-0.3803711,-0.87750244,0.07244873,-9.75,-8.8125,10.96875
1664563755546,-0.33032227,-0.66607666,0.10076904,0.5625,1.296875,6.375
1664563755591,-0.33862305,-0.7913208,0.061462402,0.671875,-0.5,0.515625
1664563755621,-0.31225586,-0.7930298,0.07513428,-2.09375,0.3125,0.0625
1664563755666,-0.38110352,-0.8086548,0.12982178,-3.53125,-0.734375,1.109375
1664563755711,-0.38256836,-0.8152466,0.12591553,1.953125,5.59375,0.140625
1664563755741,-0.3786621,-0.88360596,0.11077881,5.3125,5.84375,-1.15625
1664563755786,-0.39038086,-0.9209595,0.11248779,-0.8125,4.296875,-1.0
1664563755816,-0.39257812,-0.90167236,0.16888428,1.375,4.9375,0.109375
1664563755861,-0.38208008,-0.9221802,0.1906128,5.1875,-2.734375,1.515625
1664563755906,-0.41796875,-0.93096924,0.18865967,-4.640625,3.75,-2.453125
1664563755936,-0.42651367,-0.95880127,0.23724365,2.78125,7.0625,-1.4375
1664563755982,-0.4580078,-0.9783325,0.20111084,0.609375,0.953125,-3.953125
1664563756028,-0.46850586,-1.046936,0.23699951,0.21875,7.71875,-7.203125
1664563756056,-0.5046387,-1.0610962,0.2111206,3.5,3.421875,-6.46875
1664563756101,-0.6516113,-1.2241821,0.15423584,7.25,17.125,-9.09375
1664563756147,-0.46728516,-1.1184692,-0.08087158,9.984375,7.921875,-0.203125
1664563756176,-0.3293457,-0.8401489,-0.046447754,2.90625,5.53125,0.09375
1664563756220,-0.29711914,-0.9819946,-0.031799316,24.734375,6.8125,6.15625
1664563756296,-0.3244629,-0.9805298,-0.12359619,3.171875,-3.5625,4.671875
1664563756299,-0.4013672,-0.7893677,0.059020996,-23.828125,-31.515625,2.109375
1664563756341,-0.39086914,-0.78375244,0.15057373,6.484375,-19.53125,1.484375
1664563756373,-0.42382812,-0.7793579,0.04095459,-1.953125,9.71875,-3.015625
1664563756416,-0.35620117,-0.73931885,-0.004211426,22.890625,6.46875,1.25
1664563756461,-0.3569336,-0.8308716,0.009216309,-4.53125,-5.5,0.78125
1664563756492,-0.4230957,-0.8286743,0.043151855,-5.359375,-27.203125,3.671875
1664563756536,-0.40942383,-0.8106079,0.14300537,-9.828125,-3.5,0.4375
1664563756566,-0.43041992,-0.8587036,0.03778076,4.984375,7.734375,-1.828125
1664563756611,-0.4494629,-0.90826416,0.070739746,-7.875,-15.84375,1.546875
1664563756656,-0.48876953,-0.8731079,0.14300537,-5.984375,-11.890625,-0.296875
1664563756686,-0.5136719,-0.90167236,0.1239624,-7.84375,-5.515625,-5.03125
1664563756731,-0.44799805,-0.98101807,0.1642456,0.71875,-5.203125,-6.21875
1664563756776,-0.4975586,-0.9072876,0.13983154,-13.0,-12.40625,-6.09375
1664563756806,-0.6035156,-0.8882446,0.23919678,-14.296875,-5.453125,-2.03125
1664563756851,-0.548584,-1.5371704,0.07244873,-11.78125,7.203125,-10.625
1664563756880,-0.7207031,-1.2981567,0.124694824,-13.359375,5.328125,-9.703125
1664563756925,-0.39160156,-0.9126587,-0.00592041,18.125,8.140625,-1.484375
1664563756971,-0.40063477,-0.8340454,-0.06549072,1.59375,30.9375,0.921875
1664563757001,-0.45214844,-0.86383057,-0.042053223,14.828125,15.53125,-4.1875
1664563757046,-0.38793945,-0.82037354,0.03729248,2.84375,0.703125,2.46875
1664563757091,-0.39257812,-0.8623657,0.089782715,-5.78125,-9.40625,3.46875
1664563757121,-0.41723633,-0.9204712,0.10882568,-15.234375,-27.75,13.859375
1664563757166,-0.38842773,-0.6548462,0.16107178,6.625,-6.4375,9.96875
1664563757213,-0.30444336,-0.76153564,0.09320068,10.875,1.171875,3.828125
1664563757240,-0.4248047,-0.8010864,0.14910889,-2.609375,-5.75,4.46875
1664563757286,-0.39404297,-0.79473877,0.022155762,0.859375,4.71875,-0.25
1664563757318,-0.36572266,-0.8587036,0.124938965,5.546875,-0.625,2.609375
1664563757361,-0.4572754,-0.9038696,0.13128662,0.046875,-2.640625,1.15625
1664563757406,-0.4099121,-0.8101196,0.1395874,4.71875,2.171875,1.96875
1664563757436,-0.37451172,-0.9006958,0.124938965,5.125,-1.734375,2.328125
1664563757482,-0.4086914,-0.88165283,0.15570068,-2.453125,0.703125,1.546875
1664563757526,-0.43920898,-0.89068604,0.16375732,-0.546875,-1.53125,1.84375
1664563757557,-0.4494629,-0.95147705,0.22723389,-0.234375,8.328125,-3.015625
1664563757601,-0.43603516,-1.0042114,0.20428467,0.25,6.1875,-3.140625
1664563757631,-0.50219727,-1.1758423,0.21063232,1.84375,10.765625,-6.40625
1664563757678,-0.5488281,-1.21344,0.13348389,0.234375,2.953125,-4.4375
1664563757721,-0.55200195,-1.1802368,0.20013428,-6.796875,10.3125,-8.75
1664563757751,-0.51464844,-0.9480591,-0.10626221,-6.109375,25.328125,-5.421875
1664563757797,-0.21435547,-0.6790161,-0.11798096,5.0625,25.453125,-0.4375
1664563757841,-0.30029297,-0.93585205,-0.07159424,25.09375,18.828125,-1.96875
1664563757872,-0.5539551,-0.92852783,-0.026916504,-22.390625,-26.953125,3.046875
1664563757916,-0.45166016,-0.769104,0.105407715,7.328125,-24.578125,0.328125
1664563757961,-0.47485352,-0.78448486,0.21234131,-0.609375,-9.921875,-2.421875
1664563757991,-0.41137695,-0.76885986,0.015563965,-1.640625,17.046875,-2.84375
1664563758037,-0.36279297,-0.74591064,0.028503418,16.15625,-9.359375,1.40625
1664563758066,-0.41381836,-0.77716064,0.14666748,-8.75,-16.078125,1.28125
1664563758111,-0.4741211,-0.76763916,0.097595215,4.703125,8.328125,1.03125
1664563758156,-0.4921875,-0.8323364,0.07147217,-2.0625,-4.6875,0.890625
1664563758187,-0.51049805,-0.8887329,0.1473999,-1.546875,-10.328125,0.078125
1664563758231,-0.47192383,-0.86846924,0.11932373,-2.578125,-3.40625,-2.828125
1664563758276,-0.5270996,-0.88726807,0.12298584,-6.15625,-8.75,-1.234375
1664563758306,-0.6208496,-0.88897705,0.18377686,-11.28125,-4.015625,-5.40625
1664563758352,-0.623291,-1.0379028,0.16326904,-5.140625,2.53125,-5.859375
1664563758381,-0.5510254,-1.1472778,0.077819824,-10.71875,-5.5625,-1.765625
1664563758427,-0.6047363,-1.1521606,0.24847412,-2.953125,-3.40625,-1.359375
1664563758471,-0.5830078,-1.1079712,0.11224365,-2.6875,2.46875,-8.8125
1664563758501,-0.28027344,-0.87823486,0.027038574,-7.703125,9.640625,-4.046875
1664563758547,-0.4416504,-0.7896118,-0.002746582,1.640625,13.71875,7.8125
1664563758591,-0.34228516,-0.7908325,0.058776855,11.453125,-4.21875,0.78125
1664563758621,-0.36206055,-0.8413696,0.11956787,12.546875,5.375,2.671875
1664563758666,-0.43286133,-0.9639282,0.168396,10.8125,-0.078125,7.234375
1664563758711,-0.3972168,-0.7695923,0.11834717,5.359375,3.015625,10.703125
1664563758741,-0.3371582,-0.80255127,0.09173584,2.625,3.9375,9.25
1664563758786,-0.4284668,-0.76226807,0.16619873,-1.5625,-7.0,5.34375
1664563758816,-0.39086914,-0.8262329,0.1630249,3.734375,4.671875,2.578125
1664563758862,-0.36206055,-0.8272095,0.13397217,2.234375,3.203125,0.828125
1664563758905,-0.42211914,-0.89019775,0.16693115,-2.953125,2.5625,0.890625
1664563758935,-0.43188477,-0.91119385,0.20379639,0.578125,0.53125,-0.9375
1664563758981,-0.40893555,-0.8831177,0.18304443,-0.671875,-4.75,2.65625
1664563759026,-0.38842773,-0.9077759,0.17840576,4.671875,4.265625,-0.296875
1664563759057,-0.46533203,-0.9536743,0.3258667,-1.1875,1.8125,-3.40625
1664563759101,-0.4765625,-0.9055786,0.22259521,-0.625,8.4375,-10.40625
1664563759132,-0.51171875,-0.98516846,0.21282959,-5.140625,2.703125,-7.609375
1664563759176,-0.51538086,-1.069397,0.27923584,2.75,8.125,-12.234375
1664563759221,-0.62402344,-1.2246704,0.17254639,3.984375,14.140625,-5.46875
1664563759251,-0.546875,-0.9661255,-0.002746582,4.203125,8.09375,-5.484375
1664563759296,-0.25634766,-0.84820557,0.017028809,4.140625,-2.328125,7.28125
1664563759341,-0.1928711,-0.96710205,-0.051818848,-1.15625,19.65625,3.34375
1664563759371,-0.49780273,-0.956604,-0.11651611,6.03125,-0.9375,6.53125
1664563759416,-0.60253906,-0.83184814,0.1954956,6.53125,-19.375,2.640625
1664563759445,-0.3864746,-0.9055786,0.090270996,5.6875,2.1875,-0.6875
1664563759491,-0.39624023,-0.7608032,0.09124756,4.234375,-18.296875,3.1875
1664563759537,-0.421875,-0.76031494,0.08416748,5.125,6.359375,-3.359375
1664563759566,-0.40942383,-0.76446533,0.070495605,11.8125,-5.0,0.078125
1664563759611,-0.37817383,-0.7439575,0.032409668,4.890625,15.375,0.171875
1664563759658,-0.39453125,-0.8128052,0.01727295,2.75,-13.34375,1.671875
1664563759687,-0.45703125,-0.83306885,0.093933105,-3.140625,-19.703125,3.140625
1664563759731,-0.47998047,-0.88604736,0.10467529,-4.25,-9.359375,0.421875
1664563759776,-0.51293945,-0.86505127,0.047058105,-4.890625,-2.921875,-1.375
1664563759807,-0.4880371,-0.92022705,0.08880615,0.34375,-18.015625,-0.984375
1664563759851,-0.5866699,-0.9421997,0.168396,-7.0625,-12.90625,-2.125
1664563759882,-0.5673828,-1.0105591,0.070251465,-11.71875,-11.421875,-1.390625
1664563759925,-0.55200195,-1.0444946,0.16253662,-6.90625,-13.390625,1.078125
1664563759971,-0.64941406,-1.0818481,0.10858154,-5.03125,-3.65625,-4.484375
1664563760003,-0.5031738,-1.2625122,0.09515381,4.78125,0.90625,-1.890625
1664563760046,-0.3828125,-0.95147705,0.0060424805,1.453125,28.28125,-7.9375
1664563760091,-0.3515625,-0.8272095,-0.031799316,6.625,22.453125,4.046875
1664563760122,-0.32128906,-0.80792236,-0.04083252,27.578125,23.421875,3.671875
1664563760167,-0.35302734,-0.8555298,-0.0017700195,17.0,13.5,-0.03125
1664563760196,-0.3996582,-0.96466064,0.074645996,5.34375,-3.5,6.9375
1664563760241,-0.33691406,-0.76763916,0.06463623,-9.578125,-8.078125,15.734375
1664563760286,-0.3635254,-0.71173096,0.094177246,-4.65625,-7.140625,7.4375
1664563760316,-0.38452148,-0.90460205,0.15081787,-2.125,-4.65625,1.296875
1664563760362,-0.37939453,-0.77789307,0.061462402,-3.78125,0.34375,6.28125
1664563760406,-0.35253906,-0.741272,0.12884521,-6.859375,-4.84375,3.78125
1664563760439,-0.36767578,-0.923645,0.17034912,2.078125,2.984375,2.421875
1664563760481,-0.34521484,-0.8843384,0.14349365,3.546875,0.625,4.6875
1664563760527,-0.4230957,-0.88946533,0.25238037,-6.859375,0.328125,1.3125
1664563760556,-0.40356445,-0.9768677,0.15692139,4.25,6.453125,-3.234375
1664563760602,-0.3828125,-0.98883057,0.33099365,-7.671875,6.046875,-8.203125
1664563760632,-0.44799805,-1.0322876,0.24066162,-9.03125,12.734375,-15.5625
1664563760677,-0.59472656,-1.539856,0.20257568,1.65625,19.359375,1.515625
1664563760721,-0.5058594,-1.2190552,-0.19659424,0.796875,12.375,-7.5625
1664563760751,-0.3215332,-0.8557739,-0.020568848,-6.671875,2.46875,2.515625
1664563760796,-0.24194336,-0.7424927,-0.016906738,9.546875,-0.71875,4.265625
1664563760842,-0.4716797,-0.9963989,-0.15460205,8.53125,19.046875,-3.5625
1664563760874,-0.5288086,-0.86798096,-0.016662598,-25.203125,-23.6875,-1.875
1664563760916,-0.46435547,-0.81744385,0.22137451,2.53125,-16.796875,-0.09375
1664563760946,-0.39086914,-0.8657837,0.05218506,16.921875,3.5625,-3.53125
1664563760992,-0.38476562,-0.81622314,0.07342529,-0.671875,-19.53125,2.15625
1664563761036,-0.42895508,-0.76031494,0.10272217,-0.609375,-15.453125,2.296875
1664563761066,-0.3840332,-0.7932739,0.051452637,8.8125,3.65625,0.171875
1664563761113,-0.37597656,-0.7666626,0.07098389,6.859375,-6.4375,5.171875
1664563761157,-0.36572266,-0.76763916,0.0045776367,3.375,4.953125,2.890625
1664563761186,-0.44213867,-0.8623657,0.10784912,-0.71875,-19.640625,1.828125
1664563761231,-0.4946289,-0.86016846,0.11004639,-2.984375,-2.046875,-0.59375
1664563761277,-0.48291016,-0.8518677,0.09442139,-3.609375,-5.28125,-0.765625
1664563761306,-0.5407715,-0.9475708,0.10369873,10.125,2.4375,1.609375
1664563761351,-0.57299805,-0.9673462,0.14056396,-0.265625,5.296875,-8.125
1664563761382,-0.545166,-1.0100708,0.18719482,4.484375,10.546875,-2.015625
1664563761426,-0.47631836,-1.116272,0.09246826,-0.671875,0.671875,4.0
1664563761471,-0.5114746,-1.0982056,0.051696777,-9.0625,-3.34375,6.15625
1664563761501,-0.48413086,-1.2156372,0.17230225,-5.359375,-8.125,3.34375
1664563761547,-0.36987305,-0.9661255,-0.055236816,-4.5625,8.3125,-4.84375
1664563761592,-0.3876953,-0.7710571,-0.09869385,-11.515625,16.5,4.0
1664563761621,-0.30126953,-0.86431885,-0.09429932,13.09375,15.296875,3.0625
1664563761682,-0.31445312,-0.8604126,-0.023254395,34.96875,19.171875,-4.640625
1664563761696,-0.41552734,-0.9553833,0.046325684,-1.515625,-2.984375,-1.734375
1664563761741,-0.36376953,-0.925354,0.09906006,-0.53125,-13.984375,5.625
1664563761787,-0.37182617,-0.82525635,0.093444824,2.609375,7.140625,6.609375
1664563761817,-0.39453125,-0.82159424,0.0446167,3.6875,15.21875,4.953125
1664563761861,-0.32788086,-0.8401489,0.027526855,18.0,9.125,1.421875
1664563761907,-0.28222656,-0.8284302,0.024841309,-7.53125,-10.015625,2.359375
1664563761937,-0.41503906,-0.75079346,0.13079834,-7.90625,-3.984375,4.859375
1664563761982,-0.38378906,-0.81451416,0.08148193,4.21875,9.0,-0.828125
1664563762026,-0.31982422,-0.9126587,0.09906006,2.84375,-0.8125,2.828125
1664563762057,-0.39013672,-0.90997314,0.121276855,-1.25,-1.828125,4.578125
1664563762101,-0.36694336,-0.96759033,0.12445068,1.953125,8.921875,0.75
1664563762131,-0.37817383,-1.0098267,0.18890381,1.0,-2.09375,2.71875
1664563762178,-0.43041992,-1.0706177,0.19036865,-1.171875,9.734375,-0.453125
1664563762221,-0.3725586,-1.1384888,0.14984131,7.5,11.921875,-3.1875
1664563762253,-0.49780273,-1.329895,0.18157959,4.875,12.890625,-4.328125
1664563762296,-0.53027344,-1.1834106,4.272461E-4,1.828125,17.40625,-9.40625
1664563762342,-0.3322754,-1.0557251,-0.12530518,2.140625,23.28125,-4.90625
1664563762371,-0.2607422,-0.7163696,-0.06964111,-1.90625,19.203125,-2.890625
1664563762418,-0.36132812,-0.8386841,-0.11578369,34.90625,42.46875,-5.65625
1664563762446,-0.43310547,-0.96343994,-0.10455322,22.640625,5.328125,-1.171875
1664563762492,-0.36572266,-0.772522,0.0065307617,-12.265625,-21.96875,1.1875
1664563762537,-0.33447266,-0.8789673,-0.016174316,-18.875,-8.96875,-4.46875
1664563762566,-0.42114258,-0.7695923,0.010681152,-21.03125,-34.5,0.203125
1664563762612,-0.35498047,-0.7307739,0.113464355,-3.109375,-7.015625,-3.171875
1664563762656,-0.3605957,-0.784729,0.05218506,17.078125,-16.78125,0.734375
1664563762687,-0.39990234,-0.82647705,0.030456543,3.296875,-13.328125,0.9375
1664563762731,-0.4724121,-0.8599243,0.05340576,-6.75,-15.171875,0.328125
1664563762761,-0.45214844,-0.9273071,0.085876465,2.65625,-17.796875,0.109375
1664563762806,-0.37426758,-0.9175415,0.035827637,-1.5625,-11.4375,-3.8125
1664563762852,-0.48388672,-0.89630127,0.06878662,-1.796875,-20.203125,-9.921875
1664563762881,-0.64697266,-0.9483032,0.11907959,-7.28125,-22.171875,-9.65625
1664563762926,-0.5698242,-0.93951416,0.08343506,-4.28125,-1.15625,-6.140625
1664563762972,-0.50927734,-1.0061646,0.04534912,-16.40625,-17.40625,-3.828125
1664563763001,-0.60009766,-1.0098267,0.34783936,-25.09375,-34.9375,-1.140625
1664563763049,-0.73339844,-1.1045532,-0.0256958,-23.65625,2.078125,-6.96875
1664563763092,-0.48266602,-1.1714478,0.11419678,0.25,-1.171875,3.140625
1664563763122,-0.35351562,-0.90460205,-0.13726807,-13.90625,1.625,2.203125
1664563763167,-0.42871094,-0.9031372,-0.0095825195,-2.5625,0.3125,1.15625
1664563763197,-0.31323242,-0.8442993,-0.22296143,7.171875,28.328125,-3.078125
1664563763242,-0.35327148,-0.8196411,-0.04449463,-1.890625,0.140625,-0.21875
1664563763287,-0.49194336,-0.847229,0.15228271,-0.34375,-8.421875,-0.78125
1664563763316,-0.38378906,-0.82476807,-0.030090332,7.640625,12.265625,-0.59375
1664563763362,-0.33447266,-0.8179321,0.03729248,11.171875,4.515625,-0.59375
1664563763407,-0.40356445,-0.74346924,0.08685303,1.75,5.875,3.78125
1664563763437,-0.37524414,-0.77178955,0.005065918,4.859375,11.421875,-1.234375
1664563763481,-0.3503418,-0.8335571,0.05218506,11.75,5.515625,1.03125
1664563763511,-0.42944336,-0.85528564,0.1149292,-1.234375,3.578125,2.25
1664563763557,-0.41577148,-0.81378174,0.11566162,5.515625,6.296875,1.53125
1664563763616,-0.4267578,-0.7971802,0.11395264,-0.46875,-1.546875,2.0625
1664563763633,-0.47509766,-0.7671509,0.10247803,-5.265625,3.890625,-0.53125
1664563763676,-0.4255371,-0.8064575,0.22015381,4.078125,-0.28125,-0.53125
1664563763722,-0.44140625,-0.8530884,0.105407715,1.1875,6.140625,0.4375
1664563763751,-0.5383301,-0.9446411,0.2062378,-2.109375,4.703125,-1.03125
1664563763797,-0.5744629,-0.94854736,0.2423706,1.28125,9.4375,-4.0625
1664563763873,-0.6040039,-1.0298462,0.19232178,-0.234375,14.515625,-6.421875
1664563763877,-0.5449219,-1.0256958,0.20477295,8.078125,17.125,-1.640625
1664563763916,-0.66967773,-0.9199829,0.26800537,-8.65625,16.796875,-17.375
1664563763946,-0.45117188,-1.085022,0.23260498,-1.65625,11.515625,-3.96875
1664563763991,-0.32080078,-0.81134033,-0.11578369,-7.90625,18.59375,1.9375
1664563764037,-0.47265625,-0.7649536,-0.1873169,-14.3125,14.703125,4.640625
1664563764067,-0.4921875,-0.9421997,0.10418701,15.9375,6.375,11.265625
1664563764111,-0.38867188,-0.9470825,0.02508545,17.953125,11.75,2.703125
1664563764157,-0.4609375,-0.95977783,0.105895996,-2.609375,14.21875,-4.9375
1664563764186,-0.4465332,-0.788147,0.17816162,6.078125,6.546875,-9.0
1664563764232,-0.42333984,-0.74053955,0.14105225,12.6875,9.609375,-11.421875
1664563764261,-0.44311523,-0.7871704,0.09564209,9.3125,4.125,-5.640625
1664563764307,-0.47583008,-0.77545166,0.06781006,6.1875,-7.078125,-1.21875
1664563764352,-0.47998047,-0.7576294,0.098083496,7.171875,-12.84375,4.046875
1664563764381,-0.47875977,-0.8230591,0.11810303,-1.796875,-11.265625,2.53125
1664563764426,-0.64038086,-0.91412354,0.16082764,-5.9375,-18.03125,5.8125
1664563764471,-0.58984375,-0.89263916,0.13934326,-26.203125,-7.96875,-3.9375
1664563764502,-0.6245117,-0.9451294,0.22235107,-29.421875,-20.875,-6.328125
1664563764547,-0.6657715,-1.1773071,0.18499756,-23.84375,-2.96875,-12.671875
1664563764592,-0.4555664,-1.0020142,0.093444824,4.84375,6.25,-20.859375
1664563764621,-0.31445312,-0.8413696,-0.034729004,29.84375,26.421875,-0.953125
1664563764669,-0.41625977,-0.9295044,-0.02178955,-6.1875,-9.671875,-3.15625
1664563764695,-0.5739746,-1.0471802,0.15252686,9.03125,-34.6875,-0.1875
1664563764742,-0.29296875,-0.95635986,-0.026916504,15.09375,19.859375,12.671875
1664563764786,-0.35253906,-0.73565674,-0.012512207,-24.90625,-13.890625,10.859375
1664563764816,-0.5192871,-0.8225708,0.27142334,-2.078125,-30.359375,12.734375
1664563764862,-0.3828125,-0.8652954,0.13690186,5.359375,1.453125,5.40625
1664563764906,-0.47192383,-0.8477173,0.08050537,6.65625,4.0,1.375
1664563764936,-0.43408203,-0.9319458,0.09320068,14.671875,-0.59375,8.15625
1664563764981,-0.34594727,-0.9170532,0.10662842,10.59375,-3.59375,9.78125
1664563765011,-0.50146484,-0.8442993,0.19451904,-7.984375,2.78125,-1.0625
1664563765057,-0.48779297,-0.9546509,0.19256592,0.125,8.265625,-1.625
1664563765102,-0.49731445,-0.9981079,0.23626709,7.421875,13.234375,-9.75
1664563765134,-0.6057129,-1.0552368,0.16204834,2.4375,6.71875,-9.359375
1664563765177,-0.560791,-1.2940063,0.028015137,7.34375,12.484375,1.234375
1664563765222,-0.5654297,-1.3843384,0.121276855,7.5,-1.140625,0.984375
1664563765251,-0.38793945,-0.7214966,-0.17047119,4.1875,11.390625,-2.0
1664563765297,-0.25976562,-0.82818604,-0.12017822,-15.375,13.984375,6.859375
1664563765326,-0.46557617,-1.0713501,-0.101867676,22.8125,10.59375,-1.328125
1664563765371,-0.57421875,-0.8093872,-0.06842041,-24.859375,-22.296875,7.171875
1664563765417,-0.40014648,-0.91192627,0.08416748,9.578125,-24.890625,-5.171875
1664563765447,-0.42260742,-0.8411255,0.014343262,-20.671875,-11.109375,-0.203125
1664563765491,-0.38110352,-0.7078247,-0.02520752,-5.453125,-24.25,1.28125
1664563765537,-0.40600586,-0.6873169,0.19281006,-12.453125,-18.078125,-0.78125
1664563765567,-0.3659668,-0.7058716,4.272461E-4,9.296875,7.953125,-0.578125
1664563765611,-0.40014648,-0.71759033,-0.02960205,-8.8125,-9.71875,1.96875
1664563765687,-0.4934082,-0.7803345,0.15740967,-4.71875,-17.953125,5.484375
1664563765690,-0.47143555,-0.8255005,0.01751709,-5.84375,5.078125,-1.703125
1664563765731,-0.4765625,-0.80963135,0.13128662,-2.5625,-7.375,0.859375
1664563765760,-0.4572754,-0.895813,0.1071167,2.265625,-0.84375,-2.453125
1664563765807,-0.5908203,-0.9024048,0.17913818,-15.84375,-9.234375,-12.359375
1664563765852,-0.6550293,-0.96343994,0.23260498,-6.640625,0.484375,-7.09375
1664563765882,-0.5866699,-1.0730591,0.17132568,-10.671875,-13.640625,-1.15625
1664563765926,-0.70703125,-1.0010376,0.16815186,-9.359375,-9.5625,-3.984375
1664563765971,-0.6279297,-1.1694946,0.18817139,11.4375,-1.6875,1.6875
1664563766002,-0.6516113,-1.0862427,0.024841309,-5.71875,2.34375,-0.46875
1664563766046,-0.32006836,-0.9277954,0.02557373,7.921875,12.65625,0.1875
1664563766078,-0.32470703,-0.84210205,-0.09283447,7.265625,25.78125,8.59375
1664563766121,-0.453125,-0.7954712,-0.055236816,7.078125,-3.609375,0.890625
1664563766167,-0.39379883,-0.8687134,0.08734131,8.34375,-19.265625,1.6875
1664563766197,-0.42041016,-0.9260864,0.18572998,14.109375,15.703125,3.875
1664563766242,-0.41235352,-0.829895,0.029724121,7.703125,17.03125,6.859375
1664563766286,-0.42407227,-0.8521118,0.05657959,-5.296875,-7.34375,6.921875
1664563766317,-0.40356445,-0.7437134,0.07684326,7.453125,-3.609375,9.546875
1664563766362,-0.36547852,-0.7476196,0.06756592,3.515625,0.484375,6.203125
1664563766407,-0.38867188,-0.770813,0.105407715,-4.40625,-1.890625,3.046875
1664563766437,-0.38427734,-0.84625244,0.12249756,0.359375,-2.40625,2.046875
1664563766482,-0.47192383,-0.85528564,0.12054443,-1.53125,0.453125,1.328125
1664563766512,-0.42260742,-0.8452759,0.12738037,3.34375,-0.609375,5.8125
1664563766557,-0.43676758,-0.9163208,0.16229248,3.078125,-2.78125,6.765625
1664563766602,-0.42041016,-0.9614868,0.16082764,4.859375,0.828125,3.390625
1664563766631,-0.4699707,-1.013977,0.23138428,-4.78125,-2.609375,0.453125
1664563766677,-0.5534668,-1.0735474,0.1930542,-8.359375,3.921875,-6.65625
1664563766721,-0.5463867,-1.1489868,0.22357178,-0.4375,7.640625,-9.84375
1664563766752,-0.63916016,-1.2415161,0.10101318,-4.0,4.921875,-13.515625
1664563766796,-0.54785156,-1.1919556,-0.020080566,-0.328125,29.0,-16.875
1664563766827,-0.3178711,-0.7012329,-0.10406494,1.640625,10.125,-7.328125
1664563766872,-0.26342773,-0.8557739,-0.11651611,0.546875,13.34375,-2.203125
1664563766916,-0.45336914,-0.8765259,-0.018859863,6.640625,-14.59375,1.578125
1664563766961,-0.5629883,-0.7918091,0.0914917,-13.484375,-12.515625,0.171875
1664563766991,-0.44995117,-0.7576294,0.07366943,-5.65625,-11.75,0.234375
1664563767039,-0.45410156,-0.7124634,0.054382324,1.390625,-0.109375,-0.21875
1664563767066,-0.35083008,-0.692688,0.078552246,13.03125,2.65625,-1.84375
1664563767112,-0.44433594,-0.78497314,0.08270264,5.890625,3.65625,-1.953125
1664563767157,-0.4790039,-0.7637329,0.06878662,7.546875,3.09375,3.078125
1664563767202,-0.43920898,-0.7913208,0.10491943,4.9375,-2.734375,6.03125
1664563767232,-0.53515625,-0.8518677,0.14227295,-4.703125,7.96875,2.515625
1664563767307,-0.49560547,-0.8513794,0.010192871,7.203125,3.15625,3.609375
1664563767310,-0.60302734,-0.8233032,0.1906128,-0.375,-1.3125,-3.984375
1664563767352,-0.65405273,-0.93707275,0.093444824,-20.796875,-4.796875,-8.625
1664563767381,-0.64160156,-1.065979,0.15545654,-8.984375,0.71875,-7.0
1664563767427,-0.6826172,-1.0877075,0.08538818,-17.71875,0.5,-13.203125
1664563767472,-0.7451172,-1.2095337,0.21746826,-1.140625,9.59375,-14.125
1664563767501,-0.43115234,-1.1848755,-0.007385254,1.8125,18.34375,-11.59375
1664563767547,-0.30639648,-0.8062134,-0.039855957,15.015625,34.078125,2.25
1664563767576,-0.4633789,-0.7810669,0.015563965,-12.09375,-20.03125,7.34375
1664563767622,-0.35180664,-0.88360596,0.18914795,8.875,-17.203125,-0.28125
1664563767666,-0.47827148,-0.93096924,0.18011475,6.8125,11.296875,-1.96875
1664563767697,-0.44604492,-0.8106079,0.055114746,9.109375,12.125,3.96875
1664563767742,-0.46875,-0.7971802,0.1305542,-1.078125,-4.390625,0.71875
1664563767787,-0.43164062,-0.7852173,0.1630249,2.421875,-1.25,2.234375
1664563767817,-0.42333984,-0.7305298,0.06903076,11.1875,16.5625,-1.8125
1664563767862,-0.40551758,-0.7468872,0.14666748,5.859375,-2.140625,1.90625
1664563767890,-0.36547852,-0.767395,0.1305542,7.171875,2.75,2.421875
1664563767937,-0.44702148,-0.7744751,0.15325928,0.984375,-2.234375,3.203125
1664563767984,-0.44677734,-0.7984009,0.16156006,2.375,-3.640625,3.796875
1664563768012,-0.51831055,-0.788147,0.15252686,-1.90625,-5.078125,3.921875
1664563768056,-0.42016602,-0.9302368,0.15740967,11.859375,-1.8125,10.671875
1664563768102,-0.5078125,-0.93414307,0.2243042,2.3125,-0.796875,0.609375
1664563768131,-0.6147461,-0.8897095,0.2765503,1.015625,5.578125,-4.921875
1664563768177,-0.50439453,-0.99835205,0.16326904,2.796875,-4.578125,-0.453125
1664563768222,-0.57470703,-1.2005005,0.21282959,-12.265625,-5.78125,-3.9375
1664563768252,-0.7072754,-1.2544556,0.19354248,-8.71875,-8.984375,-5.890625
1664563768298,-0.5119629,-1.2280884,-0.0178833,6.484375,6.1875,-1.59375
1664563768327,-0.3388672,-0.7503052,-0.1326294,-4.59375,11.28125,-7.65625
1664563768372,-0.3190918,-0.8130493,-0.086242676,-7.625,5.765625,6.578125
1664563768417,-0.4567871,-0.9614868,0.039978027,4.015625,-5.46875,0.140625
1664563768447,-0.5703125,-0.7918091,-0.06695557,-5.9375,-8.984375,4.953125
1664563768492,-0.4345703,-0.8123169,0.1720581,-2.515625,-8.421875,-3.03125
1664563768536,-0.43164062,-0.7954712,0.028015137,-3.625,-8.71875,-2.390625
1664563768567,-0.41064453,-0.722229,0.09466553,4.671875,-2.140625,-2.09375
1664563768612,-0.3774414,-0.7576294,0.0446167,5.296875,-2.09375,0.34375
1664563768642,-0.39819336,-0.7420044,0.05316162,0.3125,-2.34375,0.5
1664563768687,-0.51171875,-0.7354126,0.09881592,-5.21875,-7.078125,1.34375
1664563768732,-0.47924805,-0.81817627,0.08050537,-0.625,-1.625,2.21875
1664563768762,-0.47827148,-0.82818604,0.08856201,-1.171875,-3.890625,-0.328125
1664563768807,-0.51538086,-0.8064575,0.12957764,3.90625,-5.1875,1.625
1664563768852,-0.5439453,-0.8609009,0.043151855,-3.828125,0.390625,-1.46875
1664563768881,-0.5605469,-0.90289307,0.14886475,-0.578125,-7.625,0.96875
1664563768927,-0.5266113,-0.92559814,0.06488037,-5.671875,-1.640625,1.28125
1664563768972,-0.7050781,-1.1018677,0.07733154,-15.515625,-13.34375,1.1875
1664563769002,-0.73999023,-1.1211548,0.16937256,-5.015625,-3.65625,-0.9375
1664563769047,-0.64941406,-1.2520142,0.09588623,-1.765625,-2.734375,1.046875
1664563769076,-0.41796875,-1.1079712,-0.026916504,9.484375,8.671875,1.90625
1664563769122,-0.29736328,-0.7932739,-0.12701416,12.0625,23.03125,2.46875
1664563769167,-0.4111328,-0.79229736,-0.0022583008,-8.0625,-20.84375,2.578125
1664563769196,-0.3737793,-0.81500244,0.06707764,5.6875,-4.0,-1.375
1664563769242,-0.47070312,-0.85113525,0.04071045,2.421875,2.078125,-3.0
1664563769287,-0.39282227,-0.8633423,0.05267334,5.328125,2.046875,3.015625
1664563769317,-0.35717773,-0.8086548,0.06439209,4.109375,-0.75,6.921875
1664563769363,-0.4091797,-0.736145,0.06854248,2.234375,-4.296875,4.234375
1664563769392,-0.39038086,-0.72979736,0.070007324,-3.421875,-2.34375,3.75
1664563769437,-0.39208984,-0.73443604,0.0368042,-4.390625,3.65625,0.421875
1664563769482,-0.42407227,-0.8130493,0.14276123,-2.390625,-2.109375,3.3125
1664563769511,-0.42944336,-0.84869385,0.086364746,2.4375,3.1875,2.71875
1664563769557,-0.4326172,-0.8760376,0.12322998,1.96875,2.65625,2.796875
1664563769602,-0.484375,-0.89434814,0.1473999,2.28125,1.421875,4.0625
1664563769632,-0.46704102,-0.8867798,0.14276123,3.609375,4.265625,3.53125
1664563769677,-0.46972656,-0.9368286,0.19134521,0.296875,7.203125,1.1875
1664563769722,-0.53027344,-0.9727173,0.19647217,-3.375,6.546875,-2.6875
1664563769752,-0.61816406,-1.138977,0.17376709,-5.421875,6.328125,-5.03125
1664563769797,-0.5847168,-1.1836548,0.15228271,1.65625,7.3125,-5.546875
1664563769826,-0.55566406,-1.2810669,0.07684326,-5.484375,1.265625,-4.1875
1664563769872,-0.45532227,-0.9944458,-0.002746582,-1.90625,14.375,-9.28125
1664563769917,-0.23803711,-0.75250244,-0.117492676,10.0,5.9375,0.21875
1664563769946,-0.3083496,-0.9434204,-0.066467285,2.28125,7.40625,1.515625
1664563769992,-0.58935547,-0.87457275,0.054138184,-4.9375,-12.578125,-2.59375
1664563770037,-0.46972656,-0.87457275,0.078308105,-10.53125,-7.75,2.265625
1664563770068,-0.45361328,-0.8386841,0.09100342,-7.984375,-11.484375,-5.296875
1664563770112,-0.47192383,-0.7354126,0.13787842,3.71875,-0.546875,-3.703125
1664563770142,-0.34814453,-0.7136841,0.034606934,2.1875,-2.578125,-3.65625
1664563770187,-0.42773438,-0.74346924,0.12176514,6.515625,2.546875,-4.109375
1664563770234,-0.45996094,-0.72784424,0.086120605,1.828125,-0.546875,1.078125
1664563770261,-0.42138672,-0.7366333,0.043884277,-2.421875,0.125,-0.546875
1664563770308,-0.47509766,-0.7962036,0.15423584,3.03125,-0.109375,-0.203125
1664563770352,-0.49291992,-0.8479614,0.11199951,-4.265625,2.9375,-0.140625
1664563770382,-0.5073242,-0.8394165,0.08026123,7.671875,2.59375,-0.171875
1664563770427,-0.5788574,-0.85772705,0.15911865,-0.984375,-4.96875,-4.171875
1664563770457,-0.6875,-0.98687744,0.13079834,-8.984375,1.4375,-4.734375
1664563770502,-0.71875,-1.0930786,0.19476318,-6.40625,-7.15625,-4.28125
1664563770546,-0.6945801,-1.2376099,0.15447998,-9.15625,-1.640625,-7.53125
1664563770577,-0.71362305,-1.3325806,0.036071777,-3.703125,-3.234375,-1.0
1664563770622,-0.30004883,-1.0042114,-0.003967285,15.5625,8.84375,1.421875
1664563770667,-0.3647461,-0.67071533,-0.06060791,1.59375,8.453125,10.015625
1664563770697,-0.40234375,-0.8242798,0.11395264,-15.1875,-32.90625,1.21875
1664563770742,-0.46166992,-0.829895,0.13104248,14.09375,9.625,-1.703125
1664563770786,-0.4399414,-0.85235596,0.06341553,4.328125,6.265625,-1.421875
1664563770816,-0.39990234,-0.7583618,0.081970215,0.171875,-7.53125,11.140625
1664563770862,-0.34692383,-0.70196533,0.030212402,3.296875,-4.703125,14.421875
1664563770891,-0.3388672,-0.6502075,0.08929443,4.6875,-14.25,6.703125
1664563770936,-0.40625,-0.7317505,0.15081787,0.234375,-1.921875,2.71875
1664563770982,-0.4345703,-0.72906494,0.12249756,1.171875,2.234375,2.28125
1664563771012,-0.40673828,-0.8670044,0.113708496,3.03125,9.3125,0.78125
1664563771057,-0.5205078,-0.91973877,0.17816162,-1.328125,-5.71875,4.84375
1664563771101,-0.43896484,-0.8735962,0.12957764,4.953125,2.640625,7.171875
1664563771132,-0.47021484,-0.93170166,0.19573975,-2.21875,-1.515625,4.421875
1664563771177,-0.5126953,-0.9627075,0.22821045,-4.0625,1.625,-1.078125
1664563771209,-0.5385742,-1.0046997,0.26385498,-5.8125,3.078125,-4.859375
1664563771252,-0.6245117,-1.12677,0.20159912,-3.9375,10.140625,-8.78125
1664563771297,-0.5546875,-1.2715454,0.03704834,10.828125,9.515625,1.34375
1664563771327,-0.49560547,-1.1504517,-0.008605957,7.953125,18.078125,-5.96875
1664563771372,-0.39086914,-0.8921509,-0.04840088,-1.3125,19.8125,-6.65625
1664563771417,-0.3034668,-0.8633423,-0.1194458,10.78125,19.75,-0.71875
1664563771447,-0.4489746,-0.9590454,-0.042297363,10.0,10.09375,-3.265625
1664563771492,-0.53564453,-0.8814087,0.042175293,-4.640625,-1.8125,-1.296875
1664563771538,-0.47680664,-0.88360596,0.055603027,-0.8125,-5.625,-1.53125
1664563771566,-0.40698242,-0.81378174,0.042907715,-7.0,-0.734375,-6.21875
1664563771612,-0.4663086,-0.75909424,0.11883545,-1.71875,-15.71875,-2.296875
1664563771642,-0.37060547,-0.7149048,0.11053467,4.640625,0.4375,-2.953125
1664563771686,-0.3581543,-0.6482544,0.029724121,3.1875,-7.578125,-1.71875
1664563771731,-0.50561523,-0.6992798,0.10028076,-8.578125,-30.734375,4.953125
1664563771762,-0.51171875,-0.75177,0.20379639,-4.71875,-2.71875,2.46875
1664563771807,-0.51782227,-0.8394165,0.046569824,-3.03125,-5.1875,1.78125
1664563771852,-0.5839844,-0.8045044,0.14324951,3.515625,-2.6875,-0.546875
1664563771882,-0.53686523,-0.85723877,0.13275146,1.171875,-4.34375,-2.71875
1664563771926,-0.61328125,-0.9212036,0.22381592,-3.453125,-3.734375,-8.953125
1664563771956,-0.61865234,-0.9990845,0.13250732,-7.34375,2.484375,-4.390625
1664563772002,-0.65966797,-1.0615845,0.08880615,-9.84375,-3.109375,0.9375
1664563772047,-0.7114258,-1.1516724,0.15863037,-12.03125,2.359375,-4.3125
1664563772077,-0.49414062,-1.3306274,0.074157715,6.84375,3.46875,-4.296875
1664563772122,-0.41845703,-0.8543091,-0.04840088,10.203125,16.9375,3.703125
1664563772169,-0.4255371,-0.7637329,-0.14703369,-7.203125,1.96875,5.28125
1664563772197,-0.3557129,-0.88604736,0.027282715,12.90625,-8.3125,0.515625
1664563772242,-0.49194336,-0.8936157,0.16253662,9.375,-2.5625,1.3125
1664563772287,-0.42114258,-0.80792236,0.031677246,4.140625,6.28125,2.03125
1664563772317,-0.35766602,-0.78912354,0.022644043,7.40625,-0.75,7.546875
1664563772362,-0.40405273,-0.77056885,0.07318115,7.09375,-7.4375,7.40625
1664563772391,-0.40820312,-0.70147705,0.08148193,2.859375,-0.03125,5.28125
1664563772437,-0.37451172,-0.76641846,0.06488037,5.578125,-4.53125,5.59375
1664563772482,-0.42260742,-0.75567627,0.090026855,-0.84375,-1.953125,3.03125
1664563772514,-0.4128418,-0.80841064,0.08416748,4.140625,0.515625,2.890625
1664563772557,-0.453125,-0.8587036,0.12835693,-5.28125,-5.484375,4.296875
1664563772602,-0.45581055,-0.864563,0.12982178,-4.140625,-4.140625,2.734375
1664563772632,-0.5029297,-0.89141846,0.1552124,-2.234375,2.53125,1.734375
1664563772677,-0.48657227,-0.90411377,0.18670654,0.59375,4.03125,-0.515625
1664563772707,-0.56274414,-1.0169067,0.1984253,-7.4375,13.78125,-8.890625
1664563772752,-0.5073242,-1.1882935,0.15496826,5.890625,5.234375,-6.453125
1664563772796,-0.6225586,-1.2581177,0.05731201,-6.203125,-3.8125,-0.1875
1664563772827,-0.65771484,-1.2415161,-0.03375244,4.171875,11.765625,-4.25
1664563772872,-0.37963867,-0.89019775,-0.18511963,4.3125,19.171875,-5.78125
1664563772917,-0.25170898,-0.7776489,-0.13165283,-0.453125,6.53125,0.859375
1664563772947,-0.47680664,-0.9360962,-0.04522705,5.140625,-5.8125,2.5625
1664563772992,-0.52563477,-0.8521118,0.011413574,-0.4375,-9.90625,2.640625
1664563773037,-0.48046875,-0.8196411,0.034851074,-8.765625,-11.8125,1.34375
1664563773067,-0.43676758,-0.79400635,0.043640137,-3.078125,-5.4375,-3.71875
1664563773114,-0.4128418,-0.72125244,0.09295654,15.53125,-7.203125,-0.09375
1664563773141,-0.359375,-0.73272705,0.042907715,5.078125,8.640625,-4.609375
1664563773189,-0.40551758,-0.70318604,0.02947998,15.1875,-2.890625,5.4375
1664563773232,-0.4177246,-0.74176025,0.0758667,-3.640625,-8.203125,3.765625
1664563773262,-0.47802734,-0.772522,0.06878662,-2.671875,-6.671875,3.8125
1664563773307,-0.5522461,-0.8460083,0.08807373,-6.765625,-9.953125,0.046875
1664563773352,-0.52490234,-0.8916626,0.11004639,-8.5,-4.59375,-4.421875
1664563773382,-0.5786133,-0.8880005,0.109069824,-4.8125,-5.59375,-8.21875
1664563773428,-0.70703125,-0.8623657,0.16107178,-19.15625,-4.578125,-9.359375
1664563773457,-0.6984863,-1.0628052,0.09490967,-3.90625,7.765625,-6.578125
1664563773502,-0.6867676,-1.2368774,-0.0068969727,-3.265625,8.203125,-6.8125
1664563773547,-0.6989746,-1.3311157,0.07513428,2.9375,5.25,-3.8125
1664563773577,-0.47192383,-1.069397,0.025817871,12.703125,20.25,-4.484375
1664563773624,-0.3305664,-0.7131958,-0.10357666,9.84375,25.515625,6.734375
1664563773667,-0.35595703,-0.8694458,-0.06939697,6.921875,-8.5,3.5625
1664563773697,-0.4650879,-0.9529419,0.03704834,5.875,-10.0625,3.59375
1664563773742,-0.5266113,-0.8171997,0.066345215,-21.328125,-24.140625,3.171875
1664563773772,-0.38110352,-0.75616455,0.0914917,11.125,7.765625,8.21875
1664563773817,-0.34057617,-0.82281494,0.022399902,16.421875,9.796875,11.21875
1664563773862,-0.40454102,-0.68585205,-6.1035156E-5,-11.234375,-15.125,11.9375
1664563773892,-0.3815918,-0.6253052,0.082214355,2.796875,-12.96875,3.9375
1664563773936,-0.39404297,-0.78912354,0.11541748,8.609375,11.359375,0.890625
1664563773982,-0.4165039,-0.8308716,0.026794434,14.265625,12.53125,0.265625
1664563774012,-0.38330078,-0.864563,0.08074951,6.203125,-2.671875,5.875
1664563774057,-0.47509766,-0.84625244,0.07684326,-10.046875,-5.28125,5.6875
1664563774133,-0.43554688,-0.88604736,0.1539917,5.078125,2.0625,5.953125
1664563774137,-0.4580078,-0.9631958,0.16351318,0.828125,1.1875,2.59375
1664563774177,-0.5463867,-0.99102783,0.16619873,-13.125,8.484375,-9.140625
1664563774206,-0.5773926,-1.1748657,0.18231201,-1.4375,8.125,-8.0625
1664563774254,-0.52124023,-1.4019165,0.038513184,-2.859375,15.828125,-11.546875
1664563774298,-0.70581055,-1.2971802,0.0099487305,-1.5625,9.6875,-8.640625
1664563774327,-0.43530273,-0.89678955,-0.08746338,-6.328125,12.390625,-9.3125
1664563774372,-0.22753906,-0.6773071,-0.08306885,-5.9375,-1.046875,3.5625
1664563774417,-0.3725586,-0.9053345,-0.06719971,36.625,44.625,-5.1875
1664563774447,-0.5969238,-0.9229126,-0.11651611,-0.140625,9.921875,4.125
1664563774492,-0.43432617,-0.77838135,-0.016174316,6.9375,-25.078125,-0.578125
1664563774522,-0.4013672,-0.84625244,0.04559326,-7.4375,-30.796875,0.125
1664563774568,-0.4868164,-0.7420044,0.09051514,-0.265625,-19.890625,3.28125
1664563774612,-0.35229492,-0.6694946,0.074401855,11.515625,13.375,-0.1875
1664563774642,-0.43701172,-0.7822876,-0.008117676,15.4375,17.5625,2.390625
1664563774687,-0.43554688,-0.73638916,-0.062316895,-5.75,-0.171875,1.53125
1664563774732,-0.45385742,-0.84381104,0.016540527,4.625,-14.65625,-1.296875
1664563774762,-0.47924805,-0.89312744,0.105163574,5.4375,-3.703125,-8.859375
1664563774807,-0.5883789,-0.7686157,0.09466553,-6.671875,-1.25,-3.171875
1664563774882,-0.5942383,-0.82232666,0.113464355,-4.859375,-13.609375,-4.546875
1664563774886,-0.6098633,-0.9546509,0.06439209,-5.625,13.890625,-6.59375
1664563774927,-0.63916016,-1.0366821,-0.020080566,-5.3125,-9.703125,5.59375
1664563774956,-0.69189453,-1.2068481,-0.0076293945,-10.4375,-9.671875,-2.203125
1664563775002,-0.67333984,-1.2009888,0.04046631,-8.640625,-4.734375,0.5625
1664563775046,-0.45336914,-1.1138306,-0.11260986,7.140625,17.09375,3.484375
1664563775076,-0.29614258,-0.8413696,-0.2107544,15.359375,2.765625,0.328125
1664563775122,-0.359375,-0.8377075,-0.066467285,3.53125,-18.21875,4.21875
1664563775167,-0.3618164,-0.86846924,0.0211792,8.125,-2.890625,0.40625
1664563775199,-0.4248047,-0.8040161,-0.042785645,8.78125,9.40625,-3.5
1664563775242,-0.39331055,-0.8491821,-0.011291504,-10.515625,1.703125,-6.015625
1664563775272,-0.3959961,-0.80426025,-0.009338379,-0.234375,-0.9375,1.90625
1664563775317,-0.40283203,-0.70562744,-0.0095825195,-12.46875,-4.59375,2.859375
1664563775362,-0.4169922,-0.6030884,-0.0134887695,-15.625,-20.265625,-2.125
1664563775392,-0.46118164,-0.74664307,0.13201904,-8.59375,-21.796875,1.515625
1664563775437,-0.40576172,-0.7913208,0.07293701,-3.296875,4.5,-1.578125
1664563775481,-0.4753418,-0.83843994,0.07122803,-6.25,-8.015625,-0.296875
1664563775511,-0.53759766,-0.83184814,0.13397217,-0.625,-3.578125,1.828125
1664563775557,-0.54174805,-0.7979126,0.10345459,-0.46875,5.703125,-0.828125
1664563775601,-0.5175781,-0.9246216,0.168396,4.375,6.1875,0.6875
1664563775634,-0.58618164,-1.0010376,0.17352295,-2.421875,7.328125,-2.234375
1664563775677,-0.5864258,-1.1118774,0.16571045,-1.859375,14.640625,-4.15625
1664563775707,-0.6274414,-1.3482056,0.152771,-1.671875,3.65625,2.921875
1664563775752,-0.67333984,-1.2681274,-0.01763916,0.703125,8.375,-7.546875
1664563775797,-0.4609375,-0.9048462,-0.2053833,-1.171875,30.921875,-7.234375
1664563775827,-0.22290039,-0.80352783,-0.12432861,5.578125,14.21875,-0.828125
1664563775874,-0.5073242,-0.87164307,-0.11065674,4.203125,3.78125,1.40625
1664563775916,-0.5917969,-0.8430786,0.04144287,-6.921875,-6.109375,3.0
1664563775946,-0.4038086,-0.8430786,0.038513184,-5.34375,-8.140625,0.078125
1664563775992,-0.44555664,-0.7539673,0.105895996,-3.890625,11.9375,-7.796875
1664563776024,-0.4650879,-0.7229614,0.09320068,10.59375,11.96875,-7.921875
1664563776069,-0.4267578,-0.6885376,0.055847168,7.546875,5.0,-4.234375
1664563776112,-0.42211914,-0.75323486,0.07537842,6.75,-1.15625,0.3125
1664563776142,-0.5004883,-0.69415283,0.06878662,2.515625,-9.34375,2.5
1664563776187,-0.5593262,-0.77178955,0.17816162,-7.9375,-6.765625,-0.046875
1664563776232,-0.564209,-0.81988525,0.101257324,-4.171875,-1.640625,-3.984375
1664563776261,-0.5632324,-0.80792236,0.13421631,-11.0,-9.515625,-3.234375
1664563776307,-0.6843262,-0.8987427,0.1930542,-20.390625,-6.015625,-7.828125
1664563776337,-0.6828613,-0.91656494,0.19696045,-13.15625,-6.5625,-10.375
1664563776382,-0.6333008,-0.9573364,0.13006592,-8.484375,-9.578125,3.515625
1664563776427,-0.7783203,-1.28302,0.029968262,-21.96875,3.0,-3.8125
1664563776457,-0.6364746,-1.229065,0.085632324,10.734375,4.65625,-5.515625
1664563776502,-0.453125,-0.91241455,-0.008361816,19.0,2.65625,-0.25
1664563776547,-0.43286133,-0.7476196,-0.074035645,7.671875,1.921875,6.859375
1664563776577,-0.40722656,-0.90631104,0.023864746,1.71875,-2.296875,1.84375
1664563776621,-0.56225586,-0.9102173,0.15692139,6.1875,-0.578125,1.078125
1664563776697,-0.49389648,-0.84088135,0.028259277,12.421875,8.546875,2.078125
1664563776701,-0.39160156,-0.8115845,0.031677246,8.515625,-6.765625,12.890625
1664563776742,-0.46923828,-0.71295166,0.07928467,-1.515625,-10.75,8.0
1664563776772,-0.4165039,-0.6682739,0.090270996,4.078125,-6.265625,5.03125
1664563776818,-0.4560547,-0.67926025,0.0053100586,-5.8125,3.734375,-0.59375
1664563776862,-0.42260742,-0.7034302,0.15765381,6.625,-4.03125,3.25
1664563776892,-0.40844727,-0.82281494,0.07293701,4.5,3.65625,4.1875
1664563776937,-0.501709,-0.8237915,0.14959717,-0.21875,1.53125,1.46875
1664563776981,-0.53344727,-0.81036377,0.1762085,-1.125,-1.96875,1.5
1664563777013,-0.49560547,-0.87750244,0.17718506,0.6875,3.046875,-1.0625
1664563777057,-0.5222168,-0.8916626,0.20233154,-2.859375,3.609375,-3.390625
1664563777087,-0.53930664,-0.9636841,0.1486206,-5.953125,-0.4375,-3.46875
1664563777132,-0.56469727,-1.164856,0.15594482,-4.625,4.671875,-4.53125
1664563777177,-0.640625,-1.3567505,0.17449951,-8.484375,4.90625,-8.46875
1664563777207,-0.7050781,-1.1426392,-0.0134887695,-4.34375,6.890625,-9.9375
1664563777252,-0.40405273,-0.9182739,-0.15289307,-2.28125,4.484375,-1.46875
1664563777297,-0.29589844,-0.78570557,-0.109436035,2.640625,-10.484375,1.875
1664563777327,-0.5895996,-0.86065674,-0.035705566,-10.25,-10.328125,-0.78125
1664563777372,-0.6201172,-0.8428345,0.026794434,-2.0,3.796875,-4.34375
1664563777417,-0.48266602,-0.83306885,0.05999756,-2.078125,0.09375,-1.4375
1664563777446,-0.48510742,-0.75738525,0.07684326,3.21875,-4.78125,-1.3125
1664563777492,-0.4074707,-0.6987915,0.06072998,9.765625,-6.3125,0.359375
1664563777521,-0.3869629,-0.65826416,0.081726074,9.890625,-1.59375,3.671875
1664563777567,-0.44360352,-0.6773071,0.0524292,3.46875,2.625,5.0625
1664563777612,-0.4934082,-0.7161255,0.024353027,3.734375,-1.046875,4.625
1664563777642,-0.51953125,-0.7683716,0.066833496,4.40625,-16.375,6.53125
1664563777689,-0.59033203,-0.7925415,0.089782715,-3.25,-8.328125,2.34375
1664563777732,-0.59472656,-0.85357666,0.09637451,-2.546875,-3.375,-4.609375
1664563777762,-0.5961914,-0.803772,0.16888428,4.40625,-0.484375,-4.46875
1664563777807,-0.6242676,-0.8880005,0.14178467,-2.84375,3.4375,-5.96875
1664563777837,-0.60302734,-0.9956665,0.031677246,-17.265625,2.59375,-2.546875
1664563777884,-0.8166504,-1.1965942,0.10858154,-4.03125,-4.484375,-4.1875
1664563777927,-0.67749023,-1.2991333,0.04144287,6.28125,7.96875,-1.1875
1664563777956,-0.58813477,-1.0234985,-0.0256958,-5.4375,19.484375,-11.015625
1664563778002,-0.35058594,-0.8442993,-0.0095825195,5.1875,27.71875,0.234375
1664563778047,-0.43188477,-0.8569946,-0.038635254,12.484375,18.46875,5.921875
1664563778077,-0.48754883,-0.8538208,-0.01373291,15.90625,6.34375,-2.9375
1664563778122,-0.52441406,-0.7966919,0.039978027,-3.4375,-13.640625,2.875
1664563778167,-0.43603516,-0.83013916,0.109802246,8.703125,-0.625,8.875
1664563778197,-0.4794922,-0.80718994,0.07244873,0.375,-4.15625,9.671875
1664563778242,-0.48242188,-0.6819458,0.09222412,0.953125,-2.25,6.953125
1664563778272,-0.41088867,-0.6865845,0.07269287,5.40625,6.171875,5.125
1664563778317,-0.43554688,-0.7229614,0.10272217,3.859375,-3.453125,8.578125
1664563778363,-0.43115234,-0.7324829,0.06365967,7.671875,11.703125,4.65625
1664563778392,-0.39648438,-0.81573486,0.14959717,3.4375,-3.78125,5.515625
1664563778437,-0.47998047,-0.85601807,0.15203857,-4.671875,-2.6875,3.0
1664563778482,-0.50024414,-0.85235596,0.19403076,2.6875,1.609375,1.734375
1664563778512,-0.4650879,-0.9356079,0.20574951,5.265625,3.5,5.390625
1664563778557,-0.5241699,-0.94122314,0.24139404,-7.71875,1.65625,-2.359375
1664563778587,-0.55615234,-0.9656372,0.19720459,-1.15625,8.65625,-4.5
1664563778632,-0.59033203,-1.3545532,0.2296753,1.265625,8.75,-2.046875
1664563778677,-0.7116699,-1.1228638,0.08343506,-1.53125,8.515625,-19.84375
1664563778707,-0.4675293,-1.0601196,-0.06500244,-19.84375,13.375,-15.421875
1664563778755,-0.45629883,-0.83306885,-0.02911377,-17.734375,5.375,-8.53125
1664563778797,-0.4453125,-0.86505127,-0.1182251,7.984375,13.375,0.453125
1664563778826,-0.49951172,-0.81134033,-0.085510254,4.25,-6.59375,-0.828125
1664563778872,-0.6298828,-0.74053955,0.109802246,-14.4375,-12.6875,-6.421875
1664563778902,-0.4189453,-0.8184204,0.09881592,19.21875,-12.21875,-3.15625
1664563778947,-0.43798828,-0.737854,0.06048584,3.796875,-10.78125,2.71875
1664563778994,-0.4411621,-0.64727783,0.05340576,5.765625,-18.453125,2.609375
1664563779021,-0.4519043,-0.7251587,0.215271,6.921875,-6.25,4.203125
1664563779069,-0.46777344,-0.72491455,0.0138549805,8.984375,19.296875,2.59375
1664563779112,-0.54956055,-0.75787354,-0.014953613,-1.28125,3.421875,-3.484375
1664563779142,-0.53271484,-0.81866455,0.09857178,-3.484375,-19.375,-1.671875
1664563779187,-0.5830078,-0.8110962,0.10784912,-3.515625,2.296875,-0.875
1664563779232,-0.59375,-0.8164673,0.07122803,6.09375,-12.71875,3.21875
1664563779262,-0.6999512,-0.93585205,0.17352295,-15.625,1.109375,-4.21875
1664563779307,-0.7133789,-1.0403442,0.1383667,-13.953125,-9.234375,3.234375
1664563779336,-0.7080078,-1.0498657,-0.026916504,-21.046875,-4.5,2.5625
1664563779382,-0.6369629,-1.2610474,0.15594482,-1.875,-13.765625,3.609375
1664563779427,-0.42285156,-1.1443481,0.018737793,11.265625,4.671875,5.625
1664563779457,-0.3720703,-0.7908325,-0.13800049,19.828125,5.265625,12.96875
1664563779502,-0.4333496,-0.8196411,0.030944824,-4.125,-22.421875,2.40625
1664563779547,-0.42456055,-0.864563,0.09197998,3.34375,0.3125,-2.625
1664563779577,-0.46679688,-0.8274536,0.031433105,-4.6875,11.578125,-2.171875
1664563779622,-0.4284668,-0.84869385,0.028015137,3.015625,3.796875,1.28125
1664563779652,-0.39941406,-0.7695923,0.04534912,5.46875,-0.921875,3.8125
1664563779699,-0.43188477,-0.69976807,0.04827881,-1.328125,-5.703125,2.515625
1664563779742,-0.41845703,-0.6790161,0.08026123,-7.28125,-14.34375,0.625
1664563779772,-0.43701172,-0.7473755,0.08123779,1.921875,-4.9375,0.328125
1664563779817,-0.4699707,-0.784729,0.16107178,5.3125,-3.015625,2.75
1664563779862,-0.48364258,-0.81427,0.089782715,-2.734375,15.796875,-0.4375
1664563779892,-0.51464844,-0.866272,0.10809326,4.515625,-2.96875,4.75
1664563779939,-0.49438477,-0.8411255,0.17254639,3.984375,10.15625,1.78125
1664563779982,-0.4675293,-0.94976807,0.17962646,5.6875,7.15625,1.875
1664563780011,-0.59814453,-0.9385376,0.246521,-7.171875,11.390625,-7.265625
1664563780057,-0.640625,-1.0090942,0.24407959,0.609375,14.921875,-14.296875
1664563780087,-0.68115234,-1.2774048,0.16668701,-5.890625,26.078125,-16.625
1664563780132,-0.75146484,-1.1526489,-0.019348145,2.84375,26.84375,-14.296875
1664563780177,-0.40307617,-1.0249634,-0.08917236,9.609375,23.625,-4.6875
1664563780207,-0.32836914,-0.8074341,-0.08135986,10.296875,7.09375,3.25
1664563780252,-0.47070312,-0.8479614,-0.036193848,1.0,3.90625,1.5
1664563780297,-0.5944824,-0.8648071,0.0446167,3.6875,-11.078125,1.65625
1664563780327,-0.5107422,-0.7102661,0.08905029,-8.234375,-23.53125,7.609375
1664563780373,-0.42016602,-0.80792236,0.12640381,-5.96875,-9.828125,-3.859375
1664563780402,-0.51660156,-0.7107544,0.053894043,9.640625,-1.359375,0.828125
1664563780447,-0.43969727,-0.66534424,0.08026123,-3.34375,-15.953125,5.0
1664563780492,-0.4350586,-0.74957275,0.117614746,10.125,-3.234375,8.21875
1664563780521,-0.48706055,-0.6929321,0.07977295,-2.78125,8.375,11.65625
1664563780567,-0.5373535,-0.784729,0.105651855,10.609375,-10.765625,-0.5
1664563780612,-0.6218262,-0.85650635,0.18719482,-6.1875,-0.390625,-0.25
1664563780642,-0.5593262,-0.7971802,0.07879639,-1.984375,8.203125,-5.65625
1664563780688,-0.5888672,-0.88238525,0.10638428,-8.828125,-16.0625,3.8125
1664563780732,-0.609375,-0.87164307,0.10491943,-19.375,4.59375,-5.515625
1664563780762,-0.8149414,-0.940979,0.2189331,-12.96875,10.421875,-1.71875
1664563780807,-0.68115234,-1.0935669,0.057556152,-13.265625,7.75,-4.828125
1664563780839,-0.548584,-1.3276978,0.14837646,4.046875,-0.828125,3.015625
1664563780882,-0.43603516,-1.131897,0.020935059,2.03125,12.28125,-8.71875
1664563780927,-0.40112305,-0.8015747,0.007019043,10.421875,5.1875,3.015625
1664563780956,-0.36035156,-0.8682251,0.054138184,0.25,0.203125,0.640625
1664563781002,-0.40185547,-0.92755127,0.08123779,1.109375,-3.953125,-4.25
1664563781062,-0.5234375,-0.85284424,0.1696167,-2.90625,2.34375,-0.671875
1664563781076,-0.41015625,-0.8843384,0.1161499,12.546875,10.125,1.390625
1664563781122,-0.37158203,-0.8128052,0.09124756,2.375,2.078125,8.90625
1664563781152,-0.40576172,-0.71466064,0.11639404,-0.578125,-8.09375,7.6875
1664563781197,-0.4230957,-0.6856079,0.14764404,5.625,-1.28125,2.5625
1664563781242,-0.4194336,-0.7202759,0.14422607,4.34375,2.0,1.21875
1664563781272,-0.39526367,-0.7654419,0.15570068,7.65625,1.5625,2.6875
1664563781317,-0.4309082,-0.8389282,0.12054443,3.890625,0.953125,3.421875
1664563781362,-0.4338379,-0.8477173,0.15740967,4.265625,-4.875,5.828125
1664563781392,-0.5053711,-0.8587036,0.16375732,1.6875,2.4375,3.96875
1664563781439,-0.52124023,-0.9187622,0.2633667,3.0625,3.234375,4.296875
1664563781482,-0.5395508,-0.99420166,0.21038818,1.5,7.390625,-2.75
1664563781512,-0.65771484,-1.2341919,0.24505615,-6.421875,-1.15625,-3.15625
1664563781557,-0.72021484,-1.2879028,0.15252686,14.25,16.21875,-10.296875
1664563781587,-0.48779297,-1.2254028,-0.12701416,24.3125,23.65625,-3.015625
1664563781632,-0.2758789,-0.8086548,-0.097961426,-0.453125,19.0625,-10.90625
1664563781677,-0.32543945,-0.8513794,-0.058166504,-7.15625,1.8125,3.65625
1664563781707,-0.4987793,-0.91973877,-0.054992676,13.234375,-8.625,5.265625
1664563781754,-0.56152344,-0.78863525,0.029968262,-15.703125,-21.390625,1.953125
1664563781797,-0.50390625,-0.8023071,0.15740967,-10.78125,-22.453125,-1.6875
1664563781827,-0.39282227,-0.7493286,0.078063965,8.75,-5.890625,-4.609375
1664563781874,-0.38598633,-0.6917114,0.026062012,-7.40625,-15.25,-1.53125
1664563781902,-0.48217773,-0.6812134,0.074645996,-5.625,-7.8125,-3.6875
1664563781947,-0.47729492,-0.7312622,0.13934326,-8.578125,-6.046875,-4.6875
1664563781992,-0.41625977,-0.7744751,0.034606934,8.96875,5.734375,-1.859375
1664563782022,-0.51782227,-0.8128052,0.1383667,-15.421875,-13.078125,-4.5625
1664563782067,-0.5830078,-0.8088989,0.120788574,-11.765625,-2.453125,-5.6875
1664563782113,-0.63378906,-0.819397,0.1449585,-9.84375,-3.90625,-6.125
1664563782141,-0.67871094,-0.8814087,0.17254639,-3.078125,0.828125,-11.171875
1664563782187,-0.74658203,-0.9661255,0.22698975,-20.28125,-2.078125,-8.84375
1664563782217,-0.7858887,-1.2007446,0.08538818,-11.390625,3.828125,-3.203125
1664563782262,-0.70654297,-1.2398071,0.17132568,1.875,-5.828125,1.96875
1664563782307,-0.501709,-1.1450806,0.0770874,17.6875,11.359375,7.109375
1664563782337,-0.3659668,-0.74786377,-0.066467285,14.421875,13.9375,5.25
1664563782382,-0.4482422,-0.770813,-0.018371582,-10.484375,-14.5,-1.421875
1664563782427,-0.46948242,-0.96051025,0.2230835,6.515625,-27.90625,0.0
1664563782457,-0.5600586,-0.79034424,0.15301514,-20.234375,7.546875,-2.234375
1664563782502,-0.47485352,-0.7727661,0.07293701,9.234375,-0.65625,10.953125
1664563782547,-0.3474121,-0.7827759,0.090270996,-4.1875,-7.421875,10.921875
1664563782577,-0.4375,-0.67193604,0.15179443,-8.109375,-11.0625,8.84375
1664563782622,-0.4169922,-0.6758423,0.09490967,1.53125,0.515625,7.953125
1664563782652,-0.43408203,-0.6987915,0.11541748,-3.171875,-8.609375,-0.359375
1664563782697,-0.43041992,-0.75006104,0.19940186,21.25,-0.34375,-0.1875
1664563782742,-0.43408203,-0.8584595,0.089782715,5.0,-2.796875,5.953125
1664563782772,-0.5036621,-0.8257446,0.17327881,0.625,2.75,-0.046875
1664563782819,-0.51171875,-0.8897095,0.21746826,16.546875,3.203125,5.46875
1664563782862,-0.47558594,-0.9146118,0.1984253,7.796875,1.234375,-3.09375
1664563782892,-0.576416,-0.9507446,0.24700928,-7.984375,11.140625,-14.40625
1664563782937,-0.5004883,-1.1519165,0.20379639,4.890625,-1.921875,-10.921875
1664563782967,-0.8120117,-1.265686,0.09832764,-4.921875,18.0,-5.203125
1664563783012,-0.62841797,-1.0396118,-0.0960083,-8.9375,11.109375,-13.125
1664563783057,-0.36523438,-0.8406372,-0.0178833,-9.703125,2.4375,-2.890625
1664563783086,-0.3166504,-0.9092407,-0.062805176,7.0,30.96875,4.1875
1664563783132,-0.5583496,-0.9170532,-0.14459229,24.8125,23.203125,-0.046875
1664563783177,-0.6791992,-0.798645,0.00579834,-18.59375,-27.921875,-1.671875
1664563783207,-0.50683594,-0.88409424,0.16448975,19.125,-14.25,-1.90625
1664563783252,-0.52783203,-0.80303955,0.07269287,5.46875,11.171875,3.0625
1664563783328,-0.40307617,-0.70513916,0.015563965,15.015625,-1.015625,7.71875
1664563783330,-0.3947754,-0.67388916,0.023132324,13.84375,-3.875,12.984375
1664563783372,-0.47509766,-0.72198486,-0.058166504,4.171875,12.46875,5.484375
1664563783417,-0.4111328,-0.737854,6.713867E-4,6.09375,-22.578125,7.84375
1664563783447,-0.41577148,-0.7827759,0.030944824,2.375,9.359375,1.609375
1664563783492,-0.46435547,-0.79888916,-0.01373291,-1.828125,-9.28125,1.671875
1664563783522,-0.54785156,-0.8521118,0.14056396,0.21875,-11.40625,-1.484375
1664563783567,-0.58740234,-0.8413696,0.053894043,-0.9375,-0.921875,-9.015625
1664563783612,-0.6533203,-0.86383057,0.101501465,-13.796875,-4.046875,-9.6875
1664563783642,-0.6101074,-0.9624634,0.11468506,-9.1875,-0.921875,-7.265625
1664563783687,-0.62280273,-1.0484009,0.09295654,-3.0625,0.1875,-0.28125
1664563783717,-0.6328125,-1.1067505,0.06561279,-1.515625,-0.265625,1.140625
1664563783762,-0.7355957,-1.1712036,0.109313965,-2.140625,-1.984375,-5.96875
1664563783807,-0.6513672,-1.0908813,0.121032715,4.921875,11.40625,-9.28125
1664563783837,-0.265625,-0.8765259,-0.090148926,12.21875,46.296875,2.078125
1664563783882,-0.4699707,-0.8098755,-0.26104736,6.484375,22.765625,3.9375
1664563783927,-0.44677734,-0.8460083,0.07196045,-13.90625,-26.890625,-5.171875
1664563783959,-0.5332031,-0.87091064,0.10394287,-13.296875,3.84375,-10.5
1664563784002,-0.49438477,-0.80914307,0.07318115,-10.484375,3.421875,1.28125
1664563784047,-0.40551758,-0.7305298,0.078063965,-15.5,-9.609375,8.78125
1664563784077,-0.44384766,-0.6885376,0.066833496,-16.296875,-17.09375,5.859375
1664563784122,-0.4182129,-0.63604736,0.059265137,-12.390625,-36.078125,7.25
1664563784152,-0.501709,-0.66900635,0.324646,2.4375,-12.5625,6.78125
1664563784198,-0.45336914,-0.72076416,0.16790771,13.28125,28.25,0.125
1664563784242,-0.4584961,-0.81915283,0.10443115,10.90625,20.796875,0.03125
1664563784272,-0.53271484,-0.86309814,0.16253662,7.25,0.984375,6.796875
1664563784317,-0.50341797,-0.8323364,0.2164917,13.609375,1.484375,9.4375
1664563784362,-0.5102539,-0.9277954,0.17523193,-1.96875,7.5625,2.90625
1664563784392,-0.55126953,-0.9331665,0.27801514,6.390625,6.765625,-3.046875
1664563784437,-0.5900879,-0.96173096,0.2892456,-0.375,14.828125,-10.921875
1664563784467,-0.6281738,-1.1690063,0.23358154,8.484375,14.484375,-9.5625
1664563784512,-0.6855469,-1.1008911,0.109802246,-1.359375,9.21875,-13.9375
1664563784557,-0.5957031,-1.1091919,0.12908936,-5.03125,17.578125,-16.640625
1664563784588,-0.51342773,-0.9011841,-0.01373291,-16.0625,31.328125,-14.046875
1664563784635,-0.46362305,-0.8657837,-0.06378174,39.53125,50.34375,-10.421875
1664563784677,-0.53564453,-0.9143677,-0.120910645,6.109375,15.78125,0.15625
1664563784707,-0.6813965,-0.7000122,0.031188965,-21.5625,-41.546875,2.140625
1664563784752,-0.50390625,-0.80352783,0.2670288,2.046875,-20.125,0.1875
1664563784781,-0.43017578,-0.7070923,0.11810303,-1.421875,12.734375,-9.375
1664563784827,-0.43945312,-0.7180786,0.028747559,7.34375,-0.328125,-4.65625
1664563784872,-0.43603516,-0.661438,0.05657959,-6.671875,-27.625,3.765625
1664563784902,-0.52001953,-0.66485596,0.07733154,-30.09375,-72.109375,7.265625
1664563784947,-0.63256836,-0.642395,0.43450928,-9.625,-1.578125,4.140625
1664563784992,-0.5307617,-0.7913208,0.0446167,-4.609375,-1.15625,-2.40625
1664563785022,-0.6081543,-0.6890259,0.1762085,-0.6875,-12.0625,5.828125
1664563785069,-0.6159668,-0.7893677,0.15228271,4.671875,4.140625,-1.0
1664563785143,-0.66015625,-0.7752075,0.15765381,0.484375,-9.859375,-2.8125
1664563785147,-0.78027344,-0.89849854,0.21087646,-5.65625,-2.796875,-3.578125
1664563785187,-1.019043,-1.3723755,0.13494873,-9.640625,-7.625,-4.015625
1664563785216,-0.86816406,-1.3757935,0.19134521,-4.578125,-12.734375,-0.25
1664563785262,-0.5583496,-1.1052856,-0.029846191,10.84375,9.46875,9.953125
1664563785307,-0.25073242,-0.7359009,-0.11895752,18.0,1.59375,14.625
1664563785339,-0.5024414,-0.65411377,0.05657959,-12.703125,-24.671875,10.0625
1664563785382,-0.3515625,-0.6226196,0.1449585,25.53125,20.59375,13.75
1664563785442,-0.29614258,-0.6248169,-0.04547119,-9.703125,13.625,1.421875
1664563785457,-0.48046875,-0.6712036,0.081970215,14.640625,-8.453125,-7.84375
1664563785504,-0.29541016,-0.8740845,0.10784912,-9.65625,42.21875,-16.453125
1664563785532,-0.53515625,-0.84161377,-0.06549072,-31.59375,1.0625,-10.890625
1664563785577,-0.5529785,-0.66900635,0.08538818,-8.234375,-36.75,1.28125
1664563785622,-0.5629883,-0.9246216,0.24945068,-8.09375,-5.75,-9.171875
1664563785652,-0.6027832,-0.88409424,0.12786865,-8.0,-0.515625,-7.015625
1664563785697,-0.5917969,-0.78912354,0.15130615,-5.5625,-9.703125,0.28125
1664563785743,-0.53808594,-0.77545166,0.14520264,3.328125,-4.53125,1.5
1664563785772,-0.60913086,-0.8460083,0.20111084,2.0625,-6.875,-0.59375
1664563785817,-0.6052246,-0.7632446,0.16693115,-6.859375,8.1875,3.25
1664563785862,-0.45117188,-0.7214966,0.20550537,17.90625,-13.125,8.0625
1664563785892,-0.59106445,-0.7661743,0.19744873,-6.671875,7.703125,0.0625
1664563785939,-0.5341797,-0.7647095,0.14715576,8.59375,9.75,2.21875
1664563785967,-0.5866699,-0.86846924,0.20794678,7.546875,-7.125,5.40625
1664563786014,-0.6347656,-0.77130127,0.24798584,3.1875,2.78125,-0.59375
1664563786057,-0.6921387,-0.8052368,0.27996826,8.0,1.484375,0.140625
1664563786086,-0.63964844,-0.9351196,0.21820068,2.34375,17.859375,-4.953125
1664563786133,-0.82128906,-1.0986938,0.2345581,13.71875,23.21875,-4.3125
1664563786177,-0.7126465,-1.2073364,0.22064209,5.65625,10.90625,1.28125
1664563786209,-0.7145996,-1.1619263,0.13470459,8.953125,14.90625,-7.703125
1664563786251,-0.5505371,-0.8723755,0.028747559,1.734375,14.796875,-5.859375
1664563786281,-0.3466797,-0.74957275,-0.062072754,3.703125,29.84375,0.984375
1664563786326,-0.5358887,-0.8308716,-0.030578613,16.421875,28.3125,-4.3125
1664563786372,-0.60058594,-0.85162354,-0.013977051,6.203125,-5.9375,2.234375
1664563786402,-0.52685547,-0.7515259,0.08929443,10.875,-18.046875,9.109375
1664563786447,-0.44580078,-0.76763916,0.11273193,-4.578125,-8.546875,1.53125
1664563786492,-0.4638672,-0.7234497,0.070495605,3.578125,-9.5,0.109375
1664563786522,-0.4975586,-0.65460205,0.06732178,-3.953125,-15.140625,-2.140625
1664563786567,-0.4855957,-0.6514282,0.08026123,1.609375,-20.234375,-0.6875
1664563786612,-0.5124512,-0.7324829,0.11956787,-2.75,-17.5,0.625
1664563786642,-0.6105957,-0.7210083,0.12640381,-0.109375,4.90625,-2.21875
1664563786687,-0.52075195,-0.81451416,0.053649902,8.3125,7.625,-5.609375
1664563786717,-0.61157227,-0.84552,0.10638428,-6.65625,-13.296875,-0.828125
1664563786762,-0.701416,-0.7583618,0.27215576,-2.921875,-3.875,-4.890625
1664563786807,-0.60791016,-0.8711548,0.04852295,9.296875,9.8125,-6.3125
1664563786837,-0.76342773,-0.9319458,0.21331787,-26.0,-25.25,-5.5
1664563786882,-0.8317871,-0.92193604,0.13226318,-1.4375,3.71875,-7.96875
1664563786927,-0.79833984,-1.0237427,0.109069824,-25.71875,-2.0625,-2.265625
1664563786957,-0.76831055,-1.204895,0.19476318,-6.96875,0.109375,-9.375
1664563787002,-0.31884766,-1.0718384,-0.0029907227,38.078125,8.15625,18.6875
1664563787032,-0.4794922,-0.6397095,-0.08258057,-12.328125,1.296875,9.78125
1664563787077,-0.4711914,-0.80914307,-0.0071411133,-7.09375,-13.375,1.421875
1664563787122,-0.46020508,-0.7288208,0.0028686523,-5.234375,-3.46875,-3.328125
1664563787152,-0.52905273,-0.77423096,0.081726074,-4.1875,-16.1875,2.28125
1664563787197,-0.4248047,-0.7991333,0.10028076,0.015625,-0.9375,15.40625
1664563787242,-0.44726562,-0.69366455,0.07147217,-6.5625,0.03125,6.890625
1664563787272,-0.5185547,-0.7017212,0.089782715,0.4375,2.484375,4.125
1664563787317,-0.4489746,-0.833313,0.14276123,1.859375,-12.390625,2.78125
1664563787347,-0.5114746,-0.755188,0.10247803,-2.484375,5.953125,1.640625
1664563787392,-0.5566406,-0.7859497,0.18255615,-9.984375,-6.03125,0.46875
1664563787437,-0.4963379,-0.85040283,0.13787842,2.296875,-6.59375,1.8125
1664563787467,-0.5031738,-0.79937744,0.11932373,-2.734375,-3.8125,3.578125
1664563787512,-0.5332031,-0.7503052,0.19476318,0.71875,-2.46875,2.78125
1664563787558,-0.51831055,-0.87164307,0.14422607,4.078125,-0.4375,3.671875
1664563787587,-0.49780273,-0.87506104,0.17474365,3.609375,-0.265625,1.453125
1664563787632,-0.62646484,-0.9492798,0.31781006,3.703125,2.625,-3.453125
1664563787678,-0.59350586,-1.0974731,0.18133545,-6.0,2.40625,-10.640625
1664563787707,-0.7775879,-1.173645,0.1293335,-16.890625,9.1875,-5.859375
1664563787752,-0.7832031,-1.1287231,-0.038635254,0.46875,25.375,-11.109375
1664563787782,-0.47607422,-0.9541626,-0.093811035,-15.109375,9.40625,-5.359375
1664563787827,-0.375,-0.7859497,-0.0178833,-10.46875,3.109375,-4.375
1664563787873,-0.5131836,-0.8386841,-0.04034424,3.0625,4.234375,4.140625
1664563787902,-0.5888672,-0.78082275,0.013122559,-0.25,-14.125,2.3125
1664563787947,-0.56274414,-0.75006104,0.082214355,-1.34375,-17.421875,6.1875
1664563787992,-0.54248047,-0.76446533,0.09222412,4.890625,-0.359375,2.515625
1664563788022,-0.47753906,-0.7346802,0.03729248,16.46875,4.734375,3.578125
1664563788067,-0.501709,-0.6826782,0.08685303,7.671875,-9.65625,4.65625
1664563788097,-0.5576172,-0.6782837,0.0914917,2.984375,4.125,0.234375
1664563788142,-0.5307617,-0.6987915,0.06536865,4.484375,0.578125,1.328125
1664563788187,-0.5505371,-0.74053955,0.0602417,3.203125,4.90625,2.921875
1664563788217,-0.5102539,-0.78692627,0.08123779,0.0,3.796875,0.671875
1664563788263,-0.54785156,-0.75909424,0.17840576,-1.390625,-6.171875,-0.578125
1664563788307,-0.54589844,-0.8335571,0.022155762,4.859375,3.8125,-5.328125
1664563788337,-0.69140625,-0.8213501,0.16619873,-1.5625,-11.421875,-2.90625
1664563788384,-0.78686523,-0.7984009,0.11077881,-11.109375,-2.84375,-10.25
1664563788427,-0.78344727,-0.9846802,0.19403076,-10.28125,3.515625,-7.453125
1664563788457,-0.7504883,-1.0361938,0.12567139,-16.1875,2.078125,-5.40625
1664563788502,-0.7792969,-1.2000122,0.19598389,-17.984375,3.0625,-8.5
1664563788532,-0.69311523,-1.1362915,0.062438965,5.234375,7.1875,-11.609375
1664563788577,-0.4169922,-0.708313,-0.043273926,-3.765625,8.25,-7.109375
1664563788623,-0.46313477,-0.7749634,0.02947998,-0.28125,-3.890625,7.34375
1664563788653,-0.46704102,-0.82232666,0.09661865,15.921875,8.890625,-6.234375
1664563788697,-0.6040039,-0.7317505,0.16693115,-8.671875,12.25,0.15625
1664563788742,-0.4716797,-0.7996216,0.10760498,23.53125,15.03125,1.5625
1664563788772,-0.4831543,-0.73321533,0.12200928,-0.9375,17.15625,-0.421875
1664563788817,-0.55029297,-0.66607666,0.1605835,6.671875,3.375,-0.921875
1664563788847,-0.5161133,-0.74102783,0.18621826,9.0,11.03125,-0.9375
1664563788893,-0.46289062,-0.71661377,0.14910889,12.734375,10.0625,0.6875
1664563788937,-0.5378418,-0.7373657,0.17547607,2.28125,1.734375,-0.203125
1664563788967,-0.56591797,-0.78448486,0.16326904,-0.671875,-5.875,2.5
1664563789011,-0.55688477,-0.7468872,0.15032959,-1.25,-6.296875,0.796875
1664563789058,-0.5812988,-0.770813,0.20550537,0.765625,-10.34375,4.796875
1664563789087,-0.56518555,-0.7852173,0.18084717,0.484375,-7.890625,3.921875
1664563789132,-0.5578613,-0.7822876,0.23162842,11.28125,-4.46875,6.25
1664563789177,-0.6052246,-0.803772,0.20941162,2.234375,8.84375,-0.078125
1664563789207,-0.6472168,-0.8328247,0.3053589,5.0625,-0.375,-0.34375
1664563789252,-0.65893555,-0.8875122,0.20599365,-1.609375,7.0,-5.359375
1664563789282,-0.7307129,-0.86431885,0.23187256,1.28125,4.46875,-9.375
1664563789328,-0.6538086,-0.93756104,0.16668701,-4.1875,3.984375,-6.703125
1664563789372,-0.7780762,-0.9417114,0.13934326,7.203125,6.4375,-7.09375
1664563789402,-0.7409668,-1.085022,0.22161865,-0.328125,7.390625,-4.78125
1664563789447,-0.59228516,-0.86383057,0.086364746,-9.71875,-2.625,-8.359375
1664563789490,-0.5097656,-0.8423462,-0.039855957,-19.53125,-0.03125,-3.5
