# Sensor type: Thingy
# Activity type: Descending stairs
# Activity code: 13
# Subject id: s1800825
# Notes: 
timestamp,accel_x,accel_y,accel_z,gyro_x,gyro_y,gyro_z,mag_x,mag_y,mag_z
1664564069230,-0.99121094,0.022460938,0.12890625,11.9375,6.5625,1.5,0.0,0.0,0.0
1664564069270,-1.0126953,0.0,0.123046875,0.21875,5.0,1.3125,0.0,0.0,0.0
1664564069310,-0.99609375,-0.048828125,0.09375,-3.875,4.8125,-1.0,0.0,0.0,0.0
1664564069349,-0.9980469,-0.0390625,0.12792969,2.0625,1.3125,1.5625,0.0,0.0,0.0
1664564069389,-0.9794922,-0.036132812,0.11425781,7.0,4.5,1.3125,0.0,0.0,0.0
1664564069429,-0.9951172,-0.030273438,0.1484375,13.21875,6.28125,4.875,0.0,0.0,0.0
1664564069470,-1.015625,-0.021484375,0.15527344,12.4375,5.84375,3.71875,0.0,0.0,0.0
1664564069509,-1.0146484,0.016601562,0.19238281,8.46875,1.375,-0.4375,0.0,0.0,0.0
1664564069550,-1.0019531,0.0068359375,0.19433594,-6.96875,-19.3125,-7.59375,-91.1875,35.0,-160.375
1664564069590,-0.9453125,-0.06640625,0.06542969,-39.375,-40.53125,-23.03125,0.0,0.0,0.0
1664564069631,-0.9189453,0.10058594,-0.01171875,-35.28125,-31.15625,-28.9375,0.0,0.0,0.0
1664564069669,-1.1533203,0.19140625,0.16210938,5.90625,-58.71875,-10.75,0.0,0.0,0.0
1664564069709,-1.1025391,0.16113281,0.24414062,23.125,-90.65625,-3.90625,0.0,0.0,0.0
1664564069749,-1.1484375,0.03515625,0.4970703,-64.09375,-77.34375,-6.0,0.0,0.0,0.0
1664564069788,-1.1123047,-0.030273438,0.28710938,-27.3125,-56.53125,6.5,0.0,0.0,0.0
1664564069829,-0.8173828,0.052734375,0.29003906,9.1875,-42.25,5.71875,0.0,0.0,0.0
1664564069870,-0.76171875,0.020507812,0.2734375,-0.375,-27.90625,12.25,0.0,0.0,0.0
1664564069909,-0.7607422,0.049804688,0.30371094,4.25,-10.75,11.53125,0.0,0.0,0.0
1664564069950,-0.7451172,0.095703125,0.35351562,14.9375,-9.21875,14.6875,0.0,0.0,0.0
1664564069990,-0.7578125,0.0126953125,0.41796875,0.03125,-4.09375,10.46875,0.0,0.0,0.0
1664564070029,-0.74902344,-0.0703125,0.41992188,-19.1875,0.90625,0.21875,0.0,0.0,0.0
1664564070069,-0.6640625,-0.06542969,0.27539062,-18.875,-0.875,-1.53125,-94.1875,48.9375,-153.625
1664564070109,-0.59375,-0.01171875,0.23730469,3.21875,4.0,1.4375,0.0,0.0,0.0
1664564070149,-0.67285156,0.026367188,0.3515625,14.375,7.84375,-1.125,0.0,0.0,0.0
1664564070190,-0.7939453,0.056640625,0.421875,9.875,10.0,-8.3125,0.0,0.0,0.0
1664564070230,-0.8066406,-0.0029296875,0.4609375,-0.25,29.09375,-9.34375,0.0,0.0,0.0
1664564070270,-1.0117188,-0.03515625,0.51953125,-13.4375,10.53125,-5.25,0.0,0.0,0.0
1664564070311,-1.0039062,0.060546875,0.4638672,0.71875,7.6875,-9.84375,0.0,0.0,0.0
1664564070350,-0.9902344,0.14257812,0.62402344,19.09375,8.90625,-10.875,0.0,0.0,0.0
1664564070389,-1.7128906,0.24414062,0.36523438,-9.90625,-1.0625,14.375,0.0,0.0,0.0
1664564070429,-1.1943359,0.016601562,0.43652344,-0.9375,-66.1875,19.6875,0.0,0.0,0.0
1664564070469,-0.6201172,-0.0234375,0.20800781,-69.21875,-52.6875,-23.75,0.0,0.0,0.0
1664564070509,-1.5039062,0.17285156,0.12597656,-4.53125,44.84375,13.46875,0.0,0.0,0.0
1664564070549,-1.0693359,0.00390625,0.515625,9.125,7.3125,7.1875,-91.1875,41.4375,-151.375
1664564070590,-1.1337891,-0.08105469,0.3564453,-22.125,32.75,-0.6875,0.0,0.0,0.0
1664564070629,-0.9111328,-0.09082031,0.22363281,13.09375,54.78125,-6.65625,0.0,0.0,0.0
1664564070668,-0.7470703,0.0234375,0.12402344,33.6875,48.09375,-10.34375,0.0,0.0,0.0
1664564070709,-0.8251953,-0.0068359375,0.18554688,22.75,22.5,0.65625,0.0,0.0,0.0
1664564070749,-0.77734375,-0.048828125,0.23828125,0.09375,-1.78125,3.53125,0.0,0.0,0.0
1664564070789,-0.8457031,-0.047851562,0.24902344,2.1875,-6.125,2.25,0.0,0.0,0.0
1664564070830,-0.67285156,-0.041992188,0.22265625,-0.9375,-14.46875,4.75,0.0,0.0,0.0
1664564070869,-0.67285156,-0.04296875,0.09375,-14.84375,-14.0625,7.625,0.0,0.0,0.0
1664564070909,-0.86816406,-0.029296875,0.3466797,16.09375,-18.8125,14.28125,0.0,0.0,0.0
1664564070949,-1.0029297,-0.09472656,0.32128906,-12.46875,-18.875,11.40625,0.0,0.0,0.0
1664564070989,-0.9482422,-0.03125,0.31640625,10.71875,-2.6875,2.1875,0.0,0.0,0.0
1664564071029,-1.0654297,-0.08886719,0.44433594,-2.46875,-0.5625,0.96875,0.0,0.0,0.0
1664564071070,-1.1484375,-0.234375,0.26660156,-20.9375,6.40625,-7.59375,-84.0,42.1875,-156.625
1664564071109,-1.0947266,-0.030273438,0.31445312,2.78125,-15.15625,-18.5625,0.0,0.0,0.0
1664564071149,-1.1923828,0.13671875,0.23730469,2.1875,-35.96875,-20.78125,0.0,0.0,0.0
1664564071190,-1.1806641,0.18652344,0.4453125,20.4375,-58.1875,-15.03125,0.0,0.0,0.0
1664564071229,-1.1191406,-0.016601562,0.625,-9.90625,-87.65625,5.34375,0.0,0.0,0.0
1664564071270,-1.0498047,0.041992188,0.48339844,-30.28125,-46.09375,3.03125,0.0,0.0,0.0
1664564071309,-1.1347656,0.15234375,0.49121094,9.1875,-20.84375,5.71875,0.0,0.0,0.0
1664564071350,-0.8173828,0.009765625,0.45898438,-12.09375,-10.6875,-10.34375,0.0,0.0,0.0
1664564071390,-0.71777344,0.0146484375,0.4111328,-10.75,10.78125,-3.96875,0.0,0.0,0.0
1664564071429,-0.68847656,0.029296875,0.25390625,9.8125,3.59375,10.46875,0.0,0.0,0.0
1664564071470,-0.6777344,-0.001953125,0.33496094,10.0,10.53125,7.375,0.0,0.0,0.0
1664564071510,-0.65625,0.021484375,0.3173828,5.125,13.78125,9.75,0.0,0.0,0.0
1664564071570,-0.640625,0.111328125,0.20898438,16.09375,23.78125,6.8125,-86.875,51.5,-160.875
1664564071589,-0.46484375,0.080078125,0.28515625,33.8125,54.375,2.65625,0.0,0.0,0.0
1664564071631,-0.87402344,-0.06347656,0.34472656,9.1875,47.21875,-0.375,0.0,0.0,0.0
1664564071669,-0.94628906,0.0625,0.37597656,-4.03125,36.1875,-12.09375,0.0,0.0,0.0
1664564071710,-0.9628906,0.12109375,0.53125,16.71875,21.96875,-2.9375,0.0,0.0,0.0
1664564071751,-1.0117188,-0.040039062,0.58496094,-23.28125,8.53125,0.21875,0.0,0.0,0.0
1664564071790,-1.0410156,-0.038085938,0.4453125,-30.09375,11.21875,-3.375,0.0,0.0,0.0
1664564071830,-1.1503906,0.06640625,0.4873047,-10.9375,-3.5625,3.40625,0.0,0.0,0.0
1664564071870,-1.1298828,0.17285156,0.34472656,-12.46875,11.15625,2.0625,0.0,0.0,0.0
1664564071910,-1.1796875,0.0703125,0.38183594,-6.25,-12.59375,18.71875,0.0,0.0,0.0
1664564071950,-1.0878906,0.013671875,0.08300781,-65.03125,15.65625,-1.125,0.0,0.0,0.0
1664564071990,-1.2392578,-0.047851562,0.29101562,19.40625,27.21875,5.78125,0.0,0.0,0.0
1664564072030,-1.0966797,-0.103515625,0.26757812,-11.375,21.53125,-13.125,0.0,0.0,0.0
1664564072070,-1.1152344,0.00390625,0.1171875,-12.90625,31.53125,-9.34375,-80.5625,37.0625,-157.125
1664564072110,-0.94921875,0.09765625,0.17285156,20.1875,43.0625,-7.09375,0.0,0.0,0.0
1664564072150,-0.796875,0.055664062,0.13964844,17.5625,40.03125,-1.53125,0.0,0.0,0.0
1664564072190,-0.95410156,-0.08886719,0.2548828,-2.15625,26.53125,5.1875,0.0,0.0,0.0
1664564072229,-0.8720703,-0.12988281,0.21582031,-2.40625,17.25,0.78125,0.0,0.0,0.0
1664564072270,-0.86328125,-0.10449219,0.22167969,18.96875,7.0625,0.59375,0.0,0.0,0.0
1664564072310,-0.81152344,-0.0625,0.20410156,13.53125,-6.53125,-1.25,0.0,0.0,0.0
1664564072350,-0.71972656,-0.005859375,0.13769531,8.96875,-14.0,3.40625,0.0,0.0,0.0
1664564072390,-0.7558594,-0.0234375,0.15722656,5.21875,-13.5,6.28125,0.0,0.0,0.0
1664564072431,-0.8388672,-0.040039062,0.19726562,-4.78125,-12.78125,3.90625,0.0,0.0,0.0
1664564072472,-0.9980469,-0.064453125,0.22167969,4.125,-10.21875,7.8125,0.0,0.0,0.0
1664564072510,-0.98828125,-0.04296875,0.24902344,14.15625,-10.40625,5.96875,0.0,0.0,0.0
1664564072550,-1.09375,-0.07128906,0.3642578,7.25,-2.34375,1.3125,-78.875,32.5625,-156.375
1664564072590,-1.1328125,-0.111328125,0.37695312,4.6875,4.75,0.78125,0.0,0.0,0.0
1664564072630,-1.0507812,-0.052734375,0.30273438,14.21875,8.15625,-5.75,0.0,0.0,0.0
1664564072670,-0.9433594,0.0029296875,0.19921875,2.0625,-8.125,-3.6875,0.0,0.0,0.0
1664564072711,-1.109375,0.08691406,0.203125,-0.0625,-38.21875,-3.1875,0.0,0.0,0.0
1664564072750,-1.609375,0.22460938,0.38671875,-19.375,-87.71875,-13.0625,0.0,0.0,0.0
1664564072790,-1.0390625,0.15039062,0.42773438,-27.59375,-71.0625,-11.5,0.0,0.0,0.0
1664564072830,-0.921875,0.1015625,0.26757812,-43.34375,-42.96875,16.53125,0.0,0.0,0.0
1664564072870,-1.0693359,0.11816406,0.328125,-9.0625,-54.875,9.75,0.0,0.0,0.0
1664564072910,-0.7841797,0.052734375,0.37109375,4.8125,-53.53125,-1.78125,0.0,0.0,0.0
1664564072949,-0.76953125,0.05078125,0.27441406,-3.5625,-15.625,6.6875,0.0,0.0,0.0
1664564072990,-0.7109375,0.060546875,0.31152344,-3.75,-3.375,11.71875,0.0,0.0,0.0
1664564073030,-0.6738281,-0.009765625,0.265625,-0.0625,-4.34375,7.3125,0.0,0.0,0.0
1664564073069,-0.58496094,-0.0048828125,0.26757812,8.09375,4.5,6.625,-80.875,45.9375,-157.125
1664564073110,-0.48339844,0.059570312,0.21191406,11.46875,13.28125,-0.8125,0.0,0.0,0.0
1664564073150,-0.60253906,0.016601562,0.32421875,36.84375,44.25,-6.4375,0.0,0.0,0.0
1664564073189,-0.7714844,-9.765625E-4,0.45410156,11.59375,64.375,-14.96875,0.0,0.0,0.0
1664564073230,-1.0800781,0.015625,0.5673828,-9.46875,54.71875,-1.34375,0.0,0.0,0.0
1664564073269,-1.1601562,0.08300781,0.52441406,-1.65625,52.84375,-12.09375,0.0,0.0,0.0
1664564073310,-1.0166016,0.10546875,0.62890625,-7.53125,25.0,-5.375,0.0,0.0,0.0
1664564073350,-1.3789062,0.14550781,0.4375,-11.1875,4.75,10.46875,0.0,0.0,0.0
1664564073389,-1.0722656,0.13769531,0.00390625,-48.59375,10.65625,3.78125,0.0,0.0,0.0
1664564073430,-1.4726562,0.08105469,0.47265625,49.1875,7.0625,21.59375,0.0,0.0,0.0
1664564073470,-0.94140625,-0.13671875,-0.026367188,-56.96875,-29.6875,9.875,0.0,0.0,0.0
1664564073510,-1.2587891,-0.109375,0.29589844,-11.78125,26.84375,5.90625,0.0,0.0,0.0
1664564073550,-1.0390625,-0.10449219,0.1875,-3.1875,27.625,-2.15625,-79.9375,38.3125,-158.0
1664564073590,-0.94433594,0.051757812,0.12402344,12.25,48.25,-1.96875,0.0,0.0,0.0
1664564073630,-0.9003906,-0.046875,0.22167969,-5.5,32.15625,6.6875,0.0,0.0,0.0
1664564073670,-0.8730469,-0.06640625,0.19433594,-11.125,28.3125,4.3125,0.0,0.0,0.0
1664564073710,-0.9423828,-0.07714844,0.20507812,3.53125,18.46875,6.625,0.0,0.0,0.0
1664564073750,-0.83496094,-0.037109375,0.15429688,12.625,3.03125,5.71875,0.0,0.0,0.0
1664564073789,-0.86328125,-0.0146484375,0.23828125,17.8125,-8.6875,4.875,0.0,0.0,0.0
1664564073829,-0.79785156,9.765625E-4,0.14550781,-6.0625,-9.125,-0.1875,0.0,0.0,0.0
1664564073870,-0.66796875,0.041992188,0.052734375,-12.59375,-12.15625,2.96875,0.0,0.0,0.0
1664564073910,-0.73046875,-0.080078125,0.26367188,-7.59375,-31.75,9.03125,0.0,0.0,0.0
1664564073950,-0.95214844,-0.078125,0.15722656,-20.78125,-9.84375,2.375,0.0,0.0,0.0
1664564073989,-0.90625,-0.0048828125,0.38085938,7.5625,-15.9375,2.59375,0.0,0.0,0.0
1664564074030,-1.0605469,-0.18359375,0.3251953,-21.75,-8.4375,3.28125,0.0,0.0,0.0
1664564074070,-1.2333984,-0.18164062,0.41992188,20.0,1.9375,-5.5625,-74.5625,32.875,-157.375
1664564074109,-1.0908203,-0.12695312,0.34472656,19.53125,-6.71875,-11.1875,0.0,0.0,0.0
1664564074149,-1.0,-0.07910156,0.328125,30.125,-15.59375,-13.875,0.0,0.0,0.0
1664564074190,-1.2451172,0.21777344,0.16796875,22.1875,-38.09375,-14.125,0.0,0.0,0.0
1664564074229,-1.3349609,0.09667969,0.4140625,35.5,-73.8125,-12.03125,0.0,0.0,0.0
1664564074270,-1.3134766,0.24707031,0.484375,-14.90625,-73.0625,-14.0625,0.0,0.0,0.0
1664564074311,-0.83691406,0.080078125,0.3515625,-40.71875,-54.53125,-2.6875,0.0,0.0,0.0
1664564074349,-1.0458984,0.091796875,0.24609375,-41.875,-33.46875,5.0,0.0,0.0,0.0
1664564074389,-0.921875,0.052734375,0.30664062,-4.09375,-47.4375,1.5625,0.0,0.0,0.0
1664564074433,-0.7402344,0.044921875,0.29882812,-8.875,-19.0625,-4.71875,0.0,0.0,0.0
1664564074470,-0.69628906,0.0625,0.23632812,10.96875,16.71875,5.0,0.0,0.0,0.0
1664564074511,-0.68652344,0.034179688,0.33398438,9.4375,-2.75,18.78125,0.0,0.0,0.0
1664564074549,-0.56640625,-0.034179688,0.28808594,11.15625,16.84375,15.5625,-77.125,40.0625,-157.6875
1664564074590,-0.57421875,0.009765625,0.12207031,16.90625,70.0,-14.78125,0.0,0.0,0.0
1664564074631,-0.6904297,0.059570312,0.119140625,62.3125,91.65625,-19.53125,0.0,0.0,0.0
1664564074670,-0.82910156,0.01953125,0.5019531,64.4375,31.59375,-0.375,0.0,0.0,0.0
1664564074710,-0.8886719,0.1171875,0.3828125,-5.875,8.40625,-10.5,0.0,0.0,0.0
1664564074751,-1.0566406,0.10546875,0.5361328,-5.625,21.34375,-2.625,0.0,0.0,0.0
1664564074790,-1.171875,-0.10546875,0.7548828,-37.375,-9.96875,-9.71875,0.0,0.0,0.0
1664564074829,-1.0439453,-0.005859375,0.35742188,-30.53125,20.5625,-22.90625,0.0,0.0,0.0
1664564074870,-1.6865234,0.20605469,0.3330078,41.71875,13.90625,18.1875,0.0,0.0,0.0
1664564074910,-1.1298828,0.060546875,0.61621094,17.125,-63.1875,11.28125,0.0,0.0,0.0
1664564074950,-0.78125,0.057617188,0.34375,-49.5625,-31.625,-13.5625,0.0,0.0,0.0
1664564074990,-1.3007812,0.00390625,0.0078125,-9.46875,35.875,7.1875,0.0,0.0,0.0
1664564075031,-1.0517578,0.044921875,0.2939453,19.03125,9.625,-2.03125,0.0,0.0,0.0
1664564075070,-1.1494141,-0.049804688,0.32226562,-24.0,20.75,2.3125,-75.4375,26.0,-152.3125
1664564075110,-0.94628906,-0.107421875,0.13183594,-4.46875,40.8125,-2.15625,0.0,0.0,0.0
1664564075150,-0.8359375,0.005859375,0.11816406,30.9375,39.21875,-1.0,0.0,0.0,0.0
1664564075190,-0.90722656,-0.07519531,0.25,5.71875,16.84375,9.6875,0.0,0.0,0.0
1664564075230,-0.7636719,-0.078125,0.20605469,-15.46875,1.8125,3.34375,0.0,0.0,0.0
1664564075271,-0.8876953,-0.09082031,0.16015625,-11.96875,-3.5,2.65625,0.0,0.0,0.0
1664564075312,-0.7089844,-0.015625,0.12695312,-0.75,-9.46875,0.21875,0.0,0.0,0.0
1664564075352,-0.6855469,-0.030273438,0.07910156,-2.53125,-12.53125,2.25,0.0,0.0,0.0
1664564075391,-0.7246094,0.016601562,0.25585938,-0.5625,-20.46875,2.25,0.0,0.0,0.0
1664564075430,-0.9580078,-0.11425781,0.23535156,-24.5625,-16.875,11.59375,0.0,0.0,0.0
1664564075469,-1.0390625,-0.1328125,0.29296875,-2.46875,-16.5,8.40625,0.0,0.0,0.0
1664564075510,-1.0712891,-0.109375,0.37109375,2.25,-10.21875,-0.625,0.0,0.0,0.0
1664564075550,-1.1152344,-0.078125,0.375,12.5625,7.5,-5.875,-71.125,25.25,-154.6875
1664564075590,-1.0712891,-0.18652344,0.42382812,3.71875,2.0625,-4.96875,0.0,0.0,0.0
1664564075630,-1.2597656,-0.18652344,0.25976562,7.25,-5.6875,-17.71875,0.0,0.0,0.0
1664564075669,-1.1328125,0.07324219,0.2421875,37.59375,-36.625,-17.40625,0.0,0.0,0.0
1664564075710,-1.2050781,0.18457031,0.34765625,55.53125,-63.4375,-17.90625,0.0,0.0,0.0
1664564075750,-1.0810547,0.11425781,0.59375,-19.375,-86.25,-9.15625,0.0,0.0,0.0
1664564075790,-1.0673828,-0.033203125,0.41503906,-29.375,-47.125,6.8125,0.0,0.0,0.0
1664564075830,-0.97558594,-0.018554688,0.3125,5.40625,-16.5625,1.5625,0.0,0.0,0.0
1664564075870,-0.7138672,0.0126953125,0.328125,9.6875,1.03125,-11.125,0.0,0.0,0.0
1664564075910,-0.6904297,0.037109375,0.25976562,18.46875,10.1875,3.78125,0.0,0.0,0.0
1664564075950,-0.78027344,0.03125,0.29101562,27.375,24.71875,7.84375,0.0,0.0,0.0
1664564075990,-0.6279297,0.06738281,0.23730469,13.71875,21.21875,-0.875,0.0,0.0,0.0
1664564076030,-0.75,0.009765625,0.13769531,10.46875,70.71875,-2.625,0.0,0.0,0.0
1664564076070,-0.7373047,0.061523438,0.3046875,31.125,65.34375,-2.53125,-73.9375,24.8125,-153.0625
1664564076110,-0.79589844,0.032226562,0.36523438,12.1875,19.03125,11.09375,0.0,0.0,0.0
1664564076149,-0.8339844,0.06347656,0.27734375,-13.875,18.46875,6.5,0.0,0.0,0.0
1664564076190,-1.0048828,-0.028320312,0.41015625,-26.4375,15.65625,-7.21875,0.0,0.0,0.0
1664564076229,-1.0722656,0.017578125,0.48535156,-28.875,3.90625,-12.78125,0.0,0.0,0.0
1664564076270,-1.0380859,0.0068359375,0.49414062,-33.21875,-2.28125,-3.0,0.0,0.0,0.0
1664564076311,-1.0253906,-0.0048828125,0.4033203,-12.21875,10.0,-1.46875,0.0,0.0,0.0
1664564076349,-1.3496094,0.078125,0.14257812,-12.40625,22.5,16.40625,0.0,0.0,0.0
1664564076390,-1.4365234,-0.005859375,0.5839844,28.3125,-20.40625,16.15625,0.0,0.0,0.0
1664564076429,-0.81347656,-0.048828125,0.13769531,-26.375,-45.65625,-8.625,0.0,0.0,0.0
1664564076470,-1.1474609,-0.068359375,0.076171875,-21.0625,7.4375,-7.21875,0.0,0.0,0.0
1664564076509,-1.0693359,-0.11425781,0.23535156,10.375,15.0625,1.9375,0.0,0.0,0.0
1664564076549,-1.1132812,-0.052734375,0.15820312,-15.75,33.5,-8.125,-73.375,22.375,-152.3125
1664564076590,-0.9326172,0.0068359375,0.18359375,9.25,26.59375,-3.6875,0.0,0.0,0.0
1664564076630,-0.890625,0.0068359375,0.16113281,20.96875,23.71875,3.90625,0.0,0.0,0.0
1664564076670,-0.9003906,-0.056640625,0.2548828,7.75,11.75,5.78125,0.0,0.0,0.0
1664564076709,-0.7626953,-0.06542969,0.16015625,-1.78125,0.59375,4.125,0.0,0.0,0.0
1664564076749,-0.77246094,-0.07128906,0.11621094,-13.4375,-9.125,7.90625,0.0,0.0,0.0
1664564076789,-0.6386719,-0.024414062,0.044921875,-4.71875,-13.875,8.46875,0.0,0.0,0.0
1664564076830,-0.65625,-0.041015625,0.18359375,9.09375,-17.03125,6.28125,0.0,0.0,0.0
1664564076870,-0.9033203,-0.18457031,0.33496094,-34.6875,-23.09375,10.53125,0.0,0.0,0.0
1664564076910,-0.95703125,-0.09375,0.22949219,6.625,-11.0,10.0625,0.0,0.0,0.0
1664564076949,-1.0322266,-0.07324219,0.45507812,40.875,-17.53125,9.6875,0.0,0.0,0.0
1664564076989,-1.0957031,-0.08691406,0.35742188,26.15625,3.21875,5.0625,0.0,0.0,0.0
1664564077029,-1.0214844,-0.07910156,0.32128906,25.5625,3.71875,-0.5,0.0,0.0,0.0
1664564077070,-1.34375,-0.10839844,0.44335938,0.90625,-2.03125,-18.5,-71.6875,22.8125,-149.3125
1664564077110,-1.3007812,0.01953125,0.28515625,-11.25,-25.03125,-34.9375,0.0,0.0,0.0
1664564077150,-1.0908203,0.17285156,0.359375,47.15625,-53.25,-31.15625,0.0,0.0,0.0
1664564077190,-1.2519531,0.11816406,0.57714844,-48.46875,-75.03125,-5.09375,0.0,0.0,0.0
1664564077230,-1.0039062,-0.057617188,0.35546875,-27.1875,-57.4375,3.46875,0.0,0.0,0.0
1664564077271,-0.96777344,-0.0146484375,0.3173828,19.53125,-40.53125,6.34375,0.0,0.0,0.0
1664564077310,-0.8564453,0.20410156,0.28710938,7.4375,-23.34375,5.40625,0.0,0.0,0.0
1664564077349,-0.65234375,0.16503906,0.3779297,20.90625,-11.1875,12.9375,0.0,0.0,0.0
1664564077390,-0.69921875,0.017578125,0.3515625,-7.78125,16.40625,19.9375,0.0,0.0,0.0
1664564077430,-0.6738281,-0.052734375,0.328125,-12.21875,15.90625,7.25,0.0,0.0,0.0
1664564077470,-0.6357422,0.053710938,0.16503906,7.6875,37.34375,6.75,0.0,0.0,0.0
1664564077510,-0.6611328,0.017578125,0.29492188,34.15625,70.53125,-5.625,0.0,0.0,0.0
1664564077551,-0.7167969,0.041992188,0.3828125,4.6875,46.5625,-5.15625,-72.625,28.8125,-156.8125
1664564077590,-0.8203125,0.051757812,0.32910156,-4.78125,42.15625,-2.9375,0.0,0.0,0.0
1664564077631,-0.8515625,0.0107421875,0.3173828,-6.78125,41.71875,-1.84375,0.0,0.0,0.0
1664564077670,-1.0810547,-9.765625E-4,0.56152344,-14.25,12.1875,-1.59375,0.0,0.0,0.0
1664564077730,-1.0576172,0.0107421875,0.5449219,-33.9375,6.34375,-3.625,0.0,0.0,0.0
1664564077750,-1.0966797,-0.0029296875,0.5751953,-2.59375,6.34375,-8.625,0.0,0.0,0.0
1664564077790,-1.5986328,0.17871094,0.44921875,5.71875,10.96875,11.53125,0.0,0.0,0.0
1664564077830,-1.2167969,0.08496094,0.35058594,-24.5,-27.1875,9.5,0.0,0.0,0.0
1664564077871,-0.7285156,0.07910156,0.09375,-53.71875,-10.9375,-29.125,0.0,0.0,0.0
1664564077911,-1.1816406,-0.0703125,-0.19433594,-16.625,9.125,5.0,0.0,0.0,0.0
1664564077950,-1.0791016,0.05078125,0.3046875,34.34375,0.03125,11.09375,0.0,0.0,0.0
1664564077989,-1.0800781,-0.091796875,0.26953125,-26.75,27.34375,-1.0,0.0,0.0,0.0
1664564078030,-1.0898438,-0.1796875,0.11328125,-22.0625,39.59375,-6.4375,0.0,0.0,0.0
1664564078070,-0.875,-0.0048828125,0.10644531,31.65625,40.75,-4.71875,-72.75,21.8125,-152.125
1664564078110,-0.8466797,0.032226562,0.24511719,18.59375,25.8125,5.0625,0.0,0.0,0.0
1664564078150,-0.77246094,-0.08300781,0.27246094,-11.96875,1.15625,1.3125,0.0,0.0,0.0
1664564078192,-0.8652344,-0.16113281,0.10644531,-21.875,-1.3125,0.46875,0.0,0.0,0.0
1664564078230,-0.6142578,9.765625E-4,0.099609375,23.96875,-4.84375,0.21875,0.0,0.0,0.0
1664564078270,-0.8105469,9.765625E-4,0.16308594,8.59375,-12.65625,4.0,0.0,0.0,0.0
1664564078309,-0.75683594,-0.0087890625,0.20214844,15.625,-7.34375,7.4375,0.0,0.0,0.0
1664564078350,-1.0566406,-0.12597656,0.27539062,-12.96875,-16.1875,16.28125,0.0,0.0,0.0
1664564078390,-1.0322266,-0.13867188,0.22363281,-1.46875,-15.46875,13.59375,0.0,0.0,0.0
1664564078430,-1.0576172,-0.046875,0.29296875,42.28125,-4.21875,11.71875,0.0,0.0,0.0
1664564078472,-1.0283203,-0.07910156,0.4580078,22.5625,-1.34375,10.53125,0.0,0.0,0.0
1664564078511,-1.0478516,-0.10644531,0.265625,18.125,3.59375,3.21875,0.0,0.0,0.0
1664564078550,-1.3222656,0.087890625,0.25390625,4.1875,-25.90625,-8.9375,-70.8125,21.1875,-152.0
1664564078590,-1.203125,0.16503906,0.30371094,17.5625,-59.34375,-14.59375,0.0,0.0,0.0
1664564078630,-1.1396484,0.29101562,0.45898438,-13.25,-82.40625,-7.03125,0.0,0.0,0.0
1664564078669,-1.1035156,0.10644531,0.49414062,-62.21875,-49.6875,22.03125,0.0,0.0,0.0
1664564078710,-0.9707031,0.103515625,0.28222656,-49.40625,-24.90625,18.53125,0.0,0.0,0.0
1664564078749,-0.9033203,0.09375,0.25976562,-23.09375,-6.5,10.71875,0.0,0.0,0.0
1664564078789,-0.703125,0.14648438,0.24023438,-1.3125,-0.8125,9.75,0.0,0.0,0.0
1664564078830,-0.7109375,0.087890625,0.29785156,-4.15625,6.03125,15.125,0.0,0.0,0.0
1664564078869,-0.61621094,-0.013671875,0.26171875,-13.1875,11.09375,14.4375,0.0,0.0,0.0
1664564078910,-0.515625,0.009765625,0.09765625,-14.90625,43.875,-6.96875,0.0,0.0,0.0
1664564078950,-0.63183594,-0.0078125,0.103515625,10.25,83.125,-24.625,0.0,0.0,0.0
1664564078989,-0.69921875,-9.765625E-4,0.40429688,51.25,52.84375,-6.5,0.0,0.0,0.0
1664564079030,-0.8642578,0.02734375,0.29589844,1.3125,20.25,-7.78125,0.0,0.0,0.0
1664564079071,-1.0849609,0.13769531,0.3828125,18.90625,28.96875,-13.875,-70.9375,22.5625,-150.375
1664564079110,-1.2080078,0.09863281,0.72558594,-0.5,1.375,-10.40625,0.0,0.0,0.0
1664564079150,-1.0859375,0.0107421875,0.52246094,-33.21875,-17.09375,-3.1875,0.0,0.0,0.0
1664564079190,-1.7304688,0.21484375,0.31054688,4.375,-0.9375,16.84375,0.0,0.0,0.0
1664564079230,-1.140625,0.109375,0.46679688,-4.03125,-55.8125,12.4375,0.0,0.0,0.0
1664564079272,-0.7109375,0.024414062,0.125,-74.1875,-22.84375,-17.78125,0.0,0.0,0.0
1664564079310,-1.4228516,-0.037109375,0.061523438,-29.5,21.65625,-0.375,0.0,0.0,0.0
1664564079350,-1.0166016,-0.021484375,0.37695312,64.625,0.40625,-3.96875,0.0,0.0,0.0
1664564079389,-1.203125,-0.064453125,0.22265625,-28.9375,30.0,-1.90625,0.0,0.0,0.0
1664564079430,-1.0693359,-0.099609375,0.09667969,-5.03125,42.03125,-2.625,0.0,0.0,0.0
1664564079470,-0.91796875,0.0087890625,0.17871094,43.5,39.96875,-3.5625,0.0,0.0,0.0
1664564079509,-0.8017578,0.057617188,0.13085938,27.5,25.5625,2.90625,0.0,0.0,0.0
1664564079550,-0.7480469,0.0146484375,0.15917969,7.5,11.71875,0.84375,-73.9375,21.1875,-152.625
1664564079590,-0.8388672,-0.06542969,0.24121094,-18.875,1.75,4.3125,0.0,0.0,0.0
1664564079629,-0.78125,-0.09765625,0.17773438,-16.25,-11.4375,4.3125,0.0,0.0,0.0
1664564079670,-0.7402344,-0.0703125,0.1484375,-4.21875,-18.75,1.5,0.0,0.0,0.0
1664564079710,-0.7363281,-0.016601562,0.18847656,12.75,-11.6875,0.71875,0.0,0.0,0.0
1664564079750,-0.9316406,-0.076171875,0.35351562,-4.84375,-15.15625,4.625,0.0,0.0,0.0
1664564079790,-0.91796875,-0.08984375,0.1796875,-3.75,-10.34375,4.4375,0.0,0.0,0.0
1664564079829,-1.0361328,-0.08300781,0.39648438,16.34375,-7.53125,1.15625,0.0,0.0,0.0
1664564079870,-1.125,-0.16015625,0.35742188,6.5625,5.0,2.125,0.0,0.0,0.0
1664564079909,-1.0683594,-0.14648438,0.23730469,18.84375,10.125,-9.78125,0.0,0.0,0.0
1664564079949,-1.3564453,-0.045898438,0.36523438,15.5625,-8.5625,-25.53125,0.0,0.0,0.0
1664564079990,-1.1054688,0.17382812,0.18652344,5.34375,-37.3125,-20.40625,0.0,0.0,0.0
1664564080031,-1.1601562,0.171875,0.359375,51.6875,-58.78125,-11.25,0.0,0.0,0.0
1664564080070,-1.1757812,0.0859375,0.5205078,-51.90625,-94.25,7.75,-74.6875,20.875,-156.5
1664564080109,-1.1191406,0.025390625,0.4560547,-15.46875,-52.375,7.125,0.0,0.0,0.0
1664564080149,-0.9892578,0.0625,0.2919922,-2.59375,-20.53125,3.40625,0.0,0.0,0.0
1664564080191,-0.86035156,0.09863281,0.35058594,-2.53125,-12.03125,-4.53125,0.0,0.0,0.0
1664564080230,-0.7080078,0.091796875,0.37695312,2.375,6.875,3.9375,0.0,0.0,0.0
1664564080270,-0.7285156,0.038085938,0.2705078,-3.75,15.625,21.03125,0.0,0.0,0.0
1664564080312,-0.69140625,-0.009765625,0.28710938,-0.875,12.1875,18.34375,0.0,0.0,0.0
1664564080350,-0.6269531,0.044921875,0.23925781,11.8125,18.71875,11.03125,0.0,0.0,0.0
1664564080390,-0.66015625,0.10058594,0.24511719,14.3125,70.1875,-3.25,0.0,0.0,0.0
1664564080430,-0.7373047,-0.026367188,0.3828125,-1.78125,47.71875,1.5625,0.0,0.0,0.0
1664564080469,-0.8466797,0.03125,0.3017578,-36.21875,11.8125,-3.5625,0.0,0.0,0.0
1664564080510,-0.8691406,0.047851562,0.29589844,-8.0,25.875,-1.71875,0.0,0.0,0.0
1664564080550,-0.97265625,-0.020507812,0.48242188,-19.375,0.0,-6.0,-73.625,23.75,-154.375
1664564080589,-1.0283203,-0.06347656,0.38867188,-19.4375,6.625,-8.125,0.0,0.0,0.0
1664564080631,-1.0703125,-0.02734375,0.56933594,13.0,2.65625,-7.09375,0.0,0.0,0.0
1664564080670,-1.4970703,0.14550781,0.47753906,4.125,5.78125,8.28125,0.0,0.0,0.0
1664564080709,-1.3632812,0.13183594,0.42871094,29.71875,-17.78125,18.28125,0.0,0.0,0.0
1664564080753,-0.6376953,0.05078125,0.43847656,-42.96875,-44.4375,-20.9375,0.0,0.0,0.0
1664564080790,-1.2753906,-0.14746094,-0.01953125,-55.9375,13.28125,0.46875,0.0,0.0,0.0
1664564080831,-1.1025391,-0.053710938,0.4267578,60.21875,23.46875,-1.25,0.0,0.0,0.0
1664564080869,-1.0117188,-0.01953125,0.13574219,-27.3125,24.09375,-6.0625,0.0,0.0,0.0
1664564080910,-1.1064453,-0.04296875,0.1953125,-7.28125,40.5,-4.28125,0.0,0.0,0.0
1664564080950,-0.89453125,0.009765625,0.119140625,22.9375,39.46875,-6.4375,0.0,0.0,0.0
1664564080991,-0.87597656,0.0703125,0.20605469,30.75,20.25,2.78125,0.0,0.0,0.0
1664564081030,-0.80371094,-0.0107421875,0.2109375,4.25,4.4375,-2.28125,0.0,0.0,0.0
1664564081070,-0.82910156,-0.08886719,0.18652344,-9.0625,-1.84375,-0.3125,-72.875,19.375,-156.0625
1664564081110,-0.9248047,-0.03515625,0.18554688,5.21875,-4.34375,2.84375,0.0,0.0,0.0
1664564081150,-0.76464844,0.051757812,0.12695312,14.15625,-14.25,5.0,0.0,0.0,0.0
1664564081190,-0.79589844,0.040039062,0.17675781,15.78125,-7.34375,7.90625,0.0,0.0,0.0
1664564081230,-0.890625,-0.033203125,0.18847656,-26.375,-11.84375,12.5,0.0,0.0,0.0
1664564081270,-0.88964844,-0.109375,0.17480469,-19.3125,-16.5625,17.8125,0.0,0.0,0.0
1664564081310,-1.0126953,-0.109375,0.2998047,0.71875,-12.46875,15.71875,0.0,0.0,0.0
1664564081350,-1.0371094,-0.040039062,0.37109375,7.5625,3.28125,6.875,0.0,0.0,0.0
1664564081390,-1.0654297,-0.049804688,0.40039062,4.5,5.53125,1.625,0.0,0.0,0.0
1664564081430,-0.96875,-0.10839844,0.38085938,6.09375,-0.5625,3.40625,0.0,0.0,0.0
1664564081470,-1.1191406,-0.068359375,0.31347656,18.21875,-17.84375,-5.03125,0.0,0.0,0.0
1664564081510,-1.4208984,0.1484375,0.33203125,20.84375,-50.0,-18.625,0.0,0.0,0.0
1664564081550,-1.1376953,0.27734375,0.36523438,4.1875,-72.03125,-11.4375,-74.375,26.3125,-159.5
1664564081590,-0.8798828,0.030273438,0.4658203,-53.125,-74.65625,14.28125,0.0,0.0,0.0
1664564081630,-1.1494141,-0.0048828125,0.3623047,-58.65625,-36.28125,9.4375,0.0,0.0,0.0
1664564081672,-0.97558594,0.005859375,0.32617188,5.59375,-25.71875,-2.75,0.0,0.0,0.0
1664564081710,-0.6484375,0.119140625,0.29492188,6.6875,-2.40625,-15.6875,0.0,0.0,0.0
1664564081750,-0.76953125,0.07910156,0.29101562,12.625,3.15625,4.5625,0.0,0.0,0.0
1664564081790,-0.703125,0.057617188,0.3564453,10.46875,4.75,6.21875,0.0,0.0,0.0
1664564081830,-0.625,0.043945312,0.23242188,18.96875,29.46875,7.625,0.0,0.0,0.0
1664564081870,-0.60546875,0.02734375,0.13476562,19.46875,34.90625,7.4375,0.0,0.0,0.0
1664564081909,-0.7451172,0.059570312,0.27929688,18.28125,36.78125,-0.3125,0.0,0.0,0.0
1664564081950,-0.89941406,0.044921875,0.4482422,2.65625,16.28125,0.96875,0.0,0.0,0.0
1664564081990,-0.66796875,0.0068359375,0.29296875,-31.375,24.8125,-5.3125,0.0,0.0,0.0
1664564082030,-1.0029297,-0.03515625,0.3203125,1.15625,44.125,-6.59375,0.0,0.0,0.0
1664564082070,-1.1679688,-0.07519531,0.6035156,-0.1875,21.28125,-13.9375,-71.875,23.4375,-152.0
1664564082109,-1.140625,0.005859375,0.58691406,-28.65625,12.3125,-15.46875,0.0,0.0,0.0
1664564082150,-1.4365234,0.14648438,0.609375,0.28125,7.84375,-0.5,0.0,0.0,0.0
1664564082189,-1.0605469,-0.061523438,0.79003906,52.40625,-9.15625,-6.5,0.0,0.0,0.0
1664564082429,-1.0429688,-0.22363281,0.10058594,-35.84375,-19.125,-22.71875,0.0,0.0,0.0
1664564082431,-1.0488281,-0.15332031,0.15332031,33.6875,-28.46875,-0.6875,0.0,0.0,0.0
1664564082433,-1.1054688,0.17480469,0.03125,47.78125,36.4375,-7.03125,0.0,0.0,0.0
1664564082434,-0.99121094,0.064453125,0.17480469,-0.9375,11.09375,1.625,0.0,0.0,0.0
1664564082436,-1.0634766,-0.015625,0.1796875,-13.375,23.84375,4.9375,0.0,0.0,0.0
1664564082437,-0.9453125,-0.0029296875,0.06542969,-9.125,33.0625,-4.96875,0.0,0.0,0.0
1664564082470,-0.9140625,0.08105469,0.14453125,15.96875,29.65625,3.46875,0.0,0.0,0.0
1664564082510,-0.9355469,-0.009765625,0.22363281,-5.6875,10.96875,3.9375,0.0,0.0,0.0
1664564082550,-0.76953125,-0.09863281,0.0703125,-24.78125,-3.90625,9.625,-72.75,21.0625,-150.8125
1664564082629,-0.7910156,0.0,0.087890625,10.96875,-0.4375,10.59375,0.0,0.0,0.0
1664564082631,-0.7714844,0.061523438,0.1875,11.65625,-22.15625,9.75,0.0,0.0,0.0
1664564082669,-0.6904297,0.06347656,0.25195312,12.125,-11.125,7.5625,0.0,0.0,0.0
1664564082710,-0.9091797,-0.125,0.27734375,-56.78125,-11.625,15.25,0.0,0.0,0.0
1664564082790,-1.0576172,-0.20507812,0.21875,-30.21875,-6.5,14.4375,0.0,0.0,0.0
1664564082791,-1.0722656,-0.09375,0.421875,24.65625,-5.5,10.0625,0.0,0.0,0.0
1664564082829,-1.1191406,-0.13574219,0.4326172,6.34375,-0.0625,5.84375,0.0,0.0,0.0
1664564082912,-1.1083984,-0.14257812,0.35546875,21.21875,-7.59375,-5.75,0.0,0.0,0.0
1664564082913,-1.2167969,0.057617188,0.359375,20.1875,-19.65625,-16.1875,0.0,0.0,0.0
1664564082952,-1.0351562,0.14257812,0.18457031,16.34375,-48.21875,-13.3125,0.0,0.0,0.0
1664564082990,-0.75878906,0.080078125,0.0546875,5.125,-54.59375,-11.0625,0.0,0.0,0.0
1664564083029,-1.0537109,0.14453125,0.2626953,-2.75,-54.75,1.3125,0.0,0.0,0.0
1664564083069,-1.2382812,0.4248047,0.4033203,8.28125,-40.90625,-1.71875,-72.875,28.375,-158.875
1664564083109,-0.98339844,0.2861328,0.5966797,21.03125,-18.8125,-10.15625,0.0,0.0,0.0
1664564083150,-0.8203125,-0.06738281,0.4013672,-56.40625,4.9375,3.9375,0.0,0.0,0.0
1664564083190,-0.9550781,0.0078125,0.30859375,-27.125,11.21875,7.90625,0.0,0.0,0.0
1664564083230,-0.84375,0.12207031,0.3310547,12.125,-3.0625,10.90625,0.0,0.0,0.0
1664564083270,-0.7089844,0.0546875,0.38671875,0.65625,8.46875,11.59375,0.0,0.0,0.0
1664564083310,-0.6435547,0.0087890625,0.30371094,-16.3125,10.125,9.25,0.0,0.0,0.0
1664564083350,-0.62109375,-0.0087890625,0.20703125,-12.03125,26.03125,3.46875,0.0,0.0,0.0
1664564083390,-0.61328125,-0.0048828125,0.32421875,15.125,43.6875,-3.3125,0.0,0.0,0.0
1664564083430,-0.77441406,-0.03125,0.3173828,-4.53125,39.65625,-3.96875,0.0,0.0,0.0
1664564083470,-0.8515625,0.0048828125,0.35058594,-1.0,40.875,-12.53125,0.0,0.0,0.0
1664564083511,-0.9902344,0.05078125,0.42578125,9.375,23.53125,-10.21875,0.0,0.0,0.0
1664564083552,-1.0390625,0.10449219,0.61035156,-12.03125,-2.09375,-8.5625,-70.0625,26.3125,-154.6875
1664564083590,-1.359375,0.2548828,0.66503906,-22.34375,-11.96875,8.46875,0.0,0.0,0.0
1664564083631,-1.4951172,0.080078125,0.6513672,-5.3125,-41.46875,30.5625,0.0,0.0,0.0
1664564083670,-0.5917969,-0.3125,0.59765625,-143.625,-28.28125,-49.625,0.0,0.0,0.0
1664564083709,-1.6367188,-0.21972656,-0.2265625,-33.21875,60.28125,-3.4375,0.0,0.0,0.0
1664564083749,-1.0244141,0.1875,0.052734375,117.28125,26.40625,0.53125,0.0,0.0,0.0
1664564083790,-1.0546875,0.038085938,0.17578125,0.0,36.71875,-2.15625,0.0,0.0,0.0
1664564083830,-1.0947266,0.0048828125,0.10058594,-16.8125,52.65625,0.28125,0.0,0.0,0.0
1664564083870,-0.83984375,0.020507812,0.0625,9.625,52.21875,-0.0625,0.0,0.0,0.0
1664564083910,-0.8701172,-0.0546875,0.13183594,19.21875,25.625,12.125,0.0,0.0,0.0
1664564083950,-0.8388672,-0.021484375,0.1796875,3.90625,12.875,5.1875,0.0,0.0,0.0
1664564083990,-0.8466797,-0.001953125,0.21679688,4.5,-1.46875,4.6875,0.0,0.0,0.0
1664564084030,-0.70703125,-0.017578125,0.052734375,-7.28125,-16.625,7.5625,0.0,0.0,0.0
1664564084070,-0.6982422,0.0126953125,0.12402344,7.90625,-11.84375,8.59375,-74.6875,30.9375,-157.875
1664564084110,-0.7783203,-0.07421875,0.18652344,-4.90625,-24.84375,15.65625,0.0,0.0,0.0
1664564084150,-0.8925781,-0.06347656,0.28808594,-4.03125,-12.84375,13.59375,0.0,0.0,0.0
1664564084190,-1.1132812,-0.068359375,0.4296875,-6.84375,-19.90625,9.5625,0.0,0.0,0.0
1664564084230,-1.0253906,-0.140625,0.4580078,2.0,-8.5625,6.03125,0.0,0.0,0.0
1664564084271,-1.1835938,-0.16015625,0.35839844,7.75,4.875,-4.03125,0.0,0.0,0.0
1664564084310,-1.3115234,-0.125,0.4296875,10.25,-15.625,-13.1875,0.0,0.0,0.0
1664564084349,-1.1064453,0.037109375,0.24707031,11.53125,-30.28125,-20.15625,0.0,0.0,0.0
1664564084390,-0.953125,0.21875,0.14257812,38.9375,-45.71875,-12.34375,0.0,0.0,0.0
1664564084430,-0.81152344,0.08691406,0.2763672,40.9375,-69.40625,-6.375,0.0,0.0,0.0
1664564084472,-1.375,0.3330078,0.42089844,-15.46875,-61.1875,-11.5,0.0,0.0,0.0
1664564084510,-0.9873047,0.20019531,0.50683594,18.21875,-27.1875,-3.90625,0.0,0.0,0.0
1664564084550,-0.9082031,0.001953125,0.3720703,-50.84375,-6.78125,-5.15625,-76.375,37.25,-159.8125
1664564084590,-0.890625,0.08105469,0.26464844,-10.15625,2.84375,-6.59375,0.0,0.0,0.0
1664564084630,-0.7714844,0.06542969,0.33984375,26.65625,1.09375,1.875,0.0,0.0,0.0
1664564084670,-0.63183594,0.0859375,0.18847656,14.8125,14.625,2.84375,0.0,0.0,0.0
1664564084709,-0.7089844,0.13476562,0.22265625,13.0,29.21875,2.5,0.0,0.0,0.0
1664564084750,-0.63378906,0.059570312,0.31445312,13.09375,30.0,-4.78125,0.0,0.0,0.0
1664564084789,-0.6425781,-0.01171875,0.32421875,-15.59375,33.5625,-3.125,0.0,0.0,0.0
1664564084832,-0.8330078,-0.036132812,0.23339844,-35.65625,50.28125,-10.875,0.0,0.0,0.0
1664564084869,-0.890625,-0.0048828125,0.3955078,20.0,34.28125,-9.90625,0.0,0.0,0.0
1664564084910,-0.9746094,0.047851562,0.5546875,12.8125,13.59375,-6.3125,0.0,0.0,0.0
1664564084950,-1.0615234,-0.06347656,0.5986328,-35.84375,0.21875,-5.5,0.0,0.0,0.0
1664564084990,-1.2607422,0.03125,0.56152344,-21.625,12.5,-0.0625,0.0,0.0,0.0
1664564085029,-1.1708984,0.08105469,0.515625,31.84375,-12.84375,15.78125,0.0,0.0,0.0
1664564085070,-1.2314453,-0.14648438,0.3388672,-64.34375,-25.53125,-18.5,-75.125,26.3125,-150.9375
1664564085110,-1.1835938,-0.072265625,0.107421875,-27.59375,14.5625,-11.625,0.0,0.0,0.0
1664564085149,-1.0859375,0.030273438,0.1328125,47.28125,29.21875,-3.4375,0.0,0.0,0.0
1664564085189,-1.1318359,-0.0390625,0.125,-2.53125,23.59375,2.375,0.0,0.0,0.0
1664564085230,-1.0742188,0.04296875,0.2548828,-2.09375,34.15625,-0.5,0.0,0.0,0.0
1664564085269,-0.8466797,0.0048828125,0.10546875,5.21875,35.625,2.65625,0.0,0.0,0.0
1664564085310,-0.83203125,0.015625,0.13671875,26.28125,23.375,10.0,0.0,0.0,0.0
1664564085349,-0.6982422,-0.009765625,0.15332031,5.90625,2.59375,3.65625,0.0,0.0,0.0
1664564085390,-0.84765625,-0.061523438,0.25390625,-5.375,0.53125,8.21875,0.0,0.0,0.0
1664564085429,-0.7363281,-0.08300781,0.103515625,-16.96875,-21.0,9.5625,0.0,0.0,0.0
1664564085450,-0.5234375,-0.020507812,0.125,24.8125,-11.0,6.875,0.0,0.0,0.0
1664564085490,-0.9453125,-0.060546875,0.25,10.0625,-9.78125,12.625,0.0,0.0,0.0
1664564085550,-0.8339844,-0.06738281,0.40722656,14.21875,-13.75,3.9375,-72.75,31.5625,-157.6875
1664564085570,-1.1103516,-0.27929688,0.58984375,-7.9375,-9.84375,-0.75,0.0,0.0,0.0
1664564085611,-1.0576172,-0.25195312,0.22753906,42.15625,-0.3125,-12.53125,0.0,0.0,0.0
1664564085650,-1.4951172,-0.036132812,0.21289062,64.875,-3.96875,-24.90625,0.0,0.0,0.0
1664564085690,-1.0957031,0.28710938,0.17773438,69.875,-24.5625,-23.40625,0.0,0.0,0.0
1664564085730,-1.2226562,0.21679688,0.2919922,29.71875,-47.6875,-12.65625,0.0,0.0,0.0
1664564085771,-1.2607422,0.19335938,0.25976562,-20.65625,-82.03125,-3.5625,0.0,0.0,0.0
1664564085810,-0.9433594,0.13671875,0.35546875,0.21875,-56.65625,3.53125,0.0,0.0,0.0
1664564085869,-1.1064453,0.26171875,0.41796875,2.5,-28.875,10.53125,0.0,0.0,0.0
1664564085890,-0.8466797,0.11230469,0.40429688,-3.3125,-6.90625,2.125,0.0,0.0,0.0
1664564085929,-0.78515625,0.0048828125,0.4013672,-6.78125,5.65625,9.1875,0.0,0.0,0.0
1664564085970,-0.73828125,-0.01953125,0.18847656,3.34375,21.09375,5.125,0.0,0.0,0.0
1664564086010,-0.7089844,0.0859375,0.27441406,26.03125,10.125,2.3125,0.0,0.0,0.0
1664564086070,-0.7216797,0.13769531,0.3642578,14.28125,19.5625,1.15625,-81.875,42.3125,-165.5
1664564086090,-0.65625,0.08300781,0.28320312,-14.96875,39.78125,-5.3125,0.0,0.0,0.0
1664564086130,-0.70703125,0.03515625,0.296875,-11.625,37.8125,-3.125,0.0,0.0,0.0
1664564086169,-0.78515625,-0.00390625,0.2890625,-25.40625,24.75,-2.28125,0.0,0.0,0.0
1664564086210,-0.7792969,0.038085938,0.32226562,-19.96875,10.125,-1.0,0.0,0.0,0.0
1664564086250,-1.0820312,0.072265625,0.4453125,-14.125,15.4375,-1.84375,0.0,0.0,0.0
1664564086290,-0.95703125,-0.013671875,0.38867188,-52.125,6.625,-4.96875,0.0,0.0,0.0
1664564086330,-1.1386719,-0.0234375,0.49804688,-26.125,15.78125,-3.625,0.0,0.0,0.0
1664564086370,-1.2373047,-0.0126953125,0.73339844,-20.34375,6.625,2.71875,0.0,0.0,0.0
1664564086410,-1.1728516,0.08691406,0.34472656,-1.65625,6.09375,12.875,0.0,0.0,0.0
1664564086450,-0.7910156,-0.18066406,0.22949219,-33.15625,-5.75,-8.6875,0.0,0.0,0.0
1664564086490,-1.1269531,-0.18359375,0.38476562,19.5625,-41.21875,6.28125,0.0,0.0,0.0
1664564086550,-1.1347656,0.020507812,0.0078125,18.40625,10.90625,-1.1875,-74.875,27.9375,-157.6875
1664564086631,-1.1025391,0.0126953125,0.30664062,4.375,4.8125,-9.59375,0.0,0.0,0.0
1664564086633,-1.1542969,-0.01171875,0.15917969,-8.5625,34.59375,-8.0,0.0,0.0,0.0
1664564086649,-1.0830078,0.041992188,0.111328125,1.375,34.40625,-5.5625,0.0,0.0,0.0
1664564086690,-0.8720703,0.07910156,0.119140625,22.75,38.6875,-0.75,0.0,0.0,0.0
1664564086730,-0.89160156,-0.015625,0.13085938,-5.5,31.65625,3.59375,0.0,0.0,0.0
1664564086770,-0.8496094,-0.0078125,0.140625,-6.375,20.90625,-1.0,0.0,0.0,0.0
1664564086810,-0.80371094,-0.052734375,0.23046875,-1.78125,2.375,7.25,0.0,0.0,0.0
1664564086850,-0.78515625,-0.046875,0.13964844,-11.125,-8.5,10.90625,0.0,0.0,0.0
1664564086889,-0.71484375,-0.068359375,0.21386719,-6.1875,-18.75,10.53125,0.0,0.0,0.0
1664564086930,-0.8076172,-0.029296875,0.12011719,-11.375,-13.4375,11.9375,0.0,0.0,0.0
1664564086970,-0.7861328,-0.095703125,0.29296875,2.375,-23.75,12.9375,0.0,0.0,0.0
1664564087009,-1.0830078,-0.12988281,0.28320312,-8.25,-9.53125,13.40625,0.0,0.0,0.0
1664564087071,-1.0087891,-0.059570312,0.26367188,0.53125,-10.8125,10.1875,-70.8125,27.3125,-157.5625
1664564087090,-0.98339844,-0.125,0.44628906,20.4375,-12.78125,5.53125,0.0,0.0,0.0
1664564087130,-1.5058594,-0.19921875,0.2998047,-29.625,-1.46875,-11.71875,0.0,0.0,0.0
1664564087170,-1.2197266,0.09375,0.16503906,28.71875,-19.96875,-23.09375,0.0,0.0,0.0
1664564087212,-0.9160156,0.17089844,0.19238281,49.4375,-40.78125,-17.40625,0.0,0.0,0.0
1664564087249,-1.0556641,-0.06933594,0.29589844,-4.84375,-62.5,-0.375,0.0,0.0,0.0
1664564087289,-1.2763672,0.20117188,0.30078125,0.78125,-59.09375,3.28125,0.0,0.0,0.0
1664564087330,-1.046875,0.24609375,0.39648438,16.46875,-48.0,5.34375,0.0,0.0,0.0
1664564087390,-0.9013672,0.083984375,0.44726562,4.3125,-29.625,1.625,0.0,0.0,0.0
1664564087410,-0.8125,0.06347656,0.34765625,-18.5625,-13.625,1.03125,0.0,0.0,0.0
1664564087450,-0.73535156,-0.0126953125,0.3388672,19.21875,3.40625,10.53125,0.0,0.0,0.0
1664564087489,-0.81347656,0.047851562,0.24707031,29.21875,13.40625,8.53125,0.0,0.0,0.0
1664564087550,-0.7050781,0.1015625,0.39257812,31.59375,12.125,6.03125,-72.75,33.625,-160.375
1664564087569,-0.71972656,0.119140625,0.31640625,11.71875,15.0,0.90625,0.0,0.0,0.0
1664564087610,-0.6816406,0.07519531,0.30371094,-7.9375,29.78125,-6.1875,0.0,0.0,0.0
1664564087650,-0.6279297,0.059570312,0.29882812,-12.96875,28.90625,-2.34375,0.0,0.0,0.0
1664564087690,-0.7636719,0.016601562,0.31640625,0.34375,16.90625,-7.03125,0.0,0.0,0.0
1664564087729,-0.72265625,-9.765625E-4,0.33007812,-12.65625,26.59375,-14.46875,0.0,0.0,0.0
1664564087770,-0.8857422,0.001953125,0.43554688,-1.71875,18.90625,-14.3125,0.0,0.0,0.0
1664564087810,-1.0712891,-0.047851562,0.5332031,13.28125,39.84375,-9.96875,0.0,0.0,0.0
1664564087850,-1.0957031,-0.005859375,0.49902344,-10.21875,17.5,-3.90625,0.0,0.0,0.0
1664564087890,-1.1132812,0.0859375,0.4248047,-18.875,-9.15625,-0.1875,0.0,0.0,0.0
1664564087929,-1.3300781,0.28320312,0.16503906,22.03125,-1.46875,8.34375,0.0,0.0,0.0
1664564087969,-1.2041016,-0.119140625,0.67871094,10.125,-53.65625,8.90625,0.0,0.0,0.0
1664564088010,-0.8515625,-0.051757812,0.12890625,-111.96875,-37.78125,-3.375,0.0,0.0,0.0
1664564088070,-1.4365234,0.044921875,0.13671875,-31.4375,24.34375,-6.0625,-71.125,28.8125,-161.0
1664564088090,-1.1328125,-0.09765625,0.4404297,8.65625,29.40625,-21.1875,0.0,0.0,0.0
1664564088151,-1.1445312,0.022460938,0.13183594,-5.3125,20.96875,3.40625,0.0,0.0,0.0
1664564088169,-0.99902344,0.09277344,0.16015625,32.53125,28.71875,1.21875,0.0,0.0,0.0
1664564088213,-0.8222656,0.044921875,0.16894531,6.40625,34.90625,-3.90625,0.0,0.0,0.0
1664564088250,-0.8251953,-0.087890625,0.22851562,-14.0625,28.84375,2.65625,0.0,0.0,0.0
1664564088290,-0.8378906,-0.14550781,0.27929688,-2.875,16.46875,2.84375,0.0,0.0,0.0
1664564088332,-0.79296875,-0.07324219,0.28808594,7.8125,12.5,-0.375,0.0,0.0,0.0
1664564088370,-0.734375,-0.05078125,0.18652344,5.90625,-0.125,3.03125,0.0,0.0,0.0
1664564088411,-0.7890625,-0.055664062,0.1796875,4.1875,-5.875,1.5,0.0,0.0,0.0
1664564088451,-0.7988281,-0.024414062,0.10546875,2.59375,-10.15625,3.15625,0.0,0.0,0.0
1664564088490,-0.7480469,0.020507812,0.14453125,19.46875,-10.28125,2.65625,0.0,0.0,0.0
1664564088550,-1.0068359,-0.07324219,0.34179688,3.65625,-6.59375,5.28125,-67.375,22.8125,-161.125
1664564088570,-0.9580078,-0.14648438,0.33203125,-9.125,-3.1875,2.5625,0.0,0.0,0.0
1664564088610,-1.0654297,-0.1875,0.38476562,-11.78125,1.15625,4.6875,0.0,0.0,0.0
1664564088650,-1.3203125,-0.23339844,0.35546875,-18.8125,8.90625,-4.96875,0.0,0.0,0.0
1664564088690,-1.2792969,-0.13574219,0.18945312,-4.34375,-1.90625,-25.21875,0.0,0.0,0.0
1664564088730,-1.1337891,0.107421875,0.19238281,30.875,-34.1875,-22.125,0.0,0.0,0.0
1664564088771,-1.1923828,0.14941406,0.3671875,30.375,-50.84375,-22.28125,0.0,0.0,0.0
1664564088812,-1.1796875,0.064453125,0.2890625,-4.71875,-48.125,-8.0,0.0,0.0,0.0
1664564088850,-1.0605469,0.1015625,0.26464844,3.03125,-43.59375,16.09375,0.0,0.0,0.0
1664564088910,-1.0117188,0.20019531,0.22460938,1.3125,-24.3125,15.375,0.0,0.0,0.0
1664564088930,-0.7519531,0.10058594,0.26464844,1.3125,-13.03125,9.5,0.0,0.0,0.0
1664564088970,-0.7207031,0.021484375,0.3203125,1.875,-10.5625,21.03125,0.0,0.0,0.0
1664564089010,-0.7060547,9.765625E-4,0.22949219,-7.59375,4.8125,22.4375,0.0,0.0,0.0
1664564089070,-0.6699219,0.024414062,0.30664062,-3.75,20.125,12.0,-68.375,27.5,-162.1875
1664564089090,-0.6269531,0.03515625,0.2685547,-10.28125,43.125,3.34375,0.0,0.0,0.0
1664564089130,-0.734375,0.03125,0.19335938,7.90625,55.78125,-3.1875,0.0,0.0,0.0
1664564089170,-0.7294922,0.032226562,0.30859375,1.8125,32.15625,-1.40625,0.0,0.0,0.0
1664564089210,-0.74316406,0.034179688,0.34960938,-10.4375,4.0,2.3125,0.0,0.0,0.0
1664564089249,-0.9277344,0.0126953125,0.41796875,-15.9375,4.4375,-4.71875,0.0,0.0,0.0
1664564089290,-1.0800781,0.013671875,0.5234375,-22.78125,9.625,-2.9375,0.0,0.0,0.0
1664564089330,-1.0039062,0.047851562,0.5048828,-20.15625,-14.71875,0.0,0.0,0.0,0.0
1664564089370,-1.1728516,0.080078125,0.28222656,-7.15625,-17.21875,0.59375,0.0,0.0,0.0
1664564089410,-1.4433594,0.22265625,0.10839844,-25.84375,-18.625,1.3125,0.0,0.0,0.0
1664564089450,-0.7890625,-0.013671875,0.27929688,-75.09375,-26.5,-32.4375,0.0,0.0,0.0
1664564089490,-1.3076172,-0.30371094,0.2421875,-36.5625,-2.34375,2.4375,0.0,0.0,0.0
1664564089550,-1.3027344,-0.14257812,0.35351562,17.75,44.0625,-2.03125,-68.25,23.0,-153.625
1664564089570,-1.1298828,-0.0029296875,0.17382812,-9.90625,37.59375,-1.1875,0.0,0.0,0.0
1664564089610,-0.9794922,0.0390625,0.10449219,3.71875,35.875,6.8125,0.0,0.0,0.0
1664564089670,-0.8183594,0.046875,0.12890625,24.9375,39.59375,13.96875,0.0,0.0,0.0
1664564089689,-0.88378906,-0.09667969,0.17382812,-9.21875,30.625,9.9375,0.0,0.0,0.0
1664564089730,-0.8105469,-0.041992188,0.11816406,-5.4375,24.875,6.9375,0.0,0.0,0.0
1664564089770,-0.8154297,0.0390625,0.25390625,24.8125,10.3125,15.3125,0.0,0.0,0.0
1664564089810,-0.77441406,-0.091796875,0.20703125,-15.09375,0.03125,8.46875,0.0,0.0,0.0
1664564089849,-0.86621094,-0.09765625,0.15136719,-13.375,-7.65625,4.625,0.0,0.0,0.0
1664564089889,-0.6611328,-0.026367188,0.15722656,7.375,-17.09375,4.125,0.0,0.0,0.0
1664564089930,-0.8828125,-0.08203125,0.20019531,-23.34375,-17.40625,5.1875,0.0,0.0,0.0
1664564089970,-0.9863281,-0.10253906,0.15820312,-14.65625,-8.0625,2.25,0.0,0.0,0.0
1664564090010,-0.9345703,-0.053710938,0.3779297,7.0,-15.8125,-1.84375,0.0,0.0,0.0
1664564090070,-0.9824219,-0.16503906,0.4033203,-14.0,-12.90625,0.84375,-65.6875,24.5,-161.0
1664564090090,-1.2607422,-0.1640625,0.296875,-19.78125,-7.28125,-10.03125,0.0,0.0,0.0
1664564090130,-1.2636719,0.032226562,0.24316406,7.5,-29.625,-20.71875,0.0,0.0,0.0
1664564090170,-1.1601562,0.053710938,0.23730469,7.4375,-62.03125,-20.84375,0.0,0.0,0.0
1664564090210,-1.3769531,0.171875,0.27734375,20.5625,-84.1875,-12.03125,0.0,0.0,0.0
1664564090250,-1.0458984,0.21289062,0.4267578,4.25,-72.21875,-4.09375,0.0,0.0,0.0
1664564090291,-1.0615234,0.06347656,0.4873047,-12.21875,-41.53125,1.4375,0.0,0.0,0.0
1664564090331,-0.92285156,-0.0234375,0.44140625,-23.9375,-14.1875,-8.9375,0.0,0.0,0.0
1664564090370,-0.74316406,-0.022460938,0.3203125,2.90625,2.65625,4.5,0.0,0.0,0.0
1664564090430,-0.7998047,0.044921875,0.22949219,14.5,6.21875,11.15625,0.0,0.0,0.0
1664564090449,-0.7324219,0.03515625,0.29882812,11.59375,8.84375,14.9375,0.0,0.0,0.0
1664564090491,-0.6904297,-0.001953125,0.3564453,4.0,8.53125,11.34375,0.0,0.0,0.0
1664564090530,-0.7138672,0.0625,0.23535156,8.34375,22.75,8.40625,0.0,0.0,0.0
1664564090571,-0.68847656,0.057617188,0.31445312,7.25,46.125,10.1875,-67.375,29.75,-162.8125
1664564090610,-0.67871094,0.0029296875,0.33398438,-12.53125,32.15625,13.71875,0.0,0.0,0.0
1664564090650,-0.8574219,-0.01953125,0.3564453,-14.0625,29.78125,2.78125,0.0,0.0,0.0
1664564090691,-0.84472656,-0.015625,0.41210938,-9.40625,7.6875,2.71875,0.0,0.0,0.0
1664564090730,-0.96484375,-0.038085938,0.51953125,-6.25,8.53125,-4.53125,0.0,0.0,0.0
1664564090771,-0.97265625,0.017578125,0.54003906,-23.75,-4.84375,-4.96875,0.0,0.0,0.0
1664564090810,-1.0029297,0.053710938,0.5644531,1.625,4.3125,7.625,0.0,0.0,0.0
1664564090849,-1.3066406,0.040039062,0.47753906,-8.0,1.5625,6.28125,0.0,0.0,0.0
1664564090891,-1.3115234,-0.022460938,0.48242188,-25.96875,5.84375,6.15625,0.0,0.0,0.0
1664564090929,-0.8779297,-0.14746094,0.11230469,-76.6875,-4.53125,-19.53125,0.0,0.0,0.0
1664564090969,-1.2304688,0.03515625,0.13476562,25.3125,12.75,2.1875,0.0,0.0,0.0
1664564091013,-1.0878906,0.036132812,0.18652344,23.59375,28.96875,-4.53125,0.0,0.0,0.0
1664564091050,-1.0439453,-0.029296875,0.14550781,-1.40625,28.0625,-1.84375,-65.6875,28.0625,-161.0
1664564091090,-1.0214844,-0.044921875,0.13476562,15.71875,42.21875,-6.375,0.0,0.0,0.0
1664564091130,-0.7919922,-0.016601562,0.11621094,23.3125,46.4375,-9.84375,0.0,0.0,0.0
1664564091190,-0.90625,-0.08496094,0.21191406,5.1875,22.9375,-0.4375,0.0,0.0,0.0
1664564091210,-0.8769531,-0.10546875,0.19140625,7.6875,7.96875,-0.6875,0.0,0.0,0.0
1664564091250,-0.84472656,-0.10449219,0.23046875,19.875,-5.09375,-1.0,0.0,0.0,0.0
1664564091290,-0.7753906,-0.07324219,0.17480469,15.96875,-15.875,1.28125,0.0,0.0,0.0
1664564091330,-0.75683594,-0.022460938,0.12402344,24.75,-14.96875,5.40625,0.0,0.0,0.0
1664564091370,-0.7871094,-0.009765625,0.119140625,24.875,-14.34375,1.75,0.0,0.0,0.0
1664564091410,-0.87402344,0.013671875,0.24023438,13.15625,-27.78125,3.71875,0.0,0.0,0.0
1664564091450,-0.95410156,-0.07910156,0.2861328,6.5,-9.71875,1.28125,0.0,0.0,0.0
1664564091490,-0.9765625,-0.048828125,0.36523438,3.09375,-3.125,1.28125,0.0,0.0,0.0
1664564091530,-1.0332031,-0.17675781,0.3310547,-20.9375,-3.8125,0.46875,0.0,0.0,0.0
1664564091570,-1.2705078,-0.23730469,0.33984375,-26.25,-12.09375,-12.59375,-64.5,22.8125,-160.875
1664564091610,-1.2402344,0.08203125,0.18554688,4.8125,-17.90625,-23.625,0.0,0.0,0.0
1664564091650,-1.0039062,0.12988281,0.22949219,37.875,-35.0625,-15.40625,0.0,0.0,0.0
1664564091692,-1.2255859,0.018554688,0.4296875,33.375,-51.15625,-13.5,0.0,0.0,0.0
1664564091730,-1.3115234,0.14355469,0.38964844,-3.5625,-44.625,-9.34375,0.0,0.0,0.0
1664564091770,-0.9238281,0.11328125,0.2685547,3.34375,-44.09375,6.03125,0.0,0.0,0.0
1664564091810,-1.1503906,0.115234375,0.4169922,12.6875,-28.875,2.5,0.0,0.0,0.0
1664564091850,-0.80566406,0.07128906,0.359375,4.4375,-11.6875,-7.03125,0.0,0.0,0.0
1664564091890,-0.8261719,-0.013671875,0.3701172,18.0,2.0,6.34375,0.0,0.0,0.0
1664564091950,-0.75,0.033203125,0.27929688,18.65625,14.5625,9.375,0.0,0.0,0.0
1664564091970,-0.7314453,0.061523438,0.30078125,11.75,7.25,8.34375,0.0,0.0,0.0
1664564092010,-0.72558594,0.0126953125,0.3515625,7.6875,25.1875,8.15625,0.0,0.0,0.0
1664564092050,-0.703125,-0.015625,0.31347656,-2.59375,28.1875,1.6875,-66.75,21.9375,-162.625
1664564092090,-0.73828125,0.03125,0.22949219,2.3125,46.90625,-5.875,0.0,0.0,0.0
1664564092130,-0.7578125,0.029296875,0.33203125,11.71875,29.71875,0.40625,0.0,0.0,0.0
1664564092169,-0.73828125,-0.0107421875,0.375,0.84375,1.75,0.65625,0.0,0.0,0.0
1664564092210,-0.8066406,-0.0068359375,0.3515625,-23.15625,10.65625,-12.34375,0.0,0.0,0.0
1664564092250,-0.9423828,-0.018554688,0.4638672,-11.1875,14.03125,-7.21875,0.0,0.0,0.0
1664564092291,-0.97265625,9.765625E-4,0.4794922,-7.59375,-2.46875,-3.6875,0.0,0.0,0.0
1664564092331,-0.89746094,0.025390625,0.2861328,-26.03125,11.34375,-11.0625,0.0,0.0,0.0
1664564092369,-1.4140625,0.15625,0.43554688,42.21875,6.03125,9.6875,0.0,0.0,0.0
1664564092409,-1.6884766,0.12890625,0.42773438,28.1875,-17.34375,22.1875,0.0,0.0,0.0
1664564092450,-0.7705078,-0.068359375,0.05859375,-58.65625,-37.5625,-10.21875,0.0,0.0,0.0
1664564092490,-1.4091797,-0.0126953125,0.29296875,-6.5,24.71875,-10.40625,0.0,0.0,0.0
1664564092529,-1.1572266,-0.07519531,0.24414062,8.90625,27.5625,-9.40625,0.0,0.0,0.0
1664564092570,-0.98339844,0.009765625,0.18164062,25.3125,38.6875,-18.875,-64.625,19.375,-158.125
1664564092610,-0.99902344,0.056640625,0.20898438,17.25,29.15625,-2.8125,0.0,0.0,0.0
1664564092650,-0.80078125,0.020507812,0.140625,16.53125,43.375,-5.25,0.0,0.0,0.0
1664564092710,-0.9609375,-0.15039062,0.17089844,8.03125,29.40625,2.0625,0.0,0.0,0.0
1664564092729,-0.8671875,-0.08203125,0.20703125,17.375,11.59375,1.15625,0.0,0.0,0.0
1664564092770,-0.84277344,-0.040039062,0.27441406,25.4375,3.28125,3.65625,0.0,0.0,0.0
1664564092810,-0.8955078,-0.03515625,0.19238281,9.3125,-3.875,2.4375,0.0,0.0,0.0
1664564092850,-0.7138672,-0.032226562,0.21582031,12.6875,-14.59375,7.6875,0.0,0.0,0.0
1664564092890,-0.7294922,-0.0068359375,0.07421875,-0.1875,-10.5,6.34375,0.0,0.0,0.0
1664564092930,-0.7919922,-0.036132812,0.2548828,3.40625,-18.03125,7.90625,0.0,0.0,0.0
1664564092970,-0.8935547,-0.041992188,0.13671875,-6.1875,-8.375,9.125,0.0,0.0,0.0
1664564093010,-0.92578125,-0.06542969,0.2998047,3.53125,-14.125,7.4375,0.0,0.0,0.0
1664564093050,-1.0126953,-0.12695312,0.47265625,-6.0625,-8.6875,6.875,-66.0,20.5625,-158.625
1664564093090,-1.0791016,-0.1953125,0.3330078,-27.125,0.96875,2.5,0.0,0.0,0.0
1664564093130,-1.2431641,-0.20605469,0.29101562,-7.875,-4.71875,-10.34375,0.0,0.0,0.0
1664564093169,-1.2216797,-0.047851562,0.24804688,1.9375,-17.53125,-21.3125,0.0,0.0,0.0
1664564093210,-1.1708984,0.25585938,0.10546875,47.21875,-24.5,-19.53125,0.0,0.0,0.0
1664564093249,-1.1601562,0.14941406,0.4453125,37.40625,-55.375,-4.71875,0.0,0.0,0.0
1664564093290,-1.3095703,0.15820312,0.35546875,-65.03125,-70.03125,-1.0,0.0,0.0,0.0
1664564093330,-1.0478516,-9.765625E-4,0.46289062,-26.0625,-63.5,6.8125,0.0,0.0,0.0
1664564093369,-0.9140625,0.044921875,0.24804688,-29.6875,-33.09375,6.40625,0.0,0.0,0.0
1664564093410,-1.0615234,0.05859375,0.34765625,7.0625,-33.03125,10.3125,0.0,0.0,0.0
1664564093470,-0.6845703,0.0029296875,0.37402344,-4.96875,-19.84375,-3.625,0.0,0.0,0.0
1664564093490,-0.7080078,0.034179688,0.3173828,5.96875,12.125,4.3125,0.0,0.0,0.0
1664564093530,-0.69433594,0.037109375,0.31347656,10.71875,16.21875,6.9375,0.0,0.0,0.0
1664564093570,-0.68652344,0.055664062,0.27148438,-0.25,13.15625,11.09375,-67.5,21.9375,-167.875
1664564093610,-0.6513672,0.072265625,0.30371094,2.59375,24.15625,13.40625,0.0,0.0,0.0
1664564093649,-0.6689453,0.005859375,0.38378906,4.4375,26.15625,11.21875,0.0,0.0,0.0
1664564093690,-0.75878906,-0.016601562,0.37695312,-4.09375,36.125,6.28125,0.0,0.0,0.0
1664564093730,-0.76953125,-0.025390625,0.3935547,-24.96875,2.84375,11.34375,0.0,0.0,0.0
1664564093770,-0.80566406,-0.06738281,0.41503906,0.0,8.53125,5.40625,0.0,0.0,0.0
1664564093810,-0.8808594,-0.005859375,0.43945312,-28.34375,23.0,-7.34375,0.0,0.0,0.0
1664564093850,-0.98046875,0.0048828125,0.515625,2.1875,17.75,-3.5,0.0,0.0,0.0
1664564093890,-0.99121094,-0.013671875,0.6347656,-3.5625,10.65625,3.90625,0.0,0.0,0.0
1664564093930,-1.0224609,-0.06640625,0.5957031,-20.71875,17.625,-1.96875,0.0,0.0,0.0
1664564093970,-1.1835938,0.10253906,0.7285156,17.0625,19.03125,2.125,0.0,0.0,0.0
1664564094011,-1.375,0.2607422,0.63964844,4.875,-0.0625,24.875,0.0,0.0,0.0
1664564094050,-0.90234375,-0.36132812,0.50390625,-85.03125,-21.875,-14.1875,-64.1875,21.1875,-157.5625
1664564094090,-1.21875,-0.32617188,-0.041992188,-29.8125,15.0625,-12.34375,0.0,0.0,0.0
1664564094130,-1.0664062,0.33203125,-0.048828125,53.75,63.53125,-4.65625,0.0,0.0,0.0
1664564094170,-0.85058594,0.328125,0.17480469,58.625,46.0625,-0.0625,0.0,0.0,0.0
1664564094230,-1.1386719,-0.13476562,0.09082031,-43.21875,26.46875,11.09375,0.0,0.0,0.0
1664564094251,-1.0244141,-0.03125,0.016601562,-8.4375,55.21875,-13.25,0.0,0.0,0.0
1664564094289,-0.9199219,-0.005859375,0.0625,4.3125,44.53125,-4.40625,0.0,0.0,0.0
1664564094329,-0.9121094,-0.01171875,0.10546875,21.46875,42.09375,7.5625,0.0,0.0,0.0
1664564094370,-0.890625,-0.072265625,0.07910156,9.375,37.71875,10.96875,0.0,0.0,0.0
1664564094410,-0.86035156,0.0126953125,0.09472656,26.21875,52.34375,18.46875,0.0,0.0,0.0
1664564094450,-0.9189453,0.033203125,0.17578125,22.1875,43.4375,22.625,0.0,0.0,0.0
1664564094490,-1.0029297,-0.016601562,0.072265625,2.5,51.875,20.8125,0.0,0.0,0.0
1664564094532,-1.0146484,0.0068359375,0.0126953125,10.0625,51.375,18.90625,0.0,0.0,0.0
1664564094570,-1.1162109,-9.765625E-4,0.07421875,0.84375,34.40625,18.46875,-68.125,28.5625,-163.875
1664564094610,-1.1806641,-0.00390625,0.17089844,-21.8125,22.5625,11.53125,0.0,0.0,0.0
1664564094650,-1.2109375,-0.17480469,0.047851562,-40.90625,9.6875,-1.0625,0.0,0.0,0.0
1664564094690,-1.1855469,-0.061523438,-0.0859375,-23.28125,-18.4375,-13.625,0.0,0.0,0.0
1664564094730,-1.0908203,0.0703125,-0.10449219,4.5625,-47.125,-18.875,0.0,0.0,0.0
1664564094771,-0.85253906,0.09667969,-0.037109375,22.625,-71.1875,-23.15625,0.0,0.0,0.0
1664564094811,-1.2685547,0.22363281,-0.047851562,6.625,-93.75,-36.5,0.0,0.0,0.0
1664564094853,-1.1826172,0.3564453,-0.047851562,-24.375,-94.625,-35.0,0.0,0.0,0.0
1664564094890,-1.0712891,0.115234375,0.12988281,-63.5,-79.78125,-15.09375,0.0,0.0,0.0
1664564094929,-0.9628906,0.103515625,0.31347656,-81.8125,-105.59375,0.78125,0.0,0.0,0.0
1664564094990,-0.7714844,0.0546875,0.0859375,-57.03125,-87.1875,17.5625,0.0,0.0,0.0
1664564095010,-1.0498047,-0.024414062,0.24023438,27.21875,-47.375,12.875,0.0,0.0,0.0
1664564095050,-0.8173828,0.09667969,0.29296875,29.46875,-41.9375,-9.34375,-70.1875,25.0625,-156.625
1664564095090,-0.6611328,0.034179688,0.1796875,18.0,-20.09375,4.25,0.0,0.0,0.0
1664564095132,-0.6357422,0.018554688,0.1953125,27.03125,10.71875,11.71875,0.0,0.0,0.0
1664564095170,-0.6152344,0.04296875,0.3935547,23.90625,-1.96875,21.78125,0.0,0.0,0.0
1664564095210,-0.9550781,-0.0859375,0.50683594,35.4375,49.84375,18.65625,0.0,0.0,0.0
1664564095250,-1.0957031,-0.05859375,0.578125,8.53125,22.8125,-16.125,0.0,0.0,0.0
1664564095292,-0.8935547,-0.029296875,0.5019531,-22.0,-1.40625,-17.03125,0.0,0.0,0.0
1664564095330,-0.9501953,-0.27539062,0.5175781,-11.1875,-20.03125,-21.3125,0.0,0.0,0.0
1664564095370,-1.0449219,0.16210938,0.36132812,31.125,18.59375,-13.8125,0.0,0.0,0.0
1664564095409,-1.625,0.38671875,0.39648438,57.78125,2.0,2.4375,0.0,0.0,0.0
1664564095451,-0.62109375,0.14355469,0.12890625,5.90625,-30.15625,-14.40625,0.0,0.0,0.0
1664564095490,-0.9003906,0.0068359375,-0.27148438,-5.5,26.09375,-15.9375,0.0,0.0,0.0
1664564095530,-1.203125,0.12890625,0.17285156,62.5,28.78125,2.0,0.0,0.0,0.0
1664564095570,-1.0830078,0.059570312,0.21484375,35.9375,7.8125,-14.90625,-71.6875,22.8125,-162.8125
1664564095610,-0.92871094,0.22363281,0.28222656,17.1875,38.0625,-28.59375,0.0,0.0,0.0
1664564095650,-0.8955078,0.07519531,0.14550781,-19.0625,55.96875,-16.625,0.0,0.0,0.0
1664564095690,-0.85058594,0.028320312,0.12792969,-7.71875,46.375,-8.8125,0.0,0.0,0.0
1664564095750,-0.9326172,0.0068359375,0.24902344,-6.90625,18.21875,5.21875,0.0,0.0,0.0
1664564095770,-0.82421875,-0.047851562,0.2578125,1.3125,5.53125,3.09375,0.0,0.0,0.0
1664564095810,-0.8642578,-0.037109375,0.2890625,-16.25,-7.40625,3.59375,0.0,0.0,0.0
1664564095852,-0.7910156,-0.034179688,0.14355469,-41.65625,-11.375,6.40625,0.0,0.0,0.0
1664564095890,-0.59765625,-0.06933594,0.0703125,-16.96875,-13.4375,2.59375,0.0,0.0,0.0
1664564095930,-0.63964844,-0.061523438,0.2548828,-4.96875,-26.75,5.0625,0.0,0.0,0.0
1664564095970,-0.8925781,-0.046875,0.13476562,-28.53125,-5.625,3.90625,0.0,0.0,0.0
1664564096009,-0.9160156,-0.0068359375,0.23925781,0.46875,-8.625,5.34375,0.0,0.0,0.0
1664564096050,-0.9892578,-0.048828125,0.58691406,16.28125,-18.3125,8.21875,-67.5,23.0,-160.5625
1664564096090,-1.1679688,-0.16699219,0.3125,-24.90625,-1.125,3.78125,0.0,0.0,0.0
1664564096129,-1.3183594,-0.2109375,0.5410156,7.625,-17.90625,-7.78125,0.0,0.0,0.0
1664564096170,-1.1005859,-0.03125,0.24804688,-14.53125,-26.8125,-22.34375,0.0,0.0,0.0
1664564096209,-1.1337891,0.25,0.11230469,33.5625,-36.6875,-16.96875,0.0,0.0,0.0
1664564096250,-1.1650391,0.21875,0.5078125,42.28125,-77.59375,-2.46875,0.0,0.0,0.0
1664564096290,-1.0253906,0.083984375,0.4140625,-40.0,-56.0,2.0,0.0,0.0,0.0
1664564096331,-1.0712891,0.051757812,0.41503906,-39.25,-39.0625,9.09375,0.0,0.0,0.0
1664564096370,-1.1669922,0.09277344,0.50390625,-13.6875,-9.125,-4.28125,0.0,0.0,0.0
1664564096410,-0.83984375,0.0126953125,0.5625,-23.6875,7.25,-18.4375,0.0,0.0,0.0
1664564096451,-0.8173828,-0.068359375,0.4091797,-16.4375,20.84375,5.28125,0.0,0.0,0.0
1664564096510,-0.71972656,-0.0146484375,0.2626953,-3.5625,9.6875,23.71875,0.0,0.0,0.0
1664564096530,-0.6152344,0.028320312,0.21484375,5.125,-1.96875,34.59375,0.0,0.0,0.0
1664564096569,-0.5107422,0.038085938,0.2421875,22.1875,19.40625,40.8125,-69.0,23.0,-168.9375
1664564096609,-0.6171875,0.06542969,0.16113281,1.28125,67.71875,16.40625,0.0,0.0,0.0
1664564096651,-0.703125,0.018554688,0.16210938,12.75,77.9375,6.875,0.0,0.0,0.0
1664564096690,-0.8017578,-0.072265625,0.3671875,21.40625,37.34375,6.15625,0.0,0.0,0.0
1664564096729,-0.95703125,0.02734375,0.37890625,-10.28125,26.96875,-9.65625,0.0,0.0,0.0
1664564096773,-1.0791016,0.095703125,0.5576172,0.53125,8.96875,-3.375,0.0,0.0,0.0
1664564096810,-1.0576172,0.018554688,0.6640625,-21.375,-10.625,-4.59375,0.0,0.0,0.0
1664564096849,-1.3125,0.13183594,0.74609375,-17.28125,-14.90625,-10.34375,0.0,0.0,0.0
1664564096891,-1.1259766,0.18652344,0.44726562,36.375,-14.25,9.4375,0.0,0.0,0.0
1664564096930,-0.96972656,-0.32617188,0.33496094,-43.34375,-61.125,-23.6875,0.0,0.0,0.0
1664564096970,-1.2392578,0.00390625,-0.0126953125,5.46875,-4.59375,-13.25,0.0,0.0,0.0
1664564097010,-1.0585938,0.3154297,0.06347656,49.90625,10.78125,-2.15625,0.0,0.0,0.0
1664564097050,-1.1689453,-0.06542969,0.36132812,-22.59375,10.53125,-4.78125,-72.625,28.8125,-164.4375
1664564097090,-1.1816406,0.041992188,0.2890625,-5.03125,46.8125,-5.9375,0.0,0.0,0.0
1664564097130,-0.9355469,-0.0234375,0.107421875,-1.71875,46.96875,-13.1875,0.0,0.0,0.0
1664564097170,-0.73535156,0.018554688,0.17773438,26.90625,38.875,-3.875,0.0,0.0,0.0
1664564097210,-0.8378906,-0.0107421875,0.17871094,3.03125,24.65625,4.6875,0.0,0.0,0.0
1664564097270,-0.79003906,-0.0390625,0.26367188,8.53125,5.90625,2.84375,0.0,0.0,0.0
1664564097289,-0.8027344,-0.052734375,0.22558594,-11.0,-8.4375,2.5625,0.0,0.0,0.0
1664564097332,-0.6982422,-0.041992188,0.1875,0.40625,-8.375,6.5,0.0,0.0,0.0
1664564097370,-0.73046875,-0.041992188,0.2421875,-4.90625,-18.21875,5.84375,0.0,0.0,0.0
1664564097410,-0.9199219,-0.13183594,0.25585938,-6.5,-23.625,8.03125,0.0,0.0,0.0
1664564097452,-0.82910156,0.001953125,0.24707031,19.8125,-14.78125,1.6875,0.0,0.0,0.0
1664564097490,-0.98339844,-0.06347656,0.3857422,-0.375,-12.46875,1.15625,0.0,0.0,0.0
1664564097529,-0.9794922,-0.12597656,0.37695312,-7.46875,0.53125,3.90625,0.0,0.0,0.0
1664564097570,-1.2099609,-0.18945312,0.4013672,-10.40625,8.46875,-8.75,-66.75,23.75,-159.5
1664564097610,-1.3417969,-0.02734375,0.296875,-5.5625,0.59375,-21.8125,0.0,0.0,0.0
1664564097650,-1.0654297,0.09667969,0.17285156,27.625,-27.78125,-18.5,0.0,0.0,0.0
1664564097690,-1.1914062,0.19335938,0.3046875,45.9375,-42.375,-11.84375,0.0,0.0,0.0
1664564097730,-1.0634766,0.14453125,0.34765625,9.4375,-56.78125,0.09375,0.0,0.0,0.0
1664564097770,-0.94140625,0.111328125,0.39746094,-15.03125,-50.5,10.375,0.0,0.0,0.0
1664564097811,-1.0898438,0.15722656,0.39746094,-10.28125,-32.25,10.90625,0.0,0.0,0.0
1664564097850,-0.88671875,0.048828125,0.42773438,-11.78125,-21.8125,7.0,0.0,0.0,0.0
1664564097890,-0.8671875,0.017578125,0.33691406,-9.53125,3.40625,10.0625,0.0,0.0,0.0
1664564097930,-0.75878906,0.038085938,0.29296875,9.5,8.03125,6.75,0.0,0.0,0.0
1664564097970,-0.7451172,0.05859375,0.3359375,17.125,17.5625,4.9375,0.0,0.0,0.0
1664564098030,-0.6660156,-0.0146484375,0.27929688,4.625,26.59375,1.6875,0.0,0.0,0.0
1664564098049,-0.6972656,0.046875,0.20605469,6.21875,38.6875,-5.4375,-65.875,24.625,-159.375
1664564098092,-0.7783203,0.05859375,0.31347656,23.71875,42.53125,-1.125,0.0,0.0,0.0
1664564098130,-0.6621094,0.0029296875,0.38964844,-8.8125,-9.53125,8.65625,0.0,0.0,0.0
1664564098170,-0.7949219,-0.026367188,0.2919922,-10.875,12.5,-1.84375,0.0,0.0,0.0
1664564098210,-0.8095703,-0.029296875,0.40429688,4.375,13.78125,-8.25,0.0,0.0,0.0
1664564098250,-0.96777344,-0.03515625,0.4873047,-6.5,14.75,-6.0625,0.0,0.0,0.0
1664564098290,-1.0439453,0.00390625,0.5654297,-12.09375,10.78125,1.4375,0.0,0.0,0.0
1664564098331,-1.0537109,0.030273438,0.6611328,6.75,-1.25,7.90625,0.0,0.0,0.0
1664564098370,-1.4726562,0.16015625,0.5654297,1.75,3.65625,9.09375,0.0,0.0,0.0
1664564098410,-1.5292969,0.0068359375,0.26953125,-27.0,-2.40625,-9.90625,0.0,0.0,0.0
1664564098450,-0.59472656,0.18164062,0.08886719,-34.5625,1.09375,-40.0,0.0,0.0,0.0
1664564098490,-1.3603516,-0.055664062,0.08984375,-40.46875,-8.25,16.28125,0.0,0.0,0.0
1664564098530,-1.0976562,-0.029296875,0.3095703,41.25,38.0,-0.9375,0.0,0.0,0.0
1664564098570,-1.0664062,-0.0234375,0.17382812,7.75,27.34375,-5.21875,-67.5,21.9375,-159.1875
1664564098610,-0.9482422,0.091796875,0.15527344,31.28125,40.6875,-9.21875,0.0,0.0,0.0
1664564098649,-0.89941406,0.076171875,0.14355469,22.3125,43.5625,-2.09375,0.0,0.0,0.0
1664564098690,-0.97558594,-0.10644531,0.19628906,7.5625,29.78125,3.53125,0.0,0.0,0.0
1664564098730,-0.8857422,-0.053710938,0.13769531,13.96875,19.46875,-3.4375,0.0,0.0,0.0
1664564098790,-0.8691406,0.052734375,0.19628906,28.90625,10.96875,-2.6875,0.0,0.0,0.0
1664564098810,-0.83691406,-9.765625E-4,0.26660156,16.34375,-4.59375,2.78125,0.0,0.0,0.0
1664564098850,-0.8027344,-0.08105469,0.1875,-6.0625,-3.0625,-1.71875,0.0,0.0,0.0
1664564098890,-0.75,-0.0087890625,0.2421875,10.125,-17.71875,1.21875,0.0,0.0,0.0
1664564098950,-0.6816406,-0.047851562,0.10449219,2.5625,-7.15625,2.4375,0.0,0.0,0.0
1664564098970,-0.8857422,-0.046875,0.13183594,-6.1875,-11.625,3.71875,0.0,0.0,0.0
1664564099010,-0.8359375,-0.005859375,0.26464844,15.0625,-13.75,1.6875,0.0,0.0,0.0
1664564099050,-0.8964844,-0.053710938,0.19726562,-12.03125,-4.46875,-0.8125,-66.875,22.8125,-157.6875
1664564099090,-0.94628906,-0.19433594,0.47753906,-0.6875,-11.78125,3.65625,0.0,0.0,0.0
1664564099130,-1.46875,-0.22558594,0.27246094,-30.34375,-5.3125,-13.25,0.0,0.0,0.0
1664564099170,-1.2158203,-0.07714844,0.1796875,15.4375,-37.3125,-31.09375,0.0,0.0,0.0
1664564099211,-1.4189453,0.21484375,0.31347656,43.375,-71.375,-41.8125,0.0,0.0,0.0
1664564099250,-1.3925781,0.33398438,0.6152344,24.28125,-100.65625,-27.78125,0.0,0.0,0.0
1664564099290,-1.078125,0.022460938,0.3671875,-57.5625,-57.3125,-7.59375,0.0,0.0,0.0
1664564099331,-1.2363281,0.0068359375,0.37890625,-12.34375,-31.9375,4.25,0.0,0.0,0.0
1664564099370,-0.8720703,0.078125,0.3544922,22.625,-38.71875,-0.625,0.0,0.0,0.0
1664564099409,-0.67871094,0.07128906,0.33203125,19.15625,-10.21875,13.71875,0.0,0.0,0.0
1664564099451,-0.6152344,0.083984375,0.25390625,9.3125,-7.9375,28.96875,0.0,0.0,0.0
1664564099490,-0.6826172,0.001953125,0.2998047,13.09375,7.125,18.59375,0.0,0.0,0.0
1664564099550,-0.6113281,9.765625E-4,0.31933594,17.875,12.25,12.75,0.0,0.0,0.0
1664564099570,-0.7373047,0.047851562,0.3408203,18.71875,49.125,0.65625,-68.6875,22.8125,-162.8125
1664564099610,-0.7783203,0.0087890625,0.5605469,-9.0,36.78125,-2.28125,0.0,0.0,0.0
1664564099653,-0.8251953,-0.024414062,0.32128906,-22.84375,46.90625,-0.125,0.0,0.0,0.0
1664564099690,-0.78515625,0.018554688,0.37304688,0.96875,39.59375,-5.375,0.0,0.0,0.0
1664564099730,-0.86035156,-0.017578125,0.29296875,-4.15625,20.125,9.03125,0.0,0.0,0.0
1664564099771,-0.8183594,-0.013671875,0.328125,-12.40625,18.53125,-4.71875,0.0,0.0,0.0
1664564099810,-0.96972656,0.051757812,0.37109375,4.5625,32.40625,-3.6875,0.0,0.0,0.0
1664564099850,-1.0791016,0.015625,0.5019531,18.0625,20.96875,6.46875,0.0,0.0,0.0
1664564099891,-1.0664062,0.083984375,0.5576172,30.375,28.5,-1.78125,0.0,0.0,0.0
1664564099930,-1.3408203,0.17773438,0.57421875,28.25,9.6875,7.75,0.0,0.0,0.0
1664564099970,-1.2431641,-0.1640625,0.20117188,-47.5,-46.03125,5.59375,0.0,0.0,0.0
1664564100010,-0.8466797,-0.16308594,0.125,-39.5,-28.8125,-16.8125,0.0,0.0,0.0
1664564100050,-1.046875,0.13574219,-0.057617188,18.53125,30.6875,-20.28125,-67.8125,19.8125,-150.625
1664564100090,-0.9589844,0.18847656,0.28125,30.875,7.125,2.71875,0.0,0.0,0.0
1664564100130,-1.0595703,0.0546875,0.28320312,-25.21875,12.5,4.3125,0.0,0.0,0.0
1664564100170,-0.9316406,-0.064453125,0.09667969,-13.375,28.71875,-6.0625,0.0,0.0,0.0
1664564100211,-0.8984375,-0.0126953125,0.15917969,6.625,18.21875,2.0,0.0,0.0,0.0
1664564100250,-0.95214844,-0.07519531,0.33203125,0.78125,9.25,5.125,0.0,0.0,0.0
1664564100310,-0.8203125,-0.036132812,0.21777344,-12.09375,2.90625,2.1875,0.0,0.0,0.0
1664564100330,-0.6894531,-0.026367188,0.14355469,-5.3125,-5.3125,11.71875,0.0,0.0,0.0
1664564100370,-0.68359375,-0.0087890625,0.16503906,-13.125,-8.625,12.625,0.0,0.0,0.0
1664564100410,-0.7949219,-0.08691406,0.2783203,-7.8125,-17.46875,12.1875,0.0,0.0,0.0
1664564100450,-0.9082031,-0.052734375,0.20410156,-3.5,-11.78125,14.875,0.0,0.0,0.0
1664564100490,-0.875,-0.0068359375,0.32617188,21.90625,-16.1875,11.21875,0.0,0.0,0.0
1664564100530,-0.93847656,-0.034179688,0.5126953,-4.90625,-12.53125,6.9375,0.0,0.0,0.0
1664564100570,-1.046875,-0.27148438,0.3701172,-33.40625,1.4375,7.25,-65.6875,22.375,-154.125
1664564100610,-1.0068359,-0.24707031,0.38476562,-4.40625,4.5625,-5.25,0.0,0.0,0.0
1664564100650,-1.2041016,-0.20214844,0.30859375,-15.03125,5.59375,-23.5,0.0,0.0,0.0
1664564100689,-1.1582031,0.0107421875,0.18164062,15.0,-10.875,-36.34375,0.0,0.0,0.0
1664564100731,-1.0771484,0.15527344,0.17285156,28.625,-27.84375,-20.46875,0.0,0.0,0.0
1664564100770,-1.3261719,0.25390625,0.3779297,23.0625,-46.53125,-10.875,0.0,0.0,0.0
1664564100810,-1.1044922,0.20703125,0.48242188,15.71875,-36.875,-15.34375,0.0,0.0,0.0
1664564100850,-1.1289062,0.09472656,0.3671875,-20.65625,-18.25,0.96875,0.0,0.0,0.0
1664564100890,-1.0371094,0.12207031,0.31054688,-3.0625,-14.53125,7.3125,0.0,0.0,0.0
1664564100930,-0.8574219,0.11035156,0.328125,6.5625,-22.34375,14.75,0.0,0.0,0.0
1664564100970,-0.7480469,0.06347656,0.33203125,9.1875,-17.03125,24.40625,0.0,0.0,0.0
1664564101010,-0.70996094,0.060546875,0.28027344,2.375,5.84375,18.125,0.0,0.0,0.0
1664564101070,-0.6738281,0.037109375,0.33789062,3.9375,11.75,10.65625,-67.375,20.0,-158.3125
1664564101090,-0.64746094,-0.013671875,0.30664062,7.375,37.46875,1.9375,0.0,0.0,0.0
1664564101130,-0.7109375,0.032226562,0.15332031,0.28125,68.09375,-20.84375,0.0,0.0,0.0
1664564101172,-0.7939453,0.07421875,0.36816406,9.1875,37.46875,2.0,0.0,0.0,0.0
1664564101210,-0.7998047,0.015625,0.34375,-18.6875,1.375,3.03125,0.0,0.0,0.0
1664564101250,-0.9707031,0.021484375,0.39257812,-21.75,21.65625,-4.53125,0.0,0.0,0.0
1664564101290,-0.9550781,-0.045898438,0.5332031,-16.0,6.40625,-1.0625,0.0,0.0,0.0
1664564101330,-1.0205078,-0.07714844,0.5654297,-20.34375,1.875,-2.46875,0.0,0.0,0.0
1664564101370,-1.1972656,0.10644531,0.26464844,-2.75,29.21875,-4.34375,0.0,0.0,0.0
1664564101410,-1.3203125,0.18554688,0.13769531,39.28125,3.40625,2.96875,0.0,0.0,0.0
1664564101449,-1.1699219,0.18261719,0.20800781,29.09375,27.34375,-5.3125,0.0,0.0,0.0
1664564101490,-1.2675781,0.001953125,-0.0078125,-71.96875,-13.9375,0.28125,0.0,0.0,0.0
1664564101530,-1.0742188,-0.051757812,0.13574219,-24.625,2.59375,-1.90625,0.0,0.0,0.0
1664564101570,-0.99121094,-0.00390625,0.037109375,4.875,26.53125,0.40625,-69.125,20.3125,-153.5
1664564101609,-1.1054688,0.087890625,0.18945312,0.53125,28.0625,3.84375,0.0,0.0,0.0
1664564101650,-0.9433594,0.060546875,0.10644531,-22.78125,26.65625,4.1875,0.0,0.0,0.0
1664564101691,-0.8964844,-0.034179688,0.080078125,-16.1875,30.375,4.75,0.0,0.0,0.0
1664564101730,-0.9033203,-0.09667969,0.11425781,-17.71875,10.375,4.0625,0.0,0.0,0.0
1664564101770,-0.89746094,-0.09082031,0.2783203,-12.84375,0.59375,3.40625,0.0,0.0,0.0
1664564101830,-0.9277344,-0.099609375,0.21582031,-7.09375,0.21875,4.875,0.0,0.0,0.0
1664564101850,-0.8847656,-0.08691406,0.29003906,-0.1875,-9.21875,3.84375,0.0,0.0,0.0
1664564101890,-0.76171875,-0.09667969,0.15625,-5.4375,-14.96875,3.71875,0.0,0.0,0.0
1664564101930,-0.765625,-0.107421875,0.13574219,14.09375,-12.03125,1.6875,0.0,0.0,0.0
1664564101970,-0.796875,-0.024414062,0.22363281,26.34375,-9.34375,-4.84375,0.0,0.0,0.0
1664564102010,-0.9453125,-0.04296875,0.17578125,-3.0,-6.59375,-2.6875,0.0,0.0,0.0
1664564102050,-0.79003906,0.0107421875,0.19726562,20.90625,-10.625,-4.40625,-70.625,20.0,-151.875
1664564102090,-0.98046875,-0.15136719,0.3515625,-20.28125,-9.125,1.21875,0.0,0.0,0.0
1664564102130,-1.0195312,-0.19238281,0.28027344,1.8125,-4.15625,-3.3125,0.0,0.0,0.0
1664564102170,-1.2353516,-0.17480469,0.34765625,10.84375,-25.03125,-14.84375,0.0,0.0,0.0
1664564102211,-1.15625,0.13671875,0.09472656,32.46875,-45.0,-19.84375,0.0,0.0,0.0
1664564102250,-1.2548828,0.234375,0.20703125,52.53125,-85.90625,-19.84375,0.0,0.0,0.0
1664564102290,-1.2939453,0.21386719,0.49414062,-2.09375,-99.8125,-23.4375,0.0,0.0,0.0
1664564102331,-1.1337891,-0.016601562,0.62597656,-28.03125,-77.96875,-6.0,0.0,0.0,0.0
1664564102370,-1.2246094,-0.0146484375,0.42382812,-29.9375,-34.6875,4.9375,0.0,0.0,0.0
1664564102410,-1.0556641,-0.001953125,0.4560547,26.46875,-29.5,-2.40625,0.0,0.0,0.0
1664564102450,-0.7089844,-0.0087890625,0.44140625,17.8125,-3.0625,-3.0,0.0,0.0,0.0
1664564102490,-0.6542969,0.032226562,0.24707031,27.5,12.25,11.28125,0.0,0.0,0.0
1664564102531,-0.6220703,0.06738281,0.21777344,28.4375,16.65625,10.25,0.0,0.0,0.0
1664564102591,-0.6582031,0.060546875,0.30566406,33.3125,16.28125,5.65625,-69.3125,19.375,-154.375
1664564102609,-0.6748047,0.07324219,0.31347656,17.625,15.25,3.53125,0.0,0.0,0.0
1664564102651,-0.7763672,0.045898438,0.38476562,-2.53125,38.25,2.90625,0.0,0.0,0.0
1664564102690,-0.7050781,-0.0126953125,0.4189453,-26.25,43.875,3.28125,0.0,0.0,0.0
1664564102730,-0.83691406,-0.043945312,0.46484375,-9.65625,43.6875,1.4375,0.0,0.0,0.0
1664564102773,-0.8095703,-0.064453125,0.40429688,-22.53125,28.65625,-2.28125,0.0,0.0,0.0
1664564102810,-0.93847656,-0.02734375,0.4765625,-10.9375,21.15625,-9.53125,0.0,0.0,0.0
1664564102850,-0.87890625,-0.0126953125,0.3466797,-29.8125,14.6875,-8.625,0.0,0.0,0.0
1664564102891,-0.9951172,-0.030273438,0.5058594,-6.0,9.375,-4.96875,0.0,0.0,0.0
1664564102930,-1.0244141,-0.059570312,0.5449219,-16.5625,6.5625,-0.8125,0.0,0.0,0.0
1664564102970,-1.5048828,0.12011719,0.44140625,-15.15625,13.59375,12.9375,0.0,0.0,0.0
1664564103010,-1.0332031,0.048828125,0.9716797,16.78125,-39.3125,4.8125,0.0,0.0,0.0
1664564103050,-0.8808594,-0.1875,-0.08203125,-107.9375,-6.96875,-3.125,-65.5625,15.625,-152.4375
1664564103092,-1.0605469,-0.1953125,-0.13964844,39.09375,4.5,-4.09375,0.0,0.0,0.0
1664564103130,-1.0927734,0.14257812,0.37402344,59.5,-3.25,-4.28125,0.0,0.0,0.0
1664564103171,-1.1083984,0.18847656,0.2763672,-6.65625,19.625,-1.53125,0.0,0.0,0.0
1664564103210,-1.1660156,-0.087890625,0.22460938,-37.375,30.1875,4.0,0.0,0.0,0.0
1664564103250,-1.0029297,-0.08496094,0.19042969,-5.5625,37.40625,-8.25,0.0,0.0,0.0
1664564103291,-0.9003906,0.021484375,0.14355469,10.0,39.96875,-4.34375,0.0,0.0,0.0
1664564103350,-0.81933594,0.009765625,0.13867188,8.84375,36.90625,1.75,0.0,0.0,0.0
1664564103370,-0.9003906,-0.036132812,0.18652344,-4.09375,20.5,12.0,0.0,0.0,0.0
1664564103410,-0.77734375,-0.0703125,0.3095703,-0.5625,9.9375,7.75,0.0,0.0,0.0
1664564103450,-0.79589844,-0.115234375,0.2109375,-28.09375,-0.875,6.15625,0.0,0.0,0.0
1664564103490,-0.734375,-0.07519531,0.16015625,-15.28125,-8.5625,9.375,0.0,0.0,0.0
1664564103530,-0.6904297,-0.07324219,0.12207031,5.125,-6.125,8.40625,0.0,0.0,0.0
1664564103570,-0.7832031,-0.05859375,0.25976562,13.71875,-13.1875,7.1875,-67.1875,16.25,-151.25
1664564103610,-1.0205078,-0.10644531,0.3203125,6.40625,-10.15625,11.46875,0.0,0.0,0.0
1664564103650,-0.84472656,-0.0625,0.24902344,9.09375,-7.59375,5.59375,0.0,0.0,0.0
1664564103690,-1.0263672,-0.119140625,0.40039062,4.9375,-1.84375,1.28125,0.0,0.0,0.0
1664564103730,-1.0537109,-0.22265625,0.4296875,2.65625,2.125,-4.34375,0.0,0.0,0.0
1664564103770,-1.3662109,-0.19628906,0.2861328,-16.375,-6.96875,-21.875,0.0,0.0,0.0
1664564103810,-1.1054688,0.10253906,0.16113281,27.03125,-31.5625,-18.5625,0.0,0.0,0.0
1664564103850,-1.1279297,0.1328125,0.140625,36.0625,-47.9375,-8.1875,0.0,0.0,0.0
1664564103890,-1.3505859,0.15136719,0.40039062,-7.28125,-86.125,-3.125,0.0,0.0,0.0
1664564103930,-1.0605469,0.1015625,0.3984375,0.09375,-71.3125,1.625,0.0,0.0,0.0
1664564103970,-0.9550781,0.05078125,0.3798828,-5.5625,-40.96875,2.78125,0.0,0.0,0.0
1664564104010,-1.0791016,0.123046875,0.42285156,19.53125,-25.34375,2.0625,0.0,0.0,0.0
1664564104051,-0.7939453,0.06933594,0.40039062,3.40625,-3.4375,-4.15625,-67.375,18.5,-158.75
1664564104110,-0.74121094,-0.017578125,0.33496094,-2.15625,17.625,-1.40625,0.0,0.0,0.0
1664564104130,-0.7470703,0.00390625,0.296875,10.375,9.5,5.34375,0.0,0.0,0.0
1664564104170,-0.6357422,0.053710938,0.25097656,4.375,0.53125,9.375,0.0,0.0,0.0
1664564104210,-0.5810547,0.06542969,0.26953125,9.5,6.5625,15.25,0.0,0.0,0.0
1664564104250,-0.6894531,0.038085938,0.3466797,-2.9375,45.5625,9.09375,0.0,0.0,0.0
1664564104290,-0.80078125,0.0048828125,0.3359375,-16.75,44.59375,-0.4375,0.0,0.0,0.0
1664564104330,-0.7363281,-0.022460938,0.33007812,2.375,47.90625,-2.75,0.0,0.0,0.0
1664564104369,-0.88378906,-0.07128906,0.44628906,-9.78125,32.8125,-4.46875,0.0,0.0,0.0
1664564104410,-0.9794922,0.0029296875,0.39648438,-7.28125,23.71875,-6.1875,0.0,0.0,0.0
1664564104450,-0.9863281,0.11425781,0.5107422,-8.0,1.28125,-1.59375,0.0,0.0,0.0
1664564104490,-1.0039062,0.18066406,0.5253906,-9.90625,16.71875,10.71875,0.0,0.0,0.0
1664564104530,-1.5615234,0.24316406,0.5625,6.09375,-15.09375,40.375,0.0,0.0,0.0
1664564104570,-0.9794922,-0.3876953,0.2685547,-123.5625,-34.25,-25.84375,-69.125,21.5,-156.625
1664564104610,-0.9921875,-0.11230469,0.055664062,-22.65625,-20.09375,-14.53125,0.0,0.0,0.0
1664564104650,-1.1367188,0.09667969,0.056640625,43.75,19.15625,8.46875,0.0,0.0,0.0
1664564104690,-1.0351562,-0.076171875,0.3251953,8.21875,20.5,-3.375,0.0,0.0,0.0
1664564104730,-1.1083984,-0.11816406,0.17675781,-22.71875,38.8125,-7.9375,0.0,0.0,0.0
1664564104770,-0.8876953,-0.009765625,0.08886719,35.03125,51.75,-9.84375,0.0,0.0,0.0
1664564104810,-0.8652344,-0.034179688,0.11621094,30.25,30.25,9.6875,0.0,0.0,0.0
1664564104870,-0.85058594,-0.06542969,0.24902344,17.1875,16.34375,6.5,0.0,0.0,0.0
1664564104890,-0.8105469,-0.0859375,0.2548828,-0.125,5.0625,4.3125,0.0,0.0,0.0
1664564104930,-0.7236328,-0.08691406,0.083984375,1.4375,3.84375,3.9375,0.0,0.0,0.0
1664564104970,-0.8203125,-0.119140625,0.15917969,18.71875,-2.6875,1.8125,0.0,0.0,0.0
1664564105010,-0.7890625,-0.099609375,0.060546875,22.25,-3.125,-5.8125,0.0,0.0,0.0
1664564105050,-0.8642578,-0.047851562,0.24316406,34.46875,-9.71875,-2.6875,-68.6875,16.8125,-148.375
1664564105090,-0.98339844,-0.052734375,0.3544922,31.0625,-3.375,4.75,0.0,0.0,0.0
1664564105130,-0.9160156,-0.13378906,0.3798828,32.21875,1.21875,-3.375,0.0,0.0,0.0
1664564105170,-0.9902344,-0.22070312,0.3828125,18.59375,-5.375,-8.4375,0.0,0.0,0.0
1664564105210,-1.2841797,-0.14355469,0.11035156,18.0,-12.46875,-26.625,0.0,0.0,0.0
1664564105250,-1.2070312,0.17382812,0.1015625,49.96875,-57.375,-22.96875,0.0,0.0,0.0
1664564105291,-1.3574219,0.2998047,0.26953125,35.6875,-80.03125,-17.34375,0.0,0.0,0.0
1664564105330,-1.1865234,0.28027344,0.34277344,34.90625,-79.375,-14.71875,0.0,0.0,0.0
1664564105370,-0.96875,0.23632812,0.49902344,11.53125,-49.5625,-12.03125,0.0,0.0,0.0
1664564105410,-1.3017578,0.15722656,0.5078125,-14.0625,-49.09375,9.1875,0.0,0.0,0.0
1664564105450,-0.84277344,0.09667969,0.34960938,-4.78125,-21.75,2.71875,0.0,0.0,0.0
1664564105489,-0.8808594,-0.033203125,0.42382812,-4.21875,-10.34375,8.96875,0.0,0.0,0.0
1664564105531,-0.64941406,0.0087890625,0.32421875,7.84375,-7.8125,7.96875,0.0,0.0,0.0
1664564105570,-0.6230469,0.09667969,0.30664062,12.375,-4.34375,16.34375,-73.5,24.3125,-173.875
1664564105631,-0.65722656,0.08984375,0.41015625,0.59375,7.0,16.78125,0.0,0.0,0.0
1664564105650,-0.64160156,0.045898438,0.35253906,-18.375,26.53125,17.3125,0.0,0.0,0.0
1664564105690,-0.70214844,-0.025390625,0.37890625,-26.1875,44.65625,12.3125,0.0,0.0,0.0
1664564105730,-0.7246094,-0.013671875,0.39746094,-19.90625,57.0,2.84375,0.0,0.0,0.0
1664564105771,-0.7988281,0.024414062,0.39746094,-13.8125,56.0625,-9.65625,0.0,0.0,0.0
1664564105811,-0.73828125,0.033203125,0.42089844,-17.21875,6.21875,1.8125,0.0,0.0,0.0
1664564105850,-0.93652344,0.056640625,0.31445312,-16.375,29.15625,1.875,0.0,0.0,0.0
1664564105890,-1.0605469,0.046875,0.6044922,-10.6875,14.21875,-2.8125,0.0,0.0,0.0
1664564105930,-1.0195312,-0.0078125,0.640625,-40.46875,8.71875,-2.75,0.0,0.0,0.0
1664564105970,-1.0283203,-0.0068359375,0.4609375,-27.3125,38.625,-7.15625,0.0,0.0,0.0
1664564106010,-1.1464844,0.23632812,0.36816406,13.28125,29.03125,15.1875,0.0,0.0,0.0
1664564106050,-1.3291016,-0.05859375,0.23339844,-43.96875,-26.3125,15.375,-70.8125,17.0,-153.0625
1664564106090,-0.9296875,-0.123046875,0.083984375,-48.84375,-20.78125,-7.78125,0.0,0.0,0.0
1664564106130,-1.3330078,0.09472656,0.15625,19.28125,35.625,-13.3125,0.0,0.0,0.0
1664564106170,-1.0234375,0.11621094,0.23535156,26.78125,18.21875,-2.28125,0.0,0.0,0.0
1664564106210,-1.0732422,0.08984375,0.21484375,-31.6875,34.46875,1.8125,0.0,0.0,0.0
1664564106250,-0.9375,0.0107421875,0.11816406,-27.0625,39.71875,-1.34375,0.0,0.0,0.0
1664564106291,-0.8046875,0.037109375,0.11621094,-3.625,40.875,0.59375,0.0,0.0,0.0
1664564106331,-0.9238281,-0.044921875,0.12695312,-6.90625,23.4375,9.8125,0.0,0.0,0.0
1664564106390,-0.796875,-0.03125,0.11328125,1.625,5.53125,10.0625,0.0,0.0,0.0
1664564106409,-0.6972656,-0.051757812,0.1875,-6.65625,-11.5625,8.21875,0.0,0.0,0.0
1664564106451,-0.9082031,-0.028320312,0.22363281,-25.78125,-12.21875,9.8125,0.0,0.0,0.0
1664564106490,-0.6269531,-0.15722656,-0.048828125,-24.5,-12.71875,8.96875,0.0,0.0,0.0
1664564106530,-0.921875,-0.13867188,0.08105469,10.3125,-12.90625,-1.0,0.0,0.0,0.0
1664564106570,-0.9892578,0.025390625,0.40429688,40.875,-18.3125,6.8125,-67.5,20.125,-152.625
1664564106610,-0.9433594,0.03125,0.41308594,6.34375,0.96875,5.84375,0.0,0.0,0.0
1664564106650,-1.0361328,-0.11035156,0.4638672,-21.3125,-3.8125,0.96875,0.0,0.0,0.0
1664564106690,-1.2246094,-0.26953125,0.38476562,-15.46875,-1.40625,-4.96875,0.0,0.0,0.0
1664564106730,-1.2490234,-0.060546875,0.09667969,11.15625,-22.0625,-20.78125,0.0,0.0,0.0
1664564106770,-1.1220703,0.18457031,0.026367188,56.9375,-61.0625,-14.96875,0.0,0.0,0.0
1664564106810,-1.0244141,0.22265625,0.17480469,34.78125,-92.84375,-3.3125,0.0,0.0,0.0
1664564106851,-1.1982422,0.3203125,0.41992188,-33.03125,-92.65625,4.9375,0.0,0.0,0.0
1664564106893,-1.1337891,0.16601562,0.72753906,-11.1875,-61.34375,3.40625,0.0,0.0,0.0
1664564106929,-1.1044922,-0.018554688,0.59472656,-29.375,-41.65625,-5.25,0.0,0.0,0.0
1664564106970,-0.828125,-0.08203125,0.37597656,2.84375,-3.0,-27.0,0.0,0.0,0.0
1664564107010,-0.66308594,0.013671875,0.30371094,2.5,3.03125,-0.8125,0.0,0.0,0.0
1664564107050,-0.7080078,0.099609375,0.29296875,11.9375,5.34375,11.28125,-74.25,22.0625,-174.625
1664564107090,-0.58691406,0.026367188,0.3623047,12.1875,9.875,7.75,0.0,0.0,0.0
1664564107150,-0.6435547,0.0078125,0.22753906,-12.40625,30.1875,13.09375,0.0,0.0,0.0
1664564107170,-0.7363281,0.025390625,0.234375,0.03125,39.84375,16.34375,0.0,0.0,0.0
1664564107210,-0.7705078,0.02734375,0.46191406,6.34375,53.4375,6.21875,0.0,0.0,0.0
1664564107250,-0.73046875,-0.05859375,0.29101562,-3.1875,58.03125,2.5,0.0,0.0,0.0
1664564107291,-0.93847656,9.765625E-4,0.44726562,10.59375,41.65625,-9.0625,0.0,0.0,0.0
1664564107330,-0.9638672,0.0546875,0.41308594,2.3125,19.28125,-6.4375,0.0,0.0,0.0
1664564107371,-0.9550781,-0.01953125,0.4736328,-20.71875,4.75,-7.28125,0.0,0.0,0.0
1664564107410,-1.0175781,-0.046875,0.65234375,-3.625,3.03125,-9.96875,0.0,0.0,0.0
1664564107450,-1.0898438,-0.0078125,0.5107422,-23.9375,1.28125,-0.9375,0.0,0.0,0.0
1664564107490,-1.1484375,0.055664062,0.4375,42.21875,13.78125,5.34375,0.0,0.0,0.0
1664564107529,-1.1259766,-0.3359375,0.38183594,-47.4375,-30.09375,-21.3125,0.0,0.0,0.0
1664564107570,-1.0107422,-0.043945312,0.24804688,16.46875,-38.71875,10.46875,-61.5,18.1875,-160.125
1664564107610,-1.1259766,0.11816406,0.0029296875,13.28125,30.875,-3.0,0.0,0.0,0.0
1664564107651,-1.0712891,-0.040039062,0.31445312,-9.0,20.96875,-9.53125,0.0,0.0,0.0
1664564107689,-1.0976562,-0.060546875,0.14257812,-11.3125,33.4375,-0.625,0.0,0.0,0.0
1664564107730,-0.94433594,0.0029296875,0.12890625,22.75,42.15625,-5.9375,0.0,0.0,0.0
1664564107770,-0.87402344,0.08984375,0.17089844,27.625,35.875,3.65625,0.0,0.0,0.0
1664564107810,-0.9013672,-0.080078125,0.22949219,0.0,30.1875,4.6875,0.0,0.0,0.0
1664564107850,-0.83496094,-0.11230469,0.21386719,-12.84375,14.28125,0.90625,0.0,0.0,0.0
1664564107910,-0.78125,-0.123046875,0.18554688,-10.9375,1.3125,2.84375,0.0,0.0,0.0
1664564107930,-0.7314453,-0.07519531,0.049804688,2.96875,0.40625,5.125,0.0,0.0,0.0
1664564107970,-0.74902344,-0.056640625,0.1328125,15.3125,-10.625,12.0,0.0,0.0,0.0
1664564108010,-0.72753906,-0.013671875,0.111328125,23.71875,-6.3125,4.1875,0.0,0.0,0.0
1664564108050,-0.8925781,-0.02734375,0.3984375,15.5,-14.71875,9.375,-65.875,18.1875,-156.375
1664564108090,-1.0019531,-0.21582031,0.296875,-14.65625,-0.625,6.6875,0.0,0.0,0.0
1664564108130,-0.9980469,-0.16210938,0.328125,8.28125,-3.3125,-5.03125,0.0,0.0,0.0
1664564108169,-1.4423828,-0.19433594,0.2890625,-5.15625,-10.21875,-15.34375,0.0,0.0,0.0
1664564108211,-1.1328125,0.1171875,0.099609375,13.34375,-35.28125,-24.4375,0.0,0.0,0.0
1664564108250,-1.0888672,0.1171875,0.13085938,33.0625,-61.90625,-20.34375,0.0,0.0,0.0
1664564108290,-1.4951172,0.14355469,0.48046875,2.1875,-86.5,-9.65625,0.0,0.0,0.0
1664564108330,-1.0751953,0.10058594,0.39746094,21.53125,-63.1875,0.21875,0.0,0.0,0.0
1664564108370,-1.1357422,0.18066406,0.39746094,16.21875,-29.5625,6.46875,0.0,0.0,0.0
1664564108410,-0.90527344,0.11621094,0.3857422,6.40625,-31.6875,-0.25,0.0,0.0,0.0
1664564108450,-0.8027344,0.0048828125,0.4248047,0.53125,-0.3125,8.03125,0.0,0.0,0.0
1664564108490,-0.75,-0.040039062,0.265625,0.0,15.625,9.8125,0.0,0.0,0.0
1664564108531,-0.7314453,0.041015625,0.21386719,17.125,16.53125,9.4375,0.0,0.0,0.0
1664564108570,-0.74902344,0.09765625,0.3232422,27.15625,18.90625,5.71875,-66.3125,17.4375,-162.5
1664564108610,-0.67285156,0.10839844,0.3076172,-6.84375,36.375,-1.59375,0.0,0.0,0.0
1664564108671,-0.7167969,0.03125,0.24121094,-13.625,57.40625,-3.8125,0.0,0.0,0.0
1664564108690,-0.6982422,-0.05078125,0.25097656,2.0625,47.90625,-2.21875,0.0,0.0,0.0
1664564108730,-0.8232422,-0.020507812,0.3125,-15.28125,31.65625,-1.65625,0.0,0.0,0.0
1664564108771,-0.8613281,-0.01171875,0.3828125,-10.875,9.25,-4.40625,0.0,0.0,0.0
1664564108810,-0.9033203,0.025390625,0.42089844,-33.78125,0.84375,-3.8125,0.0,0.0,0.0
1664564108851,-1.0292969,-0.0029296875,0.5341797,-13.3125,0.09375,-2.34375,0.0,0.0,0.0
1664564108890,-1.0146484,-0.026367188,0.5390625,-34.625,-9.0625,2.71875,0.0,0.0,0.0
1664564108930,-1.5576172,0.13085938,0.31835938,-1.1875,-0.625,18.53125,0.0,0.0,0.0
1664564108971,-1.4394531,0.08984375,0.33398438,-29.1875,-48.96875,16.34375,0.0,0.0,0.0
1664564109012,-0.5488281,0.02734375,0.083984375,-81.375,-32.3125,-37.5625,0.0,0.0,0.0
1664564109050,-1.5341797,0.0029296875,0.03515625,-37.6875,18.40625,9.4375,-64.0625,18.1875,-155.875
1664564109090,-1.1494141,-0.07714844,0.48242188,38.5,7.0,2.0625,0.0,0.0,0.0
1664564109130,-1.1845703,-0.10058594,0.32714844,-18.875,36.1875,-2.9375,0.0,0.0,0.0
1664564109170,-1.1318359,-0.03515625,0.11230469,9.09375,50.78125,-2.28125,0.0,0.0,0.0
1664564109210,-0.8623047,0.10644531,0.09863281,28.84375,51.0625,-2.8125,0.0,0.0,0.0
1664564109250,-0.81347656,0.005859375,0.16308594,3.65625,45.28125,7.96875,0.0,0.0,0.0
1664564109290,-0.8173828,-0.078125,0.11425781,-13.6875,31.1875,4.4375,0.0,0.0,0.0
1664564109330,-0.81152344,-0.055664062,0.19628906,-11.125,13.71875,3.71875,0.0,0.0,0.0
1664564109372,-0.73339844,-0.10839844,0.18847656,-10.15625,-3.8125,7.1875,0.0,0.0,0.0
1664564109430,-0.7441406,-0.10058594,0.052734375,-10.8125,-6.25,8.53125,0.0,0.0,0.0
1664564109450,-0.67871094,-0.038085938,0.18066406,26.21875,-7.59375,7.5,0.0,0.0,0.0
1664564109490,-0.8730469,0.045898438,0.15234375,12.75,-9.15625,10.71875,0.0,0.0,0.0
1664564109530,-0.92578125,-0.049804688,0.4765625,16.65625,-7.09375,10.0,0.0,0.0,0.0
1664564109571,-1.0546875,-0.14941406,0.37109375,-28.59375,-1.84375,0.46875,-66.0,17.75,-156.0625
1664564109610,-1.3154297,-0.23144531,0.328125,-19.0,-17.03125,-10.875,0.0,0.0,0.0
1664564109650,-1.2666016,0.11425781,0.049804688,29.46875,-40.25,-19.3125,0.0,0.0,0.0
1664564109690,-1.0947266,0.25097656,0.20019531,82.875,-92.1875,7.6875,0.0,0.0,0.0
1664564109730,-1.2744141,0.08203125,0.4140625,-61.34375,-112.25,6.8125,0.0,0.0,0.0
1664564109770,-1.2392578,0.24316406,0.4189453,-0.9375,-71.84375,2.125,0.0,0.0,0.0
1664564109810,-1.140625,0.09472656,0.5751953,-26.625,-54.03125,10.25,0.0,0.0,0.0
1664564109850,-1.0322266,0.0546875,0.4921875,-38.46875,-22.53125,-12.09375,0.0,0.0,0.0
1664564109890,-0.7685547,-0.009765625,0.37890625,-9.34375,1.375,-6.71875,0.0,0.0,0.0
1664564109930,-0.6767578,0.0087890625,0.22265625,-17.15625,22.375,3.46875,0.0,0.0,0.0
1664564109973,-0.6152344,0.015625,0.22265625,6.46875,24.15625,10.375,0.0,0.0,0.0
1664564110010,-0.5751953,0.099609375,0.12011719,11.875,14.03125,18.0625,0.0,0.0,0.0
1664564110050,-0.5957031,0.11230469,0.27148438,40.8125,50.09375,16.46875,-68.6875,22.0625,-164.3125
1664564110090,-0.7841797,0.029296875,0.39257812,13.28125,59.625,5.78125,0.0,0.0,0.0
1664564110131,-0.8046875,-0.033203125,0.41308594,-13.5,49.1875,0.09375,0.0,0.0,0.0
1664564110190,-0.83203125,-0.06542969,0.3623047,-29.5,25.5,-6.1875,0.0,0.0,0.0
1664564110211,-0.9707031,-0.0146484375,0.4765625,-2.28125,12.125,-7.875,0.0,0.0,0.0
1664564110250,-0.93066406,-0.056640625,0.52734375,-13.5,-16.0,-6.84375,0.0,0.0,0.0
1664564110290,-0.9638672,-0.049804688,0.4111328,-11.125,-19.3125,-15.8125,0.0,0.0,0.0
1664564110329,-1.4394531,0.17773438,0.37695312,1.28125,-10.5625,5.0625,0.0,0.0,0.0
1664564110370,-1.4707031,0.044921875,0.7001953,20.75,-93.53125,13.15625,0.0,0.0,0.0
1664564110410,-0.39648438,0.12890625,0.265625,-87.53125,-33.84375,-41.53125,0.0,0.0,0.0
1664564110450,-1.5664062,-0.030273438,0.06738281,-30.84375,37.875,6.625,0.0,0.0,0.0
1664564110490,-1.3154297,-0.037109375,0.5390625,36.375,-1.3125,-7.9375,0.0,0.0,0.0
1664564110530,-1.2158203,-0.10058594,0.28125,-0.4375,35.75,-4.78125,0.0,0.0,0.0
1664564110570,-1.1542969,-0.107421875,0.26464844,11.40625,39.59375,2.1875,-64.9375,14.4375,-160.25
1664564110610,-0.88183594,-0.0234375,0.20703125,30.1875,60.46875,-11.4375,0.0,0.0,0.0
1664564110650,-0.7363281,-0.06347656,0.12011719,12.1875,49.96875,-2.46875,0.0,0.0,0.0
1664564110690,-0.69921875,-0.048828125,0.20019531,25.5625,34.21875,12.25,0.0,0.0,0.0
1664564110730,-0.7753906,-0.068359375,0.2578125,16.65625,13.15625,9.1875,0.0,0.0,0.0
1664564110770,-0.7705078,-0.13183594,0.21875,-0.5625,0.78125,5.65625,0.0,0.0,0.0
1664564110830,-0.7216797,-0.06640625,0.17773438,22.5,-3.3125,10.53125,0.0,0.0,0.0
1664564110850,-0.85058594,-0.09765625,0.21679688,19.6875,-8.6875,10.0,0.0,0.0,0.0
1664564110890,-0.81347656,-0.08105469,0.26660156,5.65625,-6.0625,5.40625,0.0,0.0,0.0
1664564110950,-0.94140625,-0.17871094,0.23046875,-4.03125,1.75,-1.34375,0.0,0.0,0.0
1664564110970,-0.8847656,-0.09765625,0.23925781,11.65625,1.15625,-5.6875,0.0,0.0,0.0
1664564111012,-1.2011719,-0.16113281,0.46289062,7.0,-4.21875,-11.5625,0.0,0.0,0.0
1664564111050,-1.1894531,-0.06640625,0.13476562,-3.625,-12.03125,-30.21875,-64.625,15.1875,-153.625
1664564111090,-1.171875,0.16113281,0.13769531,69.75,-42.625,-23.875,0.0,0.0,0.0
1664564111130,-1.0693359,0.12792969,0.41796875,22.1875,-71.625,-14.53125,0.0,0.0,0.0
1664564111170,-1.3642578,0.25878906,0.17871094,-43.09375,-65.3125,-1.3125,0.0,0.0,0.0
1664564111210,-1.0927734,0.12402344,0.44140625,38.5625,-62.15625,1.6875,0.0,0.0,0.0
1664564111250,-1.3574219,0.21972656,0.5234375,-13.5,-29.0625,5.0,0.0,0.0,0.0
1664564111291,-0.8730469,0.09765625,0.42285156,2.5,-10.75,2.90625,0.0,0.0,0.0
1664564111330,-0.6982422,-0.061523438,0.24316406,-19.90625,6.46875,14.21875,0.0,0.0,0.0
1664564111369,-0.5703125,0.0078125,0.13867188,-0.1875,15.1875,12.6875,0.0,0.0,0.0
1664564111411,-0.6171875,0.005859375,0.2734375,32.09375,18.46875,17.0625,0.0,0.0,0.0
1664564111450,-0.5283203,0.06542969,0.27441406,19.625,34.15625,-0.1875,0.0,0.0,0.0
1664564111490,-0.6591797,0.12792969,0.171875,6.625,69.9375,-9.46875,0.0,0.0,0.0
1664564111530,-0.8876953,0.0068359375,0.3310547,7.84375,67.625,-6.53125,0.0,0.0,0.0
1664564111570,-0.86328125,-0.049804688,0.31640625,-26.25,40.03125,-6.3125,-66.75,15.9375,-154.375
1664564111610,-1.0048828,0.07128906,0.47558594,-20.84375,6.875,-2.28125,0.0,0.0,0.0
1664564111651,-0.92089844,-0.08496094,0.46289062,-38.53125,-12.59375,1.8125,0.0,0.0,0.0
1664564111710,-0.9482422,-0.14746094,0.43554688,-32.59375,-23.75,-4.15625,0.0,0.0,0.0
1664564111730,-0.890625,-0.080078125,0.4921875,-21.625,-12.90625,-13.5,0.0,0.0,0.0
1664564111770,-1.4873047,0.30273438,-0.00390625,20.125,-7.34375,13.84375,0.0,0.0,0.0
1664564111812,-1.1279297,-0.5136719,0.1875,-51.53125,-52.8125,-5.21875,0.0,0.0,0.0
1664564111852,-1.2714844,-0.31152344,0.57421875,15.78125,-12.53125,-9.71875,0.0,0.0,0.0
1664564111892,-1.2421875,-0.08496094,0.052734375,-3.8125,45.34375,9.03125,0.0,0.0,0.0
1664564111930,-1.0634766,0.0078125,0.0,-9.84375,31.59375,-2.15625,0.0,0.0,0.0
1664564111970,-0.94628906,0.0625,0.15722656,13.0,45.34375,0.71875,0.0,0.0,0.0
1664564112010,-0.75390625,0.17089844,0.21972656,22.1875,56.375,-0.4375,0.0,0.0,0.0
1664564112050,-0.9140625,-0.041015625,0.16308594,-27.1875,31.28125,7.375,-68.375,14.3125,-151.125
1664564112092,-0.7626953,-0.18359375,0.15722656,-14.0625,8.46875,3.28125,0.0,0.0,0.0
1664564112132,-0.8222656,-0.107421875,0.2685547,6.6875,0.78125,5.28125,0.0,0.0,0.0
1664564112170,-0.9013672,-0.08203125,0.052734375,-2.34375,-4.03125,10.84375,0.0,0.0,0.0
1664564112210,-0.70410156,0.016601562,0.17773438,25.9375,-11.84375,16.15625,0.0,0.0,0.0
1664564112250,-0.875,-0.11328125,0.13574219,-18.4375,-9.21875,9.8125,0.0,0.0,0.0
1664564112290,-0.82421875,-0.04296875,0.2685547,11.9375,-8.0,4.125,0.0,0.0,0.0
1664564112330,-0.93359375,-0.14648438,0.26171875,-9.59375,4.0,2.25,0.0,0.0,0.0
1664564112370,-0.9746094,-0.13574219,0.27148438,6.34375,2.96875,0.34375,0.0,0.0,0.0
1664564112410,-1.265625,-0.19433594,0.28320312,-6.78125,-8.25,-10.5625,0.0,0.0,0.0
1664564112470,-1.1699219,-0.08984375,0.171875,15.375,-29.96875,-18.5625,0.0,0.0,0.0
1664564112490,-1.015625,0.10449219,0.11035156,55.90625,-54.9375,-12.28125,0.0,0.0,0.0
1664564112530,-1.2919922,0.16503906,0.41015625,-1.1875,-97.5625,-0.75,0.0,0.0,0.0
1664564112570,-1.125,0.29003906,0.30078125,-7.15625,-72.09375,11.34375,-66.0,14.75,-153.625
1664564112610,-1.1992188,0.109375,0.578125,15.5625,-41.15625,9.8125,0.0,0.0,0.0
1664564112650,-1.1025391,0.13671875,0.45996094,-34.0,-13.8125,2.84375,0.0,0.0,0.0
1664564112690,-1.015625,0.016601562,0.43652344,-8.5,3.28125,3.15625,0.0,0.0,0.0
1664564112732,-0.7714844,0.06738281,0.23632812,-11.375,13.90625,7.3125,0.0,0.0,0.0
1664564112770,-0.734375,0.061523438,0.20117188,-0.4375,16.78125,12.1875,0.0,0.0,0.0
1664564112812,-0.63964844,0.08984375,0.2529297,5.90625,-3.3125,19.6875,0.0,0.0,0.0
1664564112850,-0.5371094,0.11328125,0.26171875,5.0625,11.28125,26.84375,0.0,0.0,0.0
1664564112890,-0.58203125,0.005859375,0.23632812,1.875,40.625,22.03125,0.0,0.0,0.0
1664564112929,-0.75,-0.025390625,0.27734375,-4.09375,61.5,1.9375,0.0,0.0,0.0
1664564112971,-0.8798828,0.01171875,0.4794922,-4.21875,49.65625,-9.15625,0.0,0.0,0.0
1664564113010,-0.9345703,0.04296875,0.5341797,-13.0625,19.75,-1.34375,0.0,0.0,0.0
1664564113050,-0.88671875,-0.022460938,0.50390625,-17.65625,-10.6875,-0.625,-64.1875,17.3125,-150.625
1664564113090,-1.0087891,-0.020507812,0.5986328,-26.3125,-15.59375,-8.8125,0.0,0.0,0.0
1664564113130,-1.3554688,0.17480469,0.28808594,-20.71875,-17.46875,-3.0,0.0,0.0,0.0
1664564113170,-0.9921875,0.17675781,0.12695312,24.9375,-12.46875,3.84375,0.0,0.0,0.0
1664564113230,-1.0996094,-0.11328125,0.1796875,-112.6875,2.90625,-33.15625,0.0,0.0,0.0
1664564113251,-1.0419922,-0.025390625,0.31933594,12.4375,-12.15625,4.75,0.0,0.0,0.0
1664564113290,-1.3417969,-0.08496094,0.265625,-7.53125,10.53125,2.78125,0.0,0.0,0.0
1664564113331,-1.2519531,-0.10253906,0.21679688,13.90625,38.3125,-8.5625,0.0,0.0,0.0
1664564113370,-1.09375,0.057617188,0.22460938,30.4375,39.34375,-12.09375,0.0,0.0,0.0
1664564113410,-0.97558594,0.049804688,0.095703125,23.1875,44.40625,-5.75,0.0,0.0,0.0
1664564113470,-0.9238281,0.0078125,0.1640625,12.625,36.4375,0.53125,0.0,0.0,0.0
1664564113490,-0.77246094,-0.04296875,0.15039062,6.5625,20.6875,-0.8125,0.0,0.0,0.0
1664564113532,-0.8066406,-0.0390625,0.15429688,15.3125,6.46875,3.15625,0.0,0.0,0.0
1664564113570,-0.7207031,-0.0146484375,0.16796875,20.84375,1.15625,1.75,-66.0,15.1875,-150.625
1664564113610,-0.7265625,-0.049804688,0.23242188,6.625,-1.125,2.65625,0.0,0.0,0.0
1664564113650,-0.79003906,-0.059570312,0.12011719,-1.0,-5.6875,10.46875,0.0,0.0,0.0
1664564113690,-0.7519531,-0.07324219,0.23632812,23.65625,-16.75,9.09375,0.0,0.0,0.0
1664564113730,-0.86816406,-0.0546875,0.2607422,11.28125,-13.8125,4.375,0.0,0.0,0.0
1664564113770,-0.90722656,-0.05859375,0.23535156,6.9375,-0.5625,-1.0,0.0,0.0,0.0
1664564113810,-0.92285156,-0.057617188,0.3857422,25.875,-7.03125,-2.6875,0.0,0.0,0.0
1664564113850,-1.2714844,-0.11230469,0.46875,-3.4375,-12.15625,-10.875,0.0,0.0,0.0
1664564113890,-1.2724609,0.045898438,0.107421875,17.4375,-28.09375,-22.28125,0.0,0.0,0.0
1664564113930,-1.2666016,0.20507812,0.21191406,35.15625,-77.71875,-15.09375,0.0,0.0,0.0
1664564113990,-1.515625,0.24902344,0.38671875,-44.625,-90.78125,-6.96875,0.0,0.0,0.0
1664564114010,-1.0839844,0.16113281,0.35546875,28.78125,-76.75,3.53125,0.0,0.0,0.0
1664564114051,-1.1103516,0.14257812,0.43164062,-17.46875,-45.59375,16.03125,-68.5625,15.1875,-162.375
1664564114090,-0.97558594,0.095703125,0.47070312,-14.46875,-44.3125,-10.75,0.0,0.0,0.0
1664564114130,-0.83203125,0.0146484375,0.46289062,-19.84375,13.59375,-5.9375,0.0,0.0,0.0
1664564114170,-0.7753906,-0.11621094,0.41015625,-14.96875,23.0,-3.5,0.0,0.0,0.0
1664564114210,-0.6738281,0.016601562,0.23242188,5.78125,32.40625,9.9375,0.0,0.0,0.0
1664564114250,-0.6376953,0.09375,0.25390625,34.90625,10.0625,20.125,0.0,0.0,0.0
1664564114290,-0.5498047,0.140625,0.22753906,28.84375,28.0625,26.21875,0.0,0.0,0.0
1664564114330,-0.7949219,0.06738281,0.25097656,0.0,65.59375,13.03125,0.0,0.0,0.0
1664564114370,-0.7597656,0.040039062,0.3828125,4.5,48.5,7.25,0.0,0.0,0.0
1664564114413,-0.6826172,-0.0234375,0.3466797,-27.65625,24.21875,3.34375,0.0,0.0,0.0
1664564114450,-0.9199219,-0.022460938,0.35839844,-23.34375,18.96875,-0.875,0.0,0.0,0.0
1664564114490,-1.0019531,0.025390625,0.4638672,-10.5,15.90625,-6.53125,0.0,0.0,0.0
1664564114530,-0.9765625,0.030273438,0.53808594,-17.46875,3.71875,-4.59375,0.0,0.0,0.0
1664564114570,-1.0146484,-0.00390625,0.42773438,-19.0,5.65625,-0.25,-66.4375,16.5625,-154.6875
1664564114610,-1.5908203,0.12695312,0.3955078,-6.71875,-13.5,13.59375,0.0,0.0,0.0
1664564114651,-1.3320312,0.08496094,0.55566406,1.625,-50.0,11.71875,0.0,0.0,0.0
1664564114690,-0.7714844,-0.057617188,0.4033203,-55.0625,-47.5,-8.3125,0.0,0.0,0.0
1664564114751,-1.3349609,-0.08691406,-0.095703125,-24.625,30.3125,-4.21875,0.0,0.0,0.0
1664564114770,-1.0273438,0.030273438,0.4765625,68.46875,13.90625,-17.65625,0.0,0.0,0.0
1664564114810,-1.0742188,0.044921875,0.18554688,-38.65625,26.53125,-13.375,0.0,0.0,0.0
1664564114850,-1.1103516,-0.0234375,0.18945312,-1.84375,40.34375,-4.15625,0.0,0.0,0.0
1664564114890,-0.8535156,0.009765625,0.10546875,21.90625,40.34375,-10.40625,0.0,0.0,0.0
1664564114931,-0.86816406,0.024414062,0.1875,20.75,32.625,0.28125,0.0,0.0,0.0
1664564114970,-0.8964844,-0.09863281,0.15722656,3.34375,21.53125,-2.34375,0.0,0.0,0.0
1664564115011,-0.85546875,-0.015625,0.22851562,12.125,10.46875,-1.65625,0.0,0.0,0.0
1664564115050,-0.82910156,-0.08886719,0.20507812,-0.5,-3.0625,-1.46875,-67.8125,16.5625,-149.875
1664564115090,-0.8105469,-0.055664062,0.1796875,-4.53125,-4.71875,1.9375,0.0,0.0,0.0
1664564115130,-0.7949219,-0.032226562,0.12597656,6.21875,-4.65625,3.90625,0.0,0.0,0.0
1664564115170,-0.8251953,0.00390625,0.15429688,22.1875,-7.65625,2.25,0.0,0.0,0.0
1664564115210,-0.85839844,-0.015625,0.26464844,4.6875,-9.53125,3.40625,0.0,0.0,0.0
1664564115251,-0.95214844,-0.12402344,0.16894531,-11.125,-3.3125,3.34375,0.0,0.0,0.0
1664564115290,-0.9404297,-0.111328125,0.32421875,8.21875,-6.5,1.09375,0.0,0.0,0.0
1664564115333,-0.9716797,-0.20898438,0.38183594,-3.96875,-2.34375,-2.75,0.0,0.0,0.0
1664564115370,-1.3183594,-0.22753906,0.3388672,1.875,0.84375,-12.34375,0.0,0.0,0.0
1664564115410,-1.2451172,0.026367188,0.15234375,26.21875,-22.46875,-26.5,0.0,0.0,0.0
1664564115450,-1.1376953,0.15039062,0.15820312,66.6875,-45.65625,-19.78125,0.0,0.0,0.0
1664564115510,-1.25,0.21386719,0.39160156,37.53125,-88.09375,-7.9375,0.0,0.0,0.0
1664564115530,-1.1601562,0.20605469,0.35253906,-5.25,-78.09375,8.65625,0.0,0.0,0.0
1664564115570,-1.0546875,0.16894531,0.3779297,2.96875,-47.1875,14.875,-65.875,16.375,-150.375
1664564115611,-0.99121094,0.09667969,0.4326172,-11.3125,-38.03125,8.09375,0.0,0.0,0.0
1664564115650,-0.77441406,0.083984375,0.39648438,-4.96875,-2.6875,7.375,0.0,0.0,0.0
1664564115690,-0.78808594,0.08105469,0.30371094,-2.46875,3.15625,18.46875,0.0,0.0,0.0
1664564115730,-0.73828125,-0.01953125,0.30566406,-9.0625,7.125,14.875,0.0,0.0,0.0
1664564115770,-0.765625,0.057617188,0.29785156,-7.78125,8.90625,12.6875,0.0,0.0,0.0
1664564115809,-0.68847656,0.09667969,0.3515625,-5.15625,18.96875,15.0625,0.0,0.0,0.0
1664564115850,-0.71875,0.043945312,0.3671875,-23.625,32.5625,9.9375,0.0,0.0,0.0
1664564115891,-0.78125,-0.001953125,0.33203125,-25.59375,46.25,-2.46875,0.0,0.0,0.0
1664564115930,-0.68652344,-0.07421875,0.2919922,-27.65625,36.90625,-4.53125,0.0,0.0,0.0
1664564115970,-0.86621094,0.0029296875,0.36816406,-16.125,17.3125,-7.71875,0.0,0.0,0.0
1664564116010,-0.79589844,0.0107421875,0.41796875,-3.375,-1.59375,-4.40625,0.0,0.0,0.0
1664564116052,-0.9355469,9.765625E-4,0.48828125,-19.4375,1.5625,-7.28125,-68.25,21.625,-155.4375
1664564116091,-1.0693359,0.01953125,0.6171875,-8.5625,2.375,-2.8125,0.0,0.0,0.0
1664564116130,-0.9824219,0.08105469,0.5263672,-3.90625,-0.125,4.4375,0.0,0.0,0.0
1664564116170,-1.4365234,0.25683594,0.46289062,40.03125,7.5,23.375,0.0,0.0,0.0
1664564116211,-0.7470703,-0.35058594,0.33984375,-79.78125,-43.84375,-15.09375,0.0,0.0,0.0
1664564116270,-1.3154297,-0.2705078,0.18164062,-36.5625,-9.78125,4.6875,0.0,0.0,0.0
1664564116290,-1.1816406,0.1015625,0.17480469,33.96875,30.8125,-6.78125,0.0,0.0,0.0
1664564116330,-1.0380859,-0.036132812,0.35058594,0.28125,12.1875,-21.0,0.0,0.0,0.0
1664564116370,-1.0654297,0.07324219,0.2109375,19.34375,41.90625,-7.8125,0.0,0.0,0.0
1664564116410,-0.9199219,0.0146484375,0.14550781,23.84375,49.59375,-12.71875,0.0,0.0,0.0
1664564116450,-0.8886719,-0.078125,0.15429688,1.875,41.96875,-11.625,0.0,0.0,0.0
1664564116490,-0.8798828,-0.09082031,0.15039062,12.6875,29.28125,-6.3125,0.0,0.0,0.0
1664564116530,-0.8642578,-0.056640625,0.16601562,21.34375,14.4375,3.59375,0.0,0.0,0.0
1664564116570,-0.84277344,-0.08203125,0.30273438,18.34375,2.90625,-0.875,-68.125,16.375,-147.625
1664564116610,-0.84472656,-0.05078125,0.23925781,6.6875,-2.03125,0.71875,0.0,0.0,0.0
1664564116650,-0.8544922,-0.09472656,0.11328125,-8.0625,-3.90625,8.84375,0.0,0.0,0.0
1664564116690,-0.7441406,0.040039062,0.10449219,23.3125,-3.90625,4.4375,0.0,0.0,0.0
1664564116730,-0.88378906,-0.09667969,0.27148438,6.15625,-11.78125,9.9375,0.0,0.0,0.0
1664564116770,-0.82910156,-0.055664062,0.16503906,1.03125,-2.15625,7.75,0.0,0.0,0.0
1664564116810,-0.9589844,-0.12890625,0.38378906,2.5625,-2.8125,7.3125,0.0,0.0,0.0
1664564116850,-1.0332031,-0.1328125,0.38964844,-9.59375,-3.4375,-1.0625,0.0,0.0,0.0
1664564116890,-1.1650391,-0.26660156,0.4716797,-19.84375,-16.4375,-8.875,0.0,0.0,0.0
1664564116930,-1.1611328,-0.00390625,0.13867188,9.625,-27.65625,-20.84375,0.0,0.0,0.0
1664564116971,-1.1259766,0.053710938,0.10449219,44.25,-44.875,-13.625,0.0,0.0,0.0
1664564117031,-1.3632812,0.22265625,0.22949219,39.40625,-70.28125,-5.03125,0.0,0.0,0.0
1664564117049,-1.1103516,0.32128906,0.4736328,10.0625,-89.0625,2.0,-68.125,18.1875,-150.8125
1664564117090,-1.0253906,0.09375,0.47753906,-31.625,-42.0625,12.125,0.0,0.0,0.0
1664564117130,-1.0517578,0.05859375,0.41992188,-27.1875,-17.78125,11.34375,0.0,0.0,0.0
1664564117170,-0.8544922,0.048828125,0.36132812,-7.65625,-4.53125,9.75,0.0,0.0,0.0
1664564117210,-0.7792969,0.024414062,0.30859375,1.09375,5.0,11.65625,0.0,0.0,0.0
1664564117250,-0.77441406,0.051757812,0.27246094,6.5625,5.40625,12.375,0.0,0.0,0.0
1664564117290,-0.73046875,0.060546875,0.2998047,5.28125,4.5625,11.40625,0.0,0.0,0.0
1664564117330,-0.69140625,0.032226562,0.35253906,2.65625,20.375,11.15625,0.0,0.0,0.0
1664564117370,-0.6845703,-0.0087890625,0.34375,-19.4375,43.5625,0.90625,0.0,0.0,0.0
1664564117411,-0.7783203,-0.020507812,0.31445312,-9.0625,54.0,-2.875,0.0,0.0,0.0
1664564117450,-0.7451172,-0.08203125,0.37597656,3.40625,44.53125,-6.25,0.0,0.0,0.0
1664564117489,-0.89746094,0.001953125,0.42578125,-7.53125,26.53125,-10.09375,0.0,0.0,0.0
1664564117531,-0.81933594,-0.028320312,0.3251953,-6.4375,-10.5625,-0.8125,0.0,0.0,0.0
1664564117570,-0.94921875,-0.02734375,0.4091797,-6.0625,-1.40625,-10.40625,-68.125,16.8125,-147.625
1664564117610,-0.99316406,0.018554688,0.484375,-19.59375,-4.21875,-10.28125,0.0,0.0,0.0
1664564117651,-0.9560547,-0.030273438,0.4033203,1.28125,-12.46875,-0.3125,0.0,0.0,0.0
1664564117690,-1.25,0.072265625,0.5761719,18.125,8.59375,2.25,0.0,0.0,0.0
1664564117731,-1.0332031,0.078125,0.59277344,2.125,-37.0625,10.90625,0.0,0.0,0.0
1664564117790,-0.7753906,-0.32617188,0.28027344,-109.34375,-18.15625,-10.6875,0.0,0.0,0.0
1664564117810,-1.3095703,-0.17285156,0.21289062,33.375,15.71875,0.53125,0.0,0.0,0.0
1664564117850,-1.0566406,0.095703125,0.22949219,45.34375,4.625,-10.34375,0.0,0.0,0.0
1664564117890,-1.1220703,0.047851562,0.24609375,6.46875,18.34375,-7.28125,0.0,0.0,0.0
1664564117930,-1.2041016,0.05859375,0.21289062,-1.90625,31.46875,-0.375,0.0,0.0,0.0
1664564117970,-1.0380859,0.024414062,0.21289062,3.40625,42.65625,-3.4375,0.0,0.0,0.0
1664564118011,-0.9970703,-0.068359375,0.1328125,-16.6875,39.71875,-1.125,0.0,0.0,0.0
1664564118051,-0.90722656,-0.05859375,0.10449219,10.84375,49.78125,-3.375,-67.1875,14.125,-145.6875
1664564118090,-0.88964844,-0.080078125,0.22753906,15.78125,35.75,2.1875,0.0,0.0,0.0
1664564118131,-0.8457031,-0.11035156,0.1640625,12.25,21.65625,-1.84375,0.0,0.0,0.0
1664564118170,-0.7578125,-0.048828125,0.17675781,20.4375,6.875,1.6875,0.0,0.0,0.0
1664564118211,-0.8173828,-0.051757812,0.20019531,19.34375,0.78125,5.0,0.0,0.0,0.0
1664564118250,-0.7861328,-0.036132812,0.1015625,3.03125,-9.0,7.375,0.0,0.0,0.0
1664564118290,-0.76171875,0.0234375,0.27929688,29.15625,-6.59375,12.75,0.0,0.0,0.0
1664564118331,-1.0,-0.055664062,0.13085938,-28.34375,-8.9375,13.90625,0.0,0.0,0.0
1664564118370,-0.81933594,-0.053710938,0.203125,2.5,-3.4375,12.0625,0.0,0.0,0.0
1664564118410,-1.0898438,-0.12597656,0.32910156,-4.71875,1.28125,9.75,0.0,0.0,0.0
1664564118449,-1.1025391,-0.1640625,0.4189453,3.53125,5.46875,5.34375,0.0,0.0,0.0
