# Sensor type: Thingy
# Activity type: Sitting bent backward
# Activity code: 5
# Subject id: s1800825
# Notes: 
timestamp,accel_x,accel_y,accel_z,gyro_x,gyro_y,gyro_z,mag_x,mag_y,mag_z
1664377741184,-0.25097656,-0.15527344,0.9267578,0.25,-0.0625,-0.03125,0.0,0.0,0.0
1664377741184,-0.25097656,-0.15527344,0.9267578,0.25,-0.0625,-0.03125,0.0,0.0,0.0
1664377741245,-0.24414062,-0.16113281,0.92285156,-0.46875,0.125,0.15625,0.0,0.0,0.0
1664377741245,-0.24414062,-0.16113281,0.92285156,-0.46875,0.125,0.15625,0.0,0.0,0.0
1664377741265,-0.25195312,-0.171875,0.9169922,-0.28125,-0.0625,0.03125,0.0,0.0,0.0
1664377741265,-0.25195312,-0.171875,0.9169922,-0.28125,-0.0625,0.03125,0.0,0.0,0.0
1664377741305,-0.24316406,-0.16601562,0.92285156,-0.03125,-0.0625,-0.03125,0.0,0.0,0.0
1664377741305,-0.24316406,-0.16601562,0.92285156,-0.03125,-0.0625,-0.03125,0.0,0.0,0.0
1664377741345,-0.24023438,-0.171875,0.93652344,-0.09375,-0.1875,-0.03125,0.0,0.0,0.0
1664377741345,-0.24023438,-0.171875,0.93652344,-0.09375,-0.1875,-0.03125,0.0,0.0,0.0
1664377741385,-0.24609375,-0.15820312,0.92578125,-0.03125,0.0,0.03125,0.0,0.0,0.0
1664377741385,-0.24609375,-0.15820312,0.92578125,-0.03125,0.0,0.03125,0.0,0.0,0.0
1664377741425,-0.24804688,-0.16503906,0.91503906,-0.03125,-0.0625,-0.03125,0.0,0.0,0.0
1664377741425,-0.24804688,-0.16503906,0.91503906,-0.03125,-0.0625,-0.03125,0.0,0.0,0.0
1664377741465,-0.24511719,-0.16113281,0.9199219,0.25,-0.1875,-0.03125,0.0,0.0,0.0
1664377741465,-0.24511719,-0.16113281,0.9199219,0.25,-0.1875,-0.03125,0.0,0.0,0.0
1664377741505,-0.25097656,-0.16503906,0.9199219,0.0625,0.0625,-0.09375,0.0,0.0,0.0
1664377741505,-0.25097656,-0.16503906,0.9199219,0.0625,0.0625,-0.09375,0.0,0.0,0.0
1664377741545,-0.24121094,-0.1640625,0.91308594,0.03125,0.0625,-0.1875,0.0,0.0,0.0
1664377741545,-0.24121094,-0.1640625,0.91308594,0.03125,0.0625,-0.1875,0.0,0.0,0.0
1664377741585,-0.24023438,-0.15429688,0.92578125,-0.09375,-0.0625,-0.15625,0.0,0.0,0.0
1664377741585,-0.24023438,-0.15429688,0.92578125,-0.09375,-0.0625,-0.15625,0.0,0.0,0.0
1664377741625,-0.2421875,-0.16601562,0.92285156,-0.03125,-0.0625,-0.15625,0.0,0.0,0.0
1664377741625,-0.2421875,-0.16601562,0.92285156,-0.03125,-0.0625,-0.15625,0.0,0.0,0.0
1664377741664,-0.24316406,-0.16015625,0.91015625,0.0625,0.0625,-0.1875,-39.625,-6.125,-93.375
1664377741664,-0.24316406,-0.16015625,0.91015625,0.0625,0.0625,-0.1875,-39.625,-6.125,-93.375
1664377741706,-0.24609375,-0.16210938,0.9316406,-0.15625,0.0,-0.15625,0.0,0.0,0.0
1664377741708,-0.24609375,-0.16210938,0.9316406,-0.15625,0.0,-0.15625,0.0,0.0,0.0
1664377741745,-0.2421875,-0.15527344,0.9326172,0.03125,0.0,-0.03125,0.0,0.0,0.0
1664377741745,-0.2421875,-0.15527344,0.9326172,0.03125,0.0,-0.03125,0.0,0.0,0.0
1664377741784,-0.24902344,-0.16015625,0.92285156,0.03125,-0.125,-0.09375,0.0,0.0,0.0
1664377741784,-0.24902344,-0.16015625,0.92285156,0.03125,-0.125,-0.09375,0.0,0.0,0.0
1664377741825,-0.25585938,-0.16699219,0.9248047,-0.15625,-0.1875,-0.15625,0.0,0.0,0.0
1664377741825,-0.25585938,-0.16699219,0.9248047,-0.15625,-0.1875,-0.15625,0.0,0.0,0.0
1664377741864,-0.24023438,-0.16503906,0.92089844,-0.03125,-0.0625,-0.09375,0.0,0.0,0.0
1664377741864,-0.24023438,-0.16503906,0.92089844,-0.03125,-0.0625,-0.09375,0.0,0.0,0.0
1664377741905,-0.24414062,-0.16699219,0.9453125,-0.15625,0.28125,-0.03125,0.0,0.0,0.0
1664377741905,-0.24414062,-0.16699219,0.9453125,-0.15625,0.28125,-0.03125,0.0,0.0,0.0
1664377741945,-0.24511719,-0.16503906,0.9345703,-0.15625,0.125,-0.15625,0.0,0.0,0.0
1664377741945,-0.24511719,-0.16503906,0.9345703,-0.15625,0.125,-0.15625,0.0,0.0,0.0
1664377742005,-0.24804688,-0.16503906,0.9267578,-0.15625,0.0,-0.15625,0.0,0.0,0.0
1664377742005,-0.24804688,-0.16503906,0.9267578,-0.15625,0.0,-0.15625,0.0,0.0,0.0
1664377742025,-0.24414062,-0.15917969,0.921875,0.125,0.125,-0.25,0.0,0.0,0.0
1664377742024,-0.24414062,-0.15917969,0.921875,0.125,0.125,-0.25,0.0,0.0,0.0
1664377742065,-0.2421875,-0.16894531,0.921875,-0.21875,0.0,-0.1875,0.0,0.0,0.0
1664377742065,-0.2421875,-0.16894531,0.921875,-0.21875,0.0,-0.1875,0.0,0.0,0.0
1664377742106,-0.24316406,-0.15820312,0.92089844,0.03125,0.125,-0.03125,0.0,0.0,0.0
1664377742106,-0.24316406,-0.15820312,0.92089844,0.03125,0.125,-0.03125,0.0,0.0,0.0
1664377742146,-0.23730469,-0.16601562,0.93066406,0.125,-0.1875,0.03125,-39.625,-5.8125,-93.0625
1664377742146,-0.23730469,-0.16601562,0.93066406,0.125,-0.1875,0.03125,-39.625,-5.8125,-93.0625
1664377742186,-0.25097656,-0.16601562,0.9199219,0.03125,0.0,-0.09375,0.0,0.0,0.0
1664377742186,-0.25097656,-0.16601562,0.9199219,0.03125,0.0,-0.09375,0.0,0.0,0.0
1664377742225,-0.2421875,-0.16503906,0.9199219,-0.09375,-0.0625,0.09375,0.0,0.0,0.0
1664377742226,-0.2421875,-0.16503906,0.9199219,-0.09375,-0.0625,0.09375,0.0,0.0,0.0
1664377742266,-0.24707031,-0.16210938,0.9296875,0.03125,-0.0625,0.09375,0.0,0.0,0.0
1664377742266,-0.24707031,-0.16210938,0.9296875,0.03125,-0.0625,0.09375,0.0,0.0,0.0
1664377742306,-0.24316406,-0.17382812,0.9199219,-0.03125,-0.25,0.15625,0.0,0.0,0.0
1664377742306,-0.24316406,-0.17382812,0.9199219,-0.03125,-0.25,0.15625,0.0,0.0,0.0
1664377742345,-0.24316406,-0.17089844,0.921875,0.03125,0.125,0.15625,0.0,0.0,0.0
1664377742345,-0.24316406,-0.17089844,0.921875,0.03125,0.125,0.15625,0.0,0.0,0.0
1664377742387,-0.2421875,-0.16503906,0.92089844,-0.03125,0.0,0.15625,0.0,0.0,0.0
1664377742387,-0.2421875,-0.16503906,0.92089844,-0.03125,0.0,0.15625,0.0,0.0,0.0
1664377742425,-0.25,-0.16796875,0.9121094,0.03125,0.21875,0.21875,0.0,0.0,0.0
1664377742426,-0.25,-0.16796875,0.9121094,0.03125,0.21875,0.21875,0.0,0.0,0.0
1664377742466,-0.2421875,-0.15234375,0.9267578,0.03125,0.0,0.15625,0.0,0.0,0.0
1664377742466,-0.2421875,-0.15234375,0.9267578,0.03125,0.0,0.15625,0.0,0.0,0.0
1664377742507,-0.2548828,-0.16503906,0.9140625,0.0625,0.0625,0.40625,0.0,0.0,0.0
1664377742507,-0.2548828,-0.16503906,0.9140625,0.0625,0.0625,0.40625,0.0,0.0,0.0
1664377742546,-0.24414062,-0.171875,0.92285156,0.125,0.0,0.46875,0.0,0.0,0.0
1664377742546,-0.24414062,-0.171875,0.92285156,0.125,0.0,0.46875,0.0,0.0,0.0
1664377742587,-0.22753906,-0.171875,0.92871094,-0.03125,0.0625,0.28125,0.0,0.0,0.0
1664377742587,-0.22753906,-0.171875,0.92871094,-0.03125,0.0625,0.28125,0.0,0.0,0.0
1664377742626,-0.25,-0.15820312,0.9404297,-0.34375,0.53125,0.53125,0.0,0.0,0.0
1664377742627,-0.25,-0.15820312,0.9404297,-0.34375,0.53125,0.53125,0.0,0.0,0.0
1664377742667,-0.23632812,-0.16308594,0.92285156,0.0625,-0.25,0.28125,-40.625,-5.5,-95.4375
1664377742667,-0.23632812,-0.16308594,0.92285156,0.0625,-0.25,0.28125,-40.625,-5.5,-95.4375
1664377742706,-0.24707031,-0.16699219,0.921875,0.125,0.21875,0.46875,0.0,0.0,0.0
1664377742706,-0.24707031,-0.16699219,0.921875,0.125,0.21875,0.46875,0.0,0.0,0.0
1664377742766,-0.24511719,-0.16699219,0.92089844,0.1875,-0.1875,0.28125,0.0,0.0,0.0
1664377742767,-0.24511719,-0.16699219,0.92089844,0.1875,-0.1875,0.28125,0.0,0.0,0.0
1664377742785,-0.25585938,-0.16503906,0.9296875,-0.03125,0.21875,0.34375,0.0,0.0,0.0
1664377742785,-0.25585938,-0.16503906,0.9296875,-0.03125,0.21875,0.34375,0.0,0.0,0.0
1664377742827,-0.23925781,-0.16699219,0.92285156,0.625,-0.1875,0.34375,0.0,0.0,0.0
1664377742827,-0.23925781,-0.16699219,0.92285156,0.625,-0.1875,0.34375,0.0,0.0,0.0
1664377742866,-0.24414062,-0.16308594,0.91308594,0.125,0.0,0.40625,0.0,0.0,0.0
1664377742866,-0.24414062,-0.16308594,0.91308594,0.125,0.0,0.40625,0.0,0.0,0.0
1664377742909,-0.23925781,-0.16601562,0.9248047,0.25,0.125,0.28125,0.0,0.0,0.0
1664377742909,-0.23925781,-0.16601562,0.9248047,0.25,0.125,0.28125,0.0,0.0,0.0
1664377742946,-0.24804688,-0.15917969,0.91308594,0.03125,0.0625,0.28125,0.0,0.0,0.0
1664377742946,-0.24804688,-0.15917969,0.91308594,0.03125,0.0625,0.28125,0.0,0.0,0.0
1664377742986,-0.24902344,-0.16503906,0.9160156,0.0625,0.125,0.21875,0.0,0.0,0.0
1664377742985,-0.24902344,-0.16503906,0.9160156,0.0625,0.125,0.21875,0.0,0.0,0.0
1664377743026,-0.24023438,-0.16503906,0.9238281,0.0625,0.0625,0.28125,0.0,0.0,0.0
1664377743026,-0.24023438,-0.16503906,0.9238281,0.0625,0.0625,0.28125,0.0,0.0,0.0
1664377743066,-0.24707031,-0.16210938,0.9238281,0.25,0.0,0.28125,0.0,0.0,0.0
1664377743066,-0.24707031,-0.16210938,0.9238281,0.25,0.0,0.28125,0.0,0.0,0.0
1664377743107,-0.23925781,-0.16503906,0.91015625,0.1875,0.0,0.28125,0.0,0.0,0.0
1664377743107,-0.23925781,-0.16503906,0.91015625,0.1875,0.0,0.28125,0.0,0.0,0.0
1664377743145,-0.24902344,-0.16015625,0.9140625,0.0625,-0.1875,0.34375,-39.3125,-4.1875,-93.9375
1664377743145,-0.24902344,-0.16015625,0.9140625,0.0625,-0.1875,0.34375,-39.3125,-4.1875,-93.9375
1664377743186,-0.23828125,-0.15917969,0.92285156,0.1875,-0.25,0.53125,0.0,0.0,0.0
1664377743186,-0.23828125,-0.15917969,0.92285156,0.1875,-0.25,0.53125,0.0,0.0,0.0
1664377743226,-0.23632812,-0.16210938,0.91503906,0.25,-0.5,0.46875,0.0,0.0,0.0
1664377743226,-0.23632812,-0.16210938,0.91503906,0.25,-0.5,0.46875,0.0,0.0,0.0
1664377743265,-0.25,-0.16699219,0.92578125,0.3125,0.34375,0.34375,0.0,0.0,0.0
1664377743266,-0.25,-0.16699219,0.92578125,0.3125,0.34375,0.34375,0.0,0.0,0.0
1664377743305,-0.24804688,-0.16113281,0.92089844,0.1875,-0.3125,0.40625,0.0,0.0,0.0
1664377743306,-0.24804688,-0.16113281,0.92089844,0.1875,-0.3125,0.40625,0.0,0.0,0.0
1664377743345,-0.24609375,-0.16503906,0.91796875,0.125,0.125,0.34375,0.0,0.0,0.0
1664377743345,-0.24609375,-0.16503906,0.91796875,0.125,0.125,0.34375,0.0,0.0,0.0
1664377743386,-0.24902344,-0.15527344,0.9238281,0.03125,-0.0625,0.15625,0.0,0.0,0.0
1664377743386,-0.24902344,-0.15527344,0.9238281,0.03125,-0.0625,0.15625,0.0,0.0,0.0
1664377743425,-0.24316406,-0.16015625,0.9277344,0.3125,-0.125,0.21875,0.0,0.0,0.0
1664377743425,-0.24316406,-0.16015625,0.9277344,0.3125,-0.125,0.21875,0.0,0.0,0.0
1664377743465,-0.2421875,-0.16015625,0.9169922,0.25,-0.0625,0.15625,0.0,0.0,0.0
1664377743465,-0.2421875,-0.16015625,0.9169922,0.25,-0.0625,0.15625,0.0,0.0,0.0
1664377743524,-0.23730469,-0.16015625,0.9121094,0.3125,0.21875,-0.09375,0.0,0.0,0.0
1664377743524,-0.23730469,-0.16015625,0.9121094,0.3125,0.21875,-0.09375,0.0,0.0,0.0
1664377743545,-0.24902344,-0.16308594,0.92089844,0.0625,-0.1875,0.03125,0.0,0.0,0.0
1664377743545,-0.24902344,-0.16308594,0.92089844,0.0625,-0.1875,0.03125,0.0,0.0,0.0
1664377743587,-0.25,-0.16015625,0.9238281,-0.03125,-0.0625,-0.09375,0.0,0.0,0.0
1664377743587,-0.25,-0.16015625,0.9238281,-0.03125,-0.0625,-0.09375,0.0,0.0,0.0
1664377743628,-0.23730469,-0.15039062,0.9277344,-0.09375,-0.0625,-0.15625,0.0,0.0,0.0
1664377743628,-0.23730469,-0.15039062,0.9277344,-0.09375,-0.0625,-0.15625,0.0,0.0,0.0
1664377743665,-0.2529297,-0.1640625,0.9238281,-0.15625,-0.0625,-0.09375,-38.6875,-4.625,-92.875
1664377743666,-0.2529297,-0.1640625,0.9238281,-0.15625,-0.0625,-0.09375,-38.6875,-4.625,-92.875
1664377743706,-0.2421875,-0.1640625,0.921875,-0.21875,-0.25,-0.1875,0.0,0.0,0.0
1664377743706,-0.2421875,-0.1640625,0.921875,-0.21875,-0.25,-0.1875,0.0,0.0,0.0
1664377743746,-0.2548828,-0.16308594,0.92578125,-0.15625,0.0,-0.09375,0.0,0.0,0.0
1664377743746,-0.2548828,-0.16308594,0.92578125,-0.15625,0.0,-0.09375,0.0,0.0,0.0
1664377743785,-0.24023438,-0.16210938,0.92089844,-0.15625,-0.125,-0.1875,0.0,0.0,0.0
1664377743785,-0.24023438,-0.16210938,0.92089844,-0.15625,-0.125,-0.1875,0.0,0.0,0.0
1664377743826,-0.24316406,-0.16894531,0.9111328,-0.15625,0.0625,-0.25,0.0,0.0,0.0
1664377743826,-0.24316406,-0.16894531,0.9111328,-0.15625,0.0625,-0.25,0.0,0.0,0.0
1664377743865,-0.23828125,-0.16113281,0.91796875,-0.21875,-0.125,-0.25,0.0,0.0,0.0
1664377743865,-0.23828125,-0.16113281,0.91796875,-0.21875,-0.125,-0.25,0.0,0.0,0.0
1664377743905,-0.24804688,-0.16308594,0.9326172,-0.28125,0.40625,-0.09375,0.0,0.0,0.0
1664377743905,-0.24804688,-0.16308594,0.9326172,-0.28125,0.40625,-0.09375,0.0,0.0,0.0
1664377743946,-0.24707031,-0.16308594,0.93847656,-0.21875,-0.0625,-0.15625,0.0,0.0,0.0
1664377743945,-0.24707031,-0.16308594,0.93847656,-0.21875,-0.0625,-0.15625,0.0,0.0,0.0
1664377743985,-0.24121094,-0.15917969,0.9160156,-0.21875,0.15625,-0.25,0.0,0.0,0.0
1664377743985,-0.24121094,-0.15917969,0.9160156,-0.21875,0.15625,-0.25,0.0,0.0,0.0
1664377744025,-0.24609375,-0.16308594,0.9199219,-0.03125,-0.25,-0.25,0.0,0.0,0.0
1664377744025,-0.24609375,-0.16308594,0.9199219,-0.03125,-0.25,-0.25,0.0,0.0,0.0
1664377744066,-0.2529297,-0.16796875,0.9433594,-0.03125,0.125,-0.09375,0.0,0.0,0.0
1664377744066,-0.2529297,-0.16796875,0.9433594,-0.03125,0.125,-0.09375,0.0,0.0,0.0
1664377744106,-0.25,-0.16015625,0.9296875,0.125,-0.1875,-0.09375,0.0,0.0,0.0
1664377744106,-0.25,-0.16015625,0.9296875,0.125,-0.1875,-0.09375,0.0,0.0,0.0
1664377744145,-0.24707031,-0.16699219,0.92285156,-0.03125,0.0,-0.09375,-40.0625,-6.6875,-95.0
1664377744147,-0.24707031,-0.16699219,0.92285156,-0.03125,0.0,-0.09375,-40.0625,-6.6875,-95.0
1664377744185,-0.23925781,-0.16699219,0.9189453,0.1875,-0.0625,-0.09375,0.0,0.0,0.0
1664377744186,-0.23925781,-0.16699219,0.9189453,0.1875,-0.0625,-0.09375,0.0,0.0,0.0
1664377744225,-0.24121094,-0.16894531,0.9111328,-0.09375,0.15625,-0.1875,0.0,0.0,0.0
1664377744225,-0.24121094,-0.16894531,0.9111328,-0.09375,0.15625,-0.1875,0.0,0.0,0.0
1664377744286,-0.23730469,-0.16113281,0.91015625,-0.03125,0.15625,-0.15625,0.0,0.0,0.0
1664377744286,-0.23730469,-0.16113281,0.91015625,-0.03125,0.15625,-0.15625,0.0,0.0,0.0
1664377744305,-0.24511719,-0.1640625,0.91796875,-0.09375,-0.0625,-0.15625,0.0,0.0,0.0
1664377744305,-0.24511719,-0.1640625,0.91796875,-0.09375,-0.0625,-0.15625,0.0,0.0,0.0
1664377744346,-0.25,-0.15722656,0.91503906,-0.03125,0.0,-0.15625,0.0,0.0,0.0
1664377744346,-0.25,-0.15722656,0.91503906,-0.03125,0.0,-0.15625,0.0,0.0,0.0
1664377744386,-0.2421875,-0.16601562,0.9248047,-0.03125,-0.0625,-0.15625,0.0,0.0,0.0
1664377744386,-0.2421875,-0.16601562,0.9248047,-0.03125,-0.0625,-0.15625,0.0,0.0,0.0
1664377744427,-0.24414062,-0.15429688,0.92871094,-0.03125,-0.0625,-0.03125,0.0,0.0,0.0
1664377744428,-0.24414062,-0.15429688,0.92871094,-0.03125,-0.0625,-0.03125,0.0,0.0,0.0
1664377744465,-0.24511719,-0.16113281,0.92285156,-0.03125,0.0,-0.03125,0.0,0.0,0.0
1664377744465,-0.24511719,-0.16113281,0.92285156,-0.03125,0.0,-0.03125,0.0,0.0,0.0
1664377744505,-0.234375,-0.16503906,0.9111328,-0.09375,-0.0625,-0.03125,0.0,0.0,0.0
1664377744505,-0.234375,-0.16503906,0.9111328,-0.09375,-0.0625,-0.03125,0.0,0.0,0.0
1664377744545,-0.24707031,-0.16210938,0.9111328,-0.40625,0.21875,0.03125,0.0,0.0,0.0
1664377744545,-0.24707031,-0.16210938,0.9111328,-0.40625,0.21875,0.03125,0.0,0.0,0.0
1664377744585,-0.23828125,-0.15722656,0.9160156,-0.03125,-0.0625,-0.1875,0.0,0.0,0.0
1664377744586,-0.23828125,-0.15722656,0.9160156,-0.03125,-0.0625,-0.1875,0.0,0.0,0.0
1664377744627,-0.2421875,-0.15917969,0.9248047,0.125,0.28125,0.03125,0.0,0.0,0.0
1664377744626,-0.2421875,-0.15917969,0.9248047,0.125,0.28125,0.03125,0.0,0.0,0.0
1664377744665,-0.24609375,-0.16894531,0.9189453,0.125,-0.25,-0.09375,-39.125,-6.125,-94.125
1664377744665,-0.24609375,-0.16894531,0.9189453,0.125,-0.25,-0.09375,-39.125,-6.125,-94.125
1664377744709,-0.25,-0.16601562,0.93359375,0.125,-0.25,0.09375,0.0,0.0,0.0
1664377744709,-0.25,-0.16601562,0.93359375,0.125,-0.25,0.09375,0.0,0.0,0.0
1664377744745,-0.25195312,-0.171875,0.9238281,0.125,-0.1875,0.09375,0.0,0.0,0.0
1664377744745,-0.25195312,-0.171875,0.9238281,0.125,-0.1875,0.09375,0.0,0.0,0.0
1664377744785,-0.24511719,-0.16503906,0.9394531,0.25,0.0,0.09375,0.0,0.0,0.0
1664377744785,-0.24511719,-0.16503906,0.9394531,0.25,0.0,0.09375,0.0,0.0,0.0
1664377744826,-0.25,-0.15722656,0.9121094,-0.03125,-0.0625,-0.09375,0.0,0.0,0.0
1664377744826,-0.25,-0.15722656,0.9121094,-0.03125,-0.0625,-0.09375,0.0,0.0,0.0
1664377744866,-0.24121094,-0.16601562,0.9121094,0.03125,-0.1875,0.15625,0.0,0.0,0.0
1664377744866,-0.24121094,-0.16601562,0.9121094,0.03125,-0.1875,0.15625,0.0,0.0,0.0
1664377744905,-0.24316406,-0.16503906,0.92871094,0.0625,-0.1875,0.34375,0.0,0.0,0.0
1664377744905,-0.24316406,-0.16503906,0.92871094,0.0625,-0.1875,0.34375,0.0,0.0,0.0
1664377744946,-0.24511719,-0.16210938,0.9277344,-0.03125,-0.0625,0.21875,0.0,0.0,0.0
1664377744946,-0.24511719,-0.16210938,0.9277344,-0.03125,-0.0625,0.21875,0.0,0.0,0.0
1664377744985,-0.23632812,-0.16894531,0.93359375,0.1875,0.0625,0.15625,0.0,0.0,0.0
1664377744986,-0.23632812,-0.16894531,0.93359375,0.1875,0.0625,0.15625,0.0,0.0,0.0
1664377745045,-0.24023438,-0.16503906,0.9326172,-0.03125,0.0,0.15625,0.0,0.0,0.0
1664377745047,-0.24023438,-0.16503906,0.9326172,-0.03125,0.0,0.15625,0.0,0.0,0.0
1664377745066,-0.24414062,-0.1640625,0.92285156,0.0625,-0.0625,0.03125,0.0,0.0,0.0
1664377745066,-0.24414062,-0.1640625,0.92285156,0.0625,-0.0625,0.03125,0.0,0.0,0.0
1664377745106,-0.24902344,-0.1640625,0.91503906,-0.03125,0.0,0.09375,0.0,0.0,0.0
1664377745106,-0.24902344,-0.1640625,0.91503906,-0.03125,0.0,0.09375,0.0,0.0,0.0
1664377745147,-0.24707031,-0.16308594,0.9238281,0.125,0.0625,0.03125,-38.6875,-4.9375,-94.25
1664377745149,-0.24707031,-0.16308594,0.9238281,0.125,0.0625,0.03125,-38.6875,-4.9375,-94.25
1664377745186,-0.24414062,-0.16210938,0.9169922,-0.34375,0.28125,0.21875,0.0,0.0,0.0
1664377745186,-0.24414062,-0.16210938,0.9169922,-0.34375,0.28125,0.21875,0.0,0.0,0.0
1664377745225,-0.24121094,-0.16503906,0.921875,-0.09375,0.0,0.03125,0.0,0.0,0.0
1664377745225,-0.24121094,-0.16503906,0.921875,-0.09375,0.0,0.03125,0.0,0.0,0.0
1664377745267,-0.24121094,-0.1640625,0.9248047,0.125,0.125,0.15625,0.0,0.0,0.0
1664377745267,-0.24121094,-0.1640625,0.9248047,0.125,0.125,0.15625,0.0,0.0,0.0
1664377745305,-0.24121094,-0.16503906,0.921875,-0.03125,0.0,0.34375,0.0,0.0,0.0
1664377745305,-0.24121094,-0.16503906,0.921875,-0.03125,0.0,0.34375,0.0,0.0,0.0
1664377745345,-0.24707031,-0.17285156,0.9238281,0.03125,0.125,0.65625,0.0,0.0,0.0
1664377745345,-0.24707031,-0.17285156,0.9238281,0.03125,0.125,0.65625,0.0,0.0,0.0
1664377745389,-0.24707031,-0.16601562,0.9277344,0.3125,-0.1875,0.3125,0.0,0.0,0.0
1664377745389,-0.24707031,-0.16601562,0.9277344,0.3125,-0.1875,0.3125,0.0,0.0,0.0
1664377745425,-0.24804688,-0.15917969,0.9189453,0.0,0.125,0.25,0.0,0.0,0.0
1664377745425,-0.24804688,-0.15917969,0.9189453,0.0,0.125,0.25,0.0,0.0,0.0
1664377745466,-0.23730469,-0.16210938,0.921875,0.0625,0.1875,0.09375,0.0,0.0,0.0
1664377745465,-0.23730469,-0.16210938,0.921875,0.0625,0.1875,0.09375,0.0,0.0,0.0
1664377745506,-0.24316406,-0.16113281,0.9160156,0.0625,0.0,0.3125,0.0,0.0,0.0
1664377745506,-0.24316406,-0.16113281,0.9160156,0.0625,0.0,0.3125,0.0,0.0,0.0
1664377745547,-0.24707031,-0.15527344,0.9121094,0.1875,0.21875,0.25,0.0,0.0,0.0
1664377745547,-0.24707031,-0.15527344,0.9121094,0.1875,0.21875,0.25,0.0,0.0,0.0
1664377745587,-0.23535156,-0.16308594,0.921875,0.1875,0.125,0.3125,0.0,0.0,0.0
1664377745586,-0.23535156,-0.16308594,0.921875,0.1875,0.125,0.3125,0.0,0.0,0.0
1664377745626,-0.24414062,-0.16210938,0.9355469,-0.0625,0.0,0.25,0.0,0.0,0.0
1664377745626,-0.24414062,-0.16210938,0.9355469,-0.0625,0.0,0.25,0.0,0.0,0.0
1664377745666,-0.24316406,-0.16796875,0.9238281,0.125,0.125,0.375,-39.625,-5.5,-93.0625
1664377745666,-0.24316406,-0.16796875,0.9238281,0.125,0.125,0.375,-39.625,-5.5,-93.0625
1664377745706,-0.24414062,-0.15527344,0.9326172,0.125,0.125,0.25,0.0,0.0,0.0
1664377745706,-0.24414062,-0.15527344,0.9326172,0.125,0.125,0.25,0.0,0.0,0.0
1664377745746,-0.2421875,-0.16113281,0.92089844,0.0625,0.0,0.25,0.0,0.0,0.0
1664377745746,-0.2421875,-0.16113281,0.92089844,0.0625,0.0,0.25,0.0,0.0,0.0
1664377745826,-0.25,-0.16503906,0.9296875,0.0,0.1875,0.375,0.0,0.0,0.0
1664377745827,-0.2548828,-0.16210938,0.9091797,-0.4375,0.28125,0.5625,0.0,0.0,0.0
1664377745826,-0.25,-0.16503906,0.9296875,0.0,0.1875,0.375,0.0,0.0,0.0
1664377745828,-0.2548828,-0.16210938,0.9091797,-0.4375,0.28125,0.5625,0.0,0.0,0.0
1664377745866,-0.24414062,-0.16601562,0.9238281,0.0625,0.1875,0.25,0.0,0.0,0.0
1664377745866,-0.24414062,-0.16601562,0.9238281,0.0625,0.1875,0.25,0.0,0.0,0.0
1664377745906,-0.234375,-0.15625,0.92578125,-0.0625,0.21875,0.15625,0.0,0.0,0.0
1664377745906,-0.234375,-0.15625,0.92578125,-0.0625,0.21875,0.15625,0.0,0.0,0.0
1664377746226,-0.2421875,-0.16699219,0.9238281,0.1875,0.0625,0.15625,-39.3125,-5.6875,-94.5625
1664377746226,-0.2421875,-0.16699219,0.9238281,0.1875,0.0625,0.15625,-39.3125,-5.6875,-94.5625
1664377746228,-0.24316406,-0.16503906,0.92285156,0.0,0.21875,0.375,0.0,0.0,0.0
1664377746229,-0.24316406,-0.16503906,0.92285156,0.0,0.21875,0.375,0.0,0.0,0.0
1664377746245,-0.24023438,-0.16210938,0.92089844,0.125,0.0625,0.15625,0.0,0.0,0.0
1664377746245,-0.24023438,-0.16210938,0.92089844,0.125,0.0625,0.15625,0.0,0.0,0.0
1664377746265,-0.24316406,-0.15917969,0.92089844,0.125,-0.0625,0.15625,0.0,0.0,0.0
1664377746265,-0.24316406,-0.15917969,0.92089844,0.125,-0.0625,0.15625,0.0,0.0,0.0
1664377746268,-0.25097656,-0.16796875,0.93359375,-0.125,0.0,0.03125,0.0,0.0,0.0
1664377746270,-0.24902344,-0.16308594,0.91503906,-0.0625,0.0,0.15625,0.0,0.0,0.0
1664377746269,-0.25097656,-0.16796875,0.93359375,-0.125,0.0,0.03125,0.0,0.0,0.0
1664377746271,-0.25195312,-0.16308594,0.9238281,0.0625,0.0625,0.15625,0.0,0.0,0.0
1664377746272,-0.24902344,-0.16308594,0.91503906,-0.0625,0.0,0.15625,0.0,0.0,0.0
1664377746273,-0.24707031,-0.16503906,0.92285156,0.0,0.125,0.03125,0.0,0.0,0.0
1664377746274,-0.25195312,-0.16308594,0.9238281,0.0625,0.0625,0.15625,0.0,0.0,0.0
1664377746275,-0.2421875,-0.15429688,0.93359375,0.0625,0.1875,-0.09375,0.0,0.0,0.0
1664377746276,-0.24707031,-0.16503906,0.92285156,0.0,0.125,0.03125,0.0,0.0,0.0
1664377746278,-0.2421875,-0.15429688,0.93359375,0.0625,0.1875,-0.09375,0.0,0.0,0.0
1664377746305,-0.2421875,-0.15917969,0.90625,0.1875,-0.0625,-0.21875,0.0,0.0,0.0
1664377746305,-0.2421875,-0.15917969,0.90625,0.1875,-0.0625,-0.21875,0.0,0.0,0.0
1664377746346,-0.2421875,-0.16601562,0.92578125,-0.0625,-0.125,-0.03125,0.0,0.0,0.0
1664377746347,-0.2421875,-0.16601562,0.92578125,-0.0625,-0.125,-0.03125,0.0,0.0,0.0
1664377746386,-0.23535156,-0.16796875,0.92089844,0.0,-0.3125,-0.15625,0.0,0.0,0.0
1664377746386,-0.23535156,-0.16796875,0.92089844,0.0,-0.3125,-0.15625,0.0,0.0,0.0
1664377746425,-0.2529297,-0.1640625,0.92285156,-0.375,0.46875,-0.03125,0.0,0.0,0.0
1664377746424,-0.2529297,-0.1640625,0.92285156,-0.375,0.46875,-0.03125,0.0,0.0,0.0
1664377746466,-0.23828125,-0.16503906,0.9277344,0.0,-0.125,-0.15625,0.0,0.0,0.0
1664377746467,-0.23828125,-0.16503906,0.9277344,0.0,-0.125,-0.15625,0.0,0.0,0.0
1664377746505,-0.23925781,-0.1640625,0.9238281,-0.3125,0.28125,-0.21875,0.0,0.0,0.0
1664377746506,-0.23925781,-0.1640625,0.9238281,-0.3125,0.28125,-0.21875,0.0,0.0,0.0
1664377746586,-0.25195312,-0.16015625,0.9296875,-0.125,-0.1875,-0.28125,0.0,0.0,0.0
1664377746588,-0.24609375,-0.15820312,0.9248047,-0.125,0.0625,0.03125,0.0,0.0,0.0
1664377746586,-0.25195312,-0.16015625,0.9296875,-0.125,-0.1875,-0.28125,0.0,0.0,0.0
1664377746589,-0.24609375,-0.15820312,0.9248047,-0.125,0.0625,0.03125,0.0,0.0,0.0
1664377746626,-0.25,-0.15820312,0.9248047,0.0625,-0.4375,-0.21875,0.0,0.0,0.0
1664377746627,-0.25,-0.15820312,0.9248047,0.0625,-0.4375,-0.21875,0.0,0.0,0.0
1664377746666,-0.24707031,-0.16113281,0.91503906,0.0,-0.125,-0.15625,-38.875,-5.0625,-94.125
1664377746666,-0.24707031,-0.16113281,0.91503906,0.0,-0.125,-0.15625,-38.875,-5.0625,-94.125
1664377746706,-0.25097656,-0.16210938,0.92285156,0.0625,0.0625,-0.03125,0.0,0.0,0.0
1664377746706,-0.25097656,-0.16210938,0.92285156,0.0625,0.0625,-0.03125,0.0,0.0,0.0
1664377746786,-0.24414062,-0.15722656,0.921875,0.125,-0.125,-0.03125,0.0,0.0,0.0
1664377746786,-0.24414062,-0.15722656,0.921875,0.125,-0.125,-0.03125,0.0,0.0,0.0
1664377746790,-0.24023438,-0.15820312,0.9199219,0.3125,-0.125,0.03125,0.0,0.0,0.0
1664377746790,-0.24023438,-0.15820312,0.9199219,0.3125,-0.125,0.03125,0.0,0.0,0.0
1664377746866,-0.23730469,-0.16699219,0.9296875,0.1875,0.21875,-0.46875,0.0,0.0,0.0
1664377746866,-0.23730469,-0.16699219,0.9296875,0.1875,0.21875,-0.46875,0.0,0.0,0.0
1664377746868,-0.2529297,-0.15429688,0.9111328,0.125,0.125,-0.59375,0.0,0.0,0.0
1664377746869,-0.2529297,-0.15429688,0.9111328,0.125,0.125,-0.59375,0.0,0.0,0.0
1664377747025,-0.25,-0.15820312,0.9238281,0.125,0.125,-0.40625,0.0,0.0,0.0
1664377747025,-0.25,-0.15820312,0.9238281,0.125,0.125,-0.40625,0.0,0.0,0.0
1664377747026,-0.24804688,-0.15039062,0.92089844,0.0,-0.125,-0.53125,0.0,0.0,0.0
1664377747028,-0.25,-0.15917969,0.9316406,-0.125,0.0625,-0.40625,0.0,0.0,0.0
1664377747028,-0.24316406,-0.16699219,0.9355469,-0.0625,0.0625,-0.40625,0.0,0.0,0.0
1664377747028,-0.24804688,-0.15039062,0.92089844,0.0,-0.125,-0.53125,0.0,0.0,0.0
1664377747029,-0.25,-0.15917969,0.9316406,-0.125,0.0625,-0.40625,0.0,0.0,0.0
1664377747031,-0.24316406,-0.16699219,0.9355469,-0.0625,0.0625,-0.40625,0.0,0.0,0.0
1664377747066,-0.24707031,-0.1640625,0.9169922,-0.5625,0.0625,0.09375,0.0,0.0,0.0
1664377747066,-0.24707031,-0.1640625,0.9169922,-0.5625,0.0625,0.09375,0.0,0.0,0.0
1664377747105,-0.25097656,-0.16894531,0.921875,-0.25,0.28125,-0.09375,0.0,0.0,0.0
1664377747106,-0.25097656,-0.16894531,0.921875,-0.25,0.28125,-0.09375,0.0,0.0,0.0
1664377747146,-0.24316406,-0.17285156,0.90625,-0.375,-0.1875,-0.15625,-38.6875,-5.9375,-94.25
1664377747146,-0.24316406,-0.17285156,0.90625,-0.375,-0.1875,-0.15625,-38.6875,-5.9375,-94.25
1664377747185,-0.25097656,-0.15820312,0.92578125,-0.1875,0.21875,-0.28125,0.0,0.0,0.0
1664377747186,-0.25097656,-0.15820312,0.92578125,-0.1875,0.21875,-0.28125,0.0,0.0,0.0
1664377747225,-0.24511719,-0.17089844,0.9082031,-0.0625,0.125,-0.09375,0.0,0.0,0.0
1664377747226,-0.24511719,-0.17089844,0.9082031,-0.0625,0.125,-0.09375,0.0,0.0,0.0
1664377747266,-0.23535156,-0.16992188,0.93847656,0.125,-0.125,-0.34375,0.0,0.0,0.0
1664377747265,-0.23535156,-0.16992188,0.93847656,0.125,-0.125,-0.34375,0.0,0.0,0.0
1664377747326,-0.25390625,-0.1640625,0.9160156,0.3125,0.125,-0.28125,0.0,0.0,0.0
1664377747326,-0.25390625,-0.1640625,0.9160156,0.3125,0.125,-0.28125,0.0,0.0,0.0
1664377747344,-0.23925781,-0.16796875,0.9296875,0.125,0.0625,-0.28125,0.0,0.0,0.0
1664377747344,-0.23925781,-0.16796875,0.9296875,0.125,0.0625,-0.28125,0.0,0.0,0.0
1664377747386,-0.2529297,-0.16210938,0.92285156,0.0,0.0625,-0.21875,0.0,0.0,0.0
1664377747388,-0.2529297,-0.16210938,0.92285156,0.0,0.0625,-0.21875,0.0,0.0,0.0
1664377747426,-0.25,-0.16699219,0.9248047,0.0625,-0.0625,-0.09375,0.0,0.0,0.0
1664377747426,-0.25,-0.16699219,0.9248047,0.0625,-0.0625,-0.09375,0.0,0.0,0.0
1664377747465,-0.24414062,-0.16796875,0.92871094,-0.0625,0.0,-0.03125,0.0,0.0,0.0
1664377747465,-0.24414062,-0.16796875,0.92871094,-0.0625,0.0,-0.03125,0.0,0.0,0.0
1664377747526,-0.25195312,-0.16503906,0.9199219,0.125,0.0625,-0.03125,0.0,0.0,0.0
1664377747526,-0.25195312,-0.16503906,0.9199219,0.125,0.0625,-0.03125,0.0,0.0,0.0
1664377747545,-0.24316406,-0.16601562,0.9267578,-0.0625,-0.125,-0.09375,0.0,0.0,0.0
1664377747545,-0.24316406,-0.16601562,0.9267578,-0.0625,-0.125,-0.09375,0.0,0.0,0.0
1664377747586,-0.24804688,-0.1640625,0.92578125,0.25,0.0625,-0.15625,0.0,0.0,0.0
1664377747586,-0.24804688,-0.1640625,0.92578125,0.25,0.0625,-0.15625,0.0,0.0,0.0
1664377747625,-0.24414062,-0.17089844,0.9267578,-0.0625,-0.1875,-0.15625,0.0,0.0,0.0
1664377747625,-0.24414062,-0.17089844,0.9267578,-0.0625,-0.1875,-0.15625,0.0,0.0,0.0
1664377747665,-0.24609375,-0.16699219,0.92578125,0.0,0.34375,-0.15625,-37.8125,-5.0625,-94.375
1664377747665,-0.24609375,-0.16699219,0.92578125,0.0,0.34375,-0.15625,-37.8125,-5.0625,-94.375
1664377747706,-0.23925781,-0.16503906,0.9345703,-0.1875,0.125,0.15625,0.0,0.0,0.0
1664377747706,-0.23925781,-0.16503906,0.9345703,-0.1875,0.125,0.15625,0.0,0.0,0.0
1664377747745,-0.24902344,-0.16503906,0.92578125,0.0,0.21875,-0.03125,0.0,0.0,0.0
1664377747745,-0.24902344,-0.16503906,0.92578125,0.0,0.21875,-0.03125,0.0,0.0,0.0
1664377747785,-0.24902344,-0.15917969,0.9326172,0.0,0.1875,0.09375,0.0,0.0,0.0
1664377747785,-0.24902344,-0.15917969,0.9326172,0.0,0.1875,0.09375,0.0,0.0,0.0
1664377747827,-0.24609375,-0.15722656,0.92089844,0.0,0.125,0.15625,0.0,0.0,0.0
1664377747827,-0.24609375,-0.15722656,0.92089844,0.0,0.125,0.15625,0.0,0.0,0.0
1664377747865,-0.24707031,-0.1640625,0.9316406,0.0,0.0625,0.21875,0.0,0.0,0.0
1664377747866,-0.24707031,-0.1640625,0.9316406,0.0,0.0625,0.21875,0.0,0.0,0.0
1664377747905,-0.25097656,-0.16015625,0.93359375,0.125,-0.1875,0.15625,0.0,0.0,0.0
1664377747905,-0.25097656,-0.16015625,0.93359375,0.125,-0.1875,0.15625,0.0,0.0,0.0
1664377747946,-0.25,-0.1640625,0.93359375,0.0,0.1875,0.25,0.0,0.0,0.0
1664377747946,-0.25,-0.1640625,0.93359375,0.0,0.1875,0.25,0.0,0.0,0.0
1664377747986,-0.23828125,-0.16699219,0.9199219,0.0,0.1875,0.25,0.0,0.0,0.0
1664377747986,-0.23828125,-0.16699219,0.9199219,0.0,0.1875,0.25,0.0,0.0,0.0
1664377748026,-0.234375,-0.16503906,0.9267578,0.0,0.0,0.25,0.0,0.0,0.0
1664377748026,-0.234375,-0.16503906,0.9267578,0.0,0.0,0.25,0.0,0.0,0.0
1664377748087,-0.24414062,-0.1640625,0.9111328,0.0625,0.125,0.3125,0.0,0.0,0.0
1664377748087,-0.24414062,-0.1640625,0.9111328,0.0625,0.125,0.3125,0.0,0.0,0.0
1664377748106,-0.24902344,-0.16308594,0.91015625,0.1875,0.1875,0.5,0.0,0.0,0.0
1664377748105,-0.24902344,-0.16308594,0.91015625,0.1875,0.1875,0.5,0.0,0.0,0.0
1664377748146,-0.24316406,-0.16894531,0.9199219,0.0625,0.125,0.25,-38.875,-5.5,-92.75
1664377748146,-0.24316406,-0.16894531,0.9199219,0.0625,0.125,0.25,-38.875,-5.5,-92.75
1664377748186,-0.24707031,-0.16210938,0.91503906,0.0625,0.0,0.25,0.0,0.0,0.0
1664377748186,-0.24707031,-0.16210938,0.91503906,0.0625,0.0,0.25,0.0,0.0,0.0
1664377748225,-0.25585938,-0.1640625,0.9296875,0.0625,-0.125,0.09375,0.0,0.0,0.0
1664377748225,-0.25585938,-0.1640625,0.9296875,0.0625,-0.125,0.09375,0.0,0.0,0.0
1664377748266,-0.24804688,-0.171875,0.9160156,-0.125,0.0,0.25,0.0,0.0,0.0
1664377748266,-0.24804688,-0.171875,0.9160156,-0.125,0.0,0.25,0.0,0.0,0.0
1664377748306,-0.24414062,-0.16699219,0.92285156,0.34375,-0.1875,0.15625,0.0,0.0,0.0
1664377748306,-0.24414062,-0.16699219,0.92285156,0.34375,-0.1875,0.15625,0.0,0.0,0.0
1664377748345,-0.25097656,-0.17089844,0.9111328,-0.25,0.46875,0.375,0.0,0.0,0.0
1664377748345,-0.25097656,-0.17089844,0.9111328,-0.25,0.46875,0.375,0.0,0.0,0.0
1664377748386,-0.24023438,-0.16503906,0.91503906,0.0625,-0.0625,0.375,0.0,0.0,0.0
1664377748386,-0.24023438,-0.16503906,0.91503906,0.0625,-0.0625,0.375,0.0,0.0,0.0
1664377748426,-0.24023438,-0.16796875,0.92578125,0.0,0.21875,0.09375,0.0,0.0,0.0
1664377748426,-0.24023438,-0.16796875,0.92578125,0.0,0.21875,0.09375,0.0,0.0,0.0
1664377748466,-0.25097656,-0.16308594,0.9091797,-0.0625,0.0,0.09375,0.0,0.0,0.0
1664377748466,-0.25097656,-0.16308594,0.9091797,-0.0625,0.0,0.09375,0.0,0.0,0.0
1664377748506,-0.24121094,-0.1640625,0.9423828,0.0,0.1875,0.15625,0.0,0.0,0.0
1664377748506,-0.24121094,-0.1640625,0.9423828,0.0,0.1875,0.15625,0.0,0.0,0.0
1664377748546,-0.25,-0.16210938,0.91503906,0.25,-0.3125,0.09375,0.0,0.0,0.0
1664377748546,-0.25,-0.16210938,0.91503906,0.25,-0.3125,0.09375,0.0,0.0,0.0
1664377748586,-0.25,-0.16015625,0.93652344,0.53125,0.125,0.03125,0.0,0.0,0.0
1664377748586,-0.25,-0.16015625,0.93652344,0.53125,0.125,0.03125,0.0,0.0,0.0
1664377748625,-0.24609375,-0.16601562,0.9248047,0.125,-0.125,0.09375,0.0,0.0,0.0
1664377748625,-0.24609375,-0.16601562,0.9248047,0.125,-0.125,0.09375,0.0,0.0,0.0
1664377748666,-0.25195312,-0.16210938,0.92089844,0.3125,0.125,0.21875,-37.8125,-4.75,-93.375
1664377748666,-0.25195312,-0.16210938,0.92089844,0.3125,0.125,0.21875,-37.8125,-4.75,-93.375
1664377748706,-0.25,-0.16308594,0.91796875,0.25,0.0625,0.03125,0.0,0.0,0.0
1664377748705,-0.25,-0.16308594,0.91796875,0.25,0.0625,0.03125,0.0,0.0,0.0
1664377748746,-0.24609375,-0.15917969,0.9248047,0.0625,0.0,0.21875,0.0,0.0,0.0
1664377748746,-0.24609375,-0.15917969,0.9248047,0.0625,0.0,0.21875,0.0,0.0,0.0
1664377748787,-0.25195312,-0.16796875,0.92089844,0.0625,0.0,0.3125,0.0,0.0,0.0
1664377748787,-0.25195312,-0.16796875,0.92089844,0.0625,0.0,0.3125,0.0,0.0,0.0
1664377748846,-0.24121094,-0.16210938,0.9169922,0.0625,0.125,0.15625,0.0,0.0,0.0
1664377748846,-0.24121094,-0.16210938,0.9169922,0.0625,0.125,0.15625,0.0,0.0,0.0
1664377748866,-0.23730469,-0.16015625,0.9160156,0.3125,-0.125,0.03125,0.0,0.0,0.0
1664377748866,-0.23730469,-0.16015625,0.9160156,0.3125,-0.125,0.03125,0.0,0.0,0.0
1664377748906,-0.24414062,-0.16015625,0.91308594,0.0,0.0625,0.15625,0.0,0.0,0.0
1664377748907,-0.24414062,-0.16015625,0.91308594,0.0,0.0625,0.15625,0.0,0.0,0.0
1664377748946,-0.23535156,-0.16503906,0.921875,0.1875,-0.375,0.15625,0.0,0.0,0.0
1664377748946,-0.23535156,-0.16503906,0.921875,0.1875,-0.375,0.15625,0.0,0.0,0.0
1664377748986,-0.25,-0.16699219,0.93066406,-0.125,0.53125,0.25,0.0,0.0,0.0
1664377748986,-0.25,-0.16699219,0.93066406,-0.125,0.53125,0.25,0.0,0.0,0.0
1664377749026,-0.24316406,-0.1640625,0.9199219,0.3125,-0.375,0.21875,0.0,0.0,0.0
1664377749026,-0.24316406,-0.1640625,0.9199219,0.3125,-0.375,0.21875,0.0,0.0,0.0
1664377749066,-0.24023438,-0.15917969,0.9316406,-0.125,0.1875,-0.03125,0.0,0.0,0.0
1664377749066,-0.24023438,-0.15917969,0.9316406,-0.125,0.1875,-0.03125,0.0,0.0,0.0
1664377749109,-0.24707031,-0.16210938,0.92285156,0.125,-0.1875,0.15625,0.0,0.0,0.0
1664377749109,-0.24707031,-0.16210938,0.92285156,0.125,-0.1875,0.15625,0.0,0.0,0.0
1664377749166,-0.24511719,-0.16503906,0.91503906,-0.25,0.0,0.15625,-39.125,-6.125,-94.6875
1664377749166,-0.24511719,-0.16503906,0.91503906,-0.25,0.0,0.15625,-39.125,-6.125,-94.6875
1664377749186,-0.24707031,-0.16308594,0.9199219,0.25,-0.1875,-0.03125,0.0,0.0,0.0
1664377749185,-0.24707031,-0.16308594,0.9199219,0.25,-0.1875,-0.03125,0.0,0.0,0.0
1664377749226,-0.24609375,-0.1640625,0.92285156,0.1875,0.125,0.03125,0.0,0.0,0.0
1664377749226,-0.24609375,-0.1640625,0.92285156,0.1875,0.125,0.03125,0.0,0.0,0.0
1664377749265,-0.24121094,-0.16503906,0.9140625,0.125,-0.0625,0.09375,0.0,0.0,0.0
1664377749265,-0.24121094,-0.16503906,0.9140625,0.125,-0.0625,0.09375,0.0,0.0,0.0
1664377749306,-0.25097656,-0.15722656,0.8964844,0.0,0.21875,-0.15625,0.0,0.0,0.0
1664377749306,-0.25097656,-0.15722656,0.8964844,0.0,0.21875,-0.15625,0.0,0.0,0.0
1664377749347,-0.2421875,-0.16308594,0.92578125,0.0,0.0,-0.21875,0.0,0.0,0.0
1664377749347,-0.2421875,-0.16308594,0.92578125,0.0,0.0,-0.21875,0.0,0.0,0.0
1664377749386,-0.25097656,-0.16601562,0.92285156,0.1875,-0.25,-0.21875,0.0,0.0,0.0
1664377749386,-0.25097656,-0.16601562,0.92285156,0.1875,-0.25,-0.21875,0.0,0.0,0.0
1664377749425,-0.24902344,-0.15527344,0.9326172,0.125,0.0625,-0.40625,0.0,0.0,0.0
1664377749428,-0.24902344,-0.15527344,0.9326172,0.125,0.0625,-0.40625,0.0,0.0,0.0
1664377749466,-0.24707031,-0.1640625,0.921875,0.125,-0.3125,-0.46875,0.0,0.0,0.0
1664377749466,-0.24707031,-0.1640625,0.921875,0.125,-0.3125,-0.46875,0.0,0.0,0.0
1664377749506,-0.23925781,-0.1640625,0.92871094,0.1875,-0.25,-0.40625,0.0,0.0,0.0
1664377749505,-0.23925781,-0.1640625,0.92871094,0.1875,-0.25,-0.40625,0.0,0.0,0.0
1664377749545,-0.24023438,-0.16210938,0.921875,0.125,-0.25,-0.46875,0.0,0.0,0.0
1664377749552,-0.24023438,-0.16210938,0.921875,0.125,-0.25,-0.46875,0.0,0.0,0.0
1664377749606,-0.25,-0.15917969,0.9111328,-0.125,-0.0625,-0.34375,0.0,0.0,0.0
1664377749605,-0.25,-0.15917969,0.9111328,-0.125,-0.0625,-0.34375,0.0,0.0,0.0
1664377749626,-0.24804688,-0.16796875,0.92578125,-0.0625,0.0,-0.34375,0.0,0.0,0.0
1664377749626,-0.24804688,-0.16796875,0.92578125,-0.0625,0.0,-0.34375,0.0,0.0,0.0
1664377749666,-0.25585938,-0.15625,0.9316406,-0.375,0.1875,-0.15625,-38.375,-5.8125,-92.75
1664377749665,-0.25585938,-0.15625,0.9316406,-0.375,0.1875,-0.15625,-38.375,-5.8125,-92.75
1664377749707,-0.24023438,-0.16796875,0.93066406,0.0,0.21875,-0.40625,0.0,0.0,0.0
1664377749707,-0.24023438,-0.16796875,0.93066406,0.0,0.21875,-0.40625,0.0,0.0,0.0
1664377749745,-0.25097656,-0.16210938,0.90527344,-0.125,0.125,-0.40625,0.0,0.0,0.0
1664377749747,-0.25097656,-0.16210938,0.90527344,-0.125,0.125,-0.40625,0.0,0.0,0.0
1664377749787,-0.2548828,-0.16113281,0.91796875,0.1875,0.0,-0.40625,0.0,0.0,0.0
1664377749786,-0.2548828,-0.16113281,0.91796875,0.1875,0.0,-0.40625,0.0,0.0,0.0
1664377749826,-0.24511719,-0.15820312,0.93066406,0.0625,0.0625,-0.40625,0.0,0.0,0.0
1664377749826,-0.24511719,-0.15820312,0.93066406,0.0625,0.0625,-0.40625,0.0,0.0,0.0
1664377749865,-0.24707031,-0.16015625,0.9199219,0.3125,-0.375,-0.21875,0.0,0.0,0.0
1664377749865,-0.24707031,-0.16015625,0.9199219,0.3125,-0.375,-0.21875,0.0,0.0,0.0
1664377749905,-0.24804688,-0.1640625,0.93066406,0.0,0.0625,-0.28125,0.0,0.0,0.0
1664377749907,-0.24804688,-0.1640625,0.93066406,0.0,0.0625,-0.28125,0.0,0.0,0.0
1664377749945,-0.24023438,-0.16113281,0.93359375,-0.0625,0.0625,-0.15625,0.0,0.0,0.0
1664377749945,-0.24023438,-0.16113281,0.93359375,-0.0625,0.0625,-0.15625,0.0,0.0,0.0
1664377749985,-0.24707031,-0.16601562,0.92285156,-0.0625,-0.0625,-0.15625,0.0,0.0,0.0
1664377749985,-0.24707031,-0.16601562,0.92285156,-0.0625,-0.0625,-0.15625,0.0,0.0,0.0
1664377750026,-0.24316406,-0.1640625,0.92578125,-0.1875,0.0,-0.21875,0.0,0.0,0.0
1664377750026,-0.24316406,-0.1640625,0.92578125,-0.1875,0.0,-0.21875,0.0,0.0,0.0
1664377750066,-0.24511719,-0.16601562,0.9375,0.0,0.125,-0.28125,0.0,0.0,0.0
1664377750066,-0.24511719,-0.16601562,0.9375,0.0,0.125,-0.28125,0.0,0.0,0.0
1664377750106,-0.25195312,-0.15527344,0.9111328,0.0,0.0,-0.21875,0.0,0.0,0.0
1664377750106,-0.25195312,-0.15527344,0.9111328,0.0,0.0,-0.21875,0.0,0.0,0.0
1664377750146,-0.24316406,-0.16015625,0.9160156,0.0,0.0,-0.21875,-38.6875,-5.6875,-93.9375
1664377750146,-0.24316406,-0.16015625,0.9160156,0.0,0.0,-0.21875,-38.6875,-5.6875,-93.9375
1664377750185,-0.23828125,-0.16210938,0.9248047,0.0625,0.0,-0.21875,0.0,0.0,0.0
1664377750186,-0.23828125,-0.16210938,0.9248047,0.0625,0.0,-0.21875,0.0,0.0,0.0
1664377750226,-0.24511719,-0.16503906,0.93359375,-0.25,-0.125,-0.28125,0.0,0.0,0.0
1664377750226,-0.24511719,-0.16503906,0.93359375,-0.25,-0.125,-0.28125,0.0,0.0,0.0
1664377750265,-0.24804688,-0.16015625,0.9238281,-0.0625,0.0,-0.21875,0.0,0.0,0.0
1664377750267,-0.24804688,-0.16015625,0.9238281,-0.0625,0.0,-0.21875,0.0,0.0,0.0
1664377750308,-0.24511719,-0.1640625,0.9199219,0.0,-0.375,-0.40625,0.0,0.0,0.0
1664377750308,-0.24511719,-0.1640625,0.9199219,0.0,-0.375,-0.40625,0.0,0.0,0.0
1664377750366,-0.24121094,-0.16601562,0.94140625,-0.375,0.28125,-0.03125,0.0,0.0,0.0
1664377750366,-0.24121094,-0.16601562,0.94140625,-0.375,0.28125,-0.03125,0.0,0.0,0.0
1664377750384,-0.24121094,-0.1640625,0.9082031,-0.375,0.125,-0.03125,0.0,0.0,0.0
1664377750384,-0.24121094,-0.1640625,0.9082031,-0.375,0.125,-0.03125,0.0,0.0,0.0
1664377750425,-0.23242188,-0.15429688,0.9277344,-0.0625,0.21875,-0.34375,0.0,0.0,0.0
1664377750425,-0.23242188,-0.15429688,0.9277344,-0.0625,0.21875,-0.34375,0.0,0.0,0.0
1664377750466,-0.24414062,-0.16308594,0.92285156,0.0,0.0625,-0.34375,0.0,0.0,0.0
1664377750466,-0.24414062,-0.16308594,0.92285156,0.0,0.0625,-0.34375,0.0,0.0,0.0
1664377750505,-0.23925781,-0.17382812,0.91308594,0.0,0.0,-0.21875,0.0,0.0,0.0
1664377750505,-0.23925781,-0.17382812,0.91308594,0.0,0.0,-0.21875,0.0,0.0,0.0
1664377750545,-0.24121094,-0.16113281,0.92578125,0.0,0.125,-0.21875,0.0,0.0,0.0
1664377750545,-0.24121094,-0.16113281,0.92578125,0.0,0.125,-0.21875,0.0,0.0,0.0
1664377750585,-0.2421875,-0.16113281,0.91503906,0.0625,-0.1875,-0.15625,0.0,0.0,0.0
1664377750585,-0.2421875,-0.16113281,0.91503906,0.0625,-0.1875,-0.15625,0.0,0.0,0.0
1664377750626,-0.23925781,-0.16601562,0.93359375,-0.125,0.0625,-0.03125,0.0,0.0,0.0
1664377750627,-0.23925781,-0.16601562,0.93359375,-0.125,0.0625,-0.03125,0.0,0.0,0.0
1664377750665,-0.24414062,-0.14941406,0.92578125,-0.0625,0.0,-0.09375,-38.875,-5.5,-93.625
1664377750668,-0.24414062,-0.14941406,0.92578125,-0.0625,0.0,-0.09375,-38.875,-5.5,-93.625
1664377750707,-0.24316406,-0.16796875,0.9189453,-0.1875,0.0,-0.09375,0.0,0.0,0.0
1664377750709,-0.24316406,-0.16796875,0.9189453,-0.1875,0.0,-0.09375,0.0,0.0,0.0
1664377750745,-0.2421875,-0.15917969,0.93652344,0.0625,0.0625,0.03125,0.0,0.0,0.0
1664377750746,-0.2421875,-0.15917969,0.93652344,0.0625,0.0625,0.03125,0.0,0.0,0.0
1664377750787,-0.24804688,-0.15820312,0.9296875,-0.0625,0.0,-0.03125,0.0,0.0,0.0
1664377750787,-0.24804688,-0.15820312,0.9296875,-0.0625,0.0,-0.03125,0.0,0.0,0.0
1664377750825,-0.23632812,-0.15625,0.9238281,-0.125,0.0,0.03125,0.0,0.0,0.0
1664377750825,-0.23632812,-0.15625,0.9238281,-0.125,0.0,0.03125,0.0,0.0,0.0
1664377750865,-0.23828125,-0.16015625,0.9160156,-0.0625,0.0,-0.09375,0.0,0.0,0.0
1664377750865,-0.23828125,-0.16015625,0.9160156,-0.0625,0.0,-0.09375,0.0,0.0,0.0
1664377750905,-0.24609375,-0.16015625,0.9160156,-0.0625,0.0,-0.03125,0.0,0.0,0.0
1664377750906,-0.24609375,-0.16015625,0.9160156,-0.0625,0.0,-0.03125,0.0,0.0,0.0
1664377750947,-0.24414062,-0.16503906,0.921875,-0.125,-0.25,-0.15625,0.0,0.0,0.0
1664377750947,-0.24414062,-0.16503906,0.921875,-0.125,-0.25,-0.15625,0.0,0.0,0.0
1664377750985,-0.23925781,-0.16210938,0.9160156,-0.0625,0.0,-0.09375,0.0,0.0,0.0
1664377750985,-0.23925781,-0.16210938,0.9160156,-0.0625,0.0,-0.09375,0.0,0.0,0.0
1664377751025,-0.25,-0.16308594,0.9316406,-0.125,0.0625,-0.09375,0.0,0.0,0.0
1664377751025,-0.25,-0.16308594,0.9316406,-0.125,0.0625,-0.09375,0.0,0.0,0.0
1664377751066,-0.2421875,-0.15722656,0.9296875,-0.125,-0.0625,-0.03125,0.0,0.0,0.0
1664377751066,-0.2421875,-0.15722656,0.9296875,-0.125,-0.0625,-0.03125,0.0,0.0,0.0
1664377751126,-0.24511719,-0.15820312,0.92871094,-0.375,0.34375,0.25,0.0,0.0,0.0
1664377751126,-0.24511719,-0.15820312,0.92871094,-0.375,0.34375,0.25,0.0,0.0,0.0
1664377751145,-0.24023438,-0.16894531,0.9189453,-0.25,0.0,0.21875,-38.375,-6.125,-94.125
1664377751146,-0.24023438,-0.16894531,0.9189453,-0.25,0.0,0.21875,-38.375,-6.125,-94.125
1664377751186,-0.24511719,-0.16015625,0.92089844,-0.0625,0.0625,0.25,0.0,0.0,0.0
1664377751185,-0.24511719,-0.16015625,0.92089844,-0.0625,0.0625,0.25,0.0,0.0,0.0
1664377751226,-0.25097656,-0.16894531,0.9169922,-0.0625,-0.0625,0.21875,0.0,0.0,0.0
1664377751226,-0.25097656,-0.16894531,0.9169922,-0.0625,-0.0625,0.21875,0.0,0.0,0.0
1664377751266,-0.24511719,-0.17089844,0.92285156,-0.125,0.125,0.21875,0.0,0.0,0.0
1664377751266,-0.24511719,-0.17089844,0.92285156,-0.125,0.125,0.21875,0.0,0.0,0.0
1664377751285,-0.24707031,-0.16210938,0.9121094,-0.125,-0.0625,0.25,0.0,0.0,0.0
1664377751285,-0.24707031,-0.16210938,0.9121094,-0.125,-0.0625,0.25,0.0,0.0,0.0
1664377751327,-0.24902344,-0.16308594,0.92285156,-0.0625,0.0625,0.25,0.0,0.0,0.0
1664377751327,-0.24902344,-0.16308594,0.92285156,-0.0625,0.0625,0.25,0.0,0.0,0.0
1664377751365,-0.24414062,-0.15917969,0.92578125,0.0,0.0625,0.09375,0.0,0.0,0.0
1664377751365,-0.24414062,-0.15917969,0.92578125,0.0,0.0625,0.09375,0.0,0.0,0.0
1664377751406,-0.24414062,-0.16503906,0.9140625,0.0625,0.1875,0.15625,0.0,0.0,0.0
1664377751407,-0.24414062,-0.16503906,0.9140625,0.0625,0.1875,0.15625,0.0,0.0,0.0
1664377751445,-0.2421875,-0.15917969,0.9316406,0.0,0.0625,0.03125,0.0,0.0,0.0
1664377751448,-0.2421875,-0.15917969,0.9316406,0.0,0.0625,0.03125,0.0,0.0,0.0
1664377751485,-0.24902344,-0.15820312,0.92578125,0.0,0.0625,0.21875,0.0,0.0,0.0
1664377751486,-0.24902344,-0.15820312,0.92578125,0.0,0.0625,0.21875,0.0,0.0,0.0
1664377751525,-0.24707031,-0.15625,0.9355469,0.125,0.125,0.25,0.0,0.0,0.0
1664377751526,-0.24707031,-0.15625,0.9355469,0.125,0.125,0.25,0.0,0.0,0.0
1664377751566,-0.2421875,-0.16210938,0.91796875,0.125,0.0,0.25,0.0,0.0,0.0
1664377751566,-0.2421875,-0.16210938,0.91796875,0.125,0.0,0.25,0.0,0.0,0.0
1664377751606,-0.25097656,-0.16308594,0.92089844,0.0625,0.0625,0.09375,0.0,0.0,0.0
1664377751606,-0.25097656,-0.16308594,0.92089844,0.0625,0.0625,0.09375,0.0,0.0,0.0
1664377751666,-0.24414062,-0.16210938,0.92285156,0.125,-0.125,0.15625,-37.1875,-5.9375,-93.1875
1664377751666,-0.24414062,-0.16210938,0.92285156,0.125,-0.125,0.15625,-37.1875,-5.9375,-93.1875
1664377751685,-0.24316406,-0.16796875,0.92089844,0.0,0.125,0.09375,0.0,0.0,0.0
1664377751685,-0.24316406,-0.16796875,0.92089844,0.0,0.125,0.09375,0.0,0.0,0.0
1664377751726,-0.2421875,-0.16894531,0.9189453,0.3125,-0.25,0.25,0.0,0.0,0.0
1664377751726,-0.2421875,-0.16894531,0.9189453,0.3125,-0.25,0.25,0.0,0.0,0.0
1664377751765,-0.23828125,-0.16210938,0.9160156,-0.0625,-0.0625,0.15625,0.0,0.0,0.0
1664377751767,-0.23828125,-0.16210938,0.9160156,-0.0625,-0.0625,0.15625,0.0,0.0,0.0
1664377751805,-0.24707031,-0.16015625,0.93652344,0.0625,0.21875,0.09375,0.0,0.0,0.0
1664377751805,-0.24707031,-0.16015625,0.93652344,0.0625,0.21875,0.09375,0.0,0.0,0.0
1664377751845,-0.24414062,-0.15820312,0.9316406,-0.5,0.25,0.28125,0.0,0.0,0.0
1664377751845,-0.24414062,-0.15820312,0.9316406,-0.5,0.25,0.28125,0.0,0.0,0.0
1664377751885,-0.24511719,-0.16503906,0.9277344,0.09375,0.1875,0.09375,0.0,0.0,0.0
1664377751886,-0.24511719,-0.16503906,0.9277344,0.09375,0.1875,0.09375,0.0,0.0,0.0
1664377751926,-0.25390625,-0.15820312,0.91796875,-0.03125,-0.0625,0.15625,0.0,0.0,0.0
1664377751926,-0.25390625,-0.15820312,0.91796875,-0.03125,-0.0625,0.15625,0.0,0.0,0.0
1664377751965,-0.24316406,-0.15917969,0.91796875,0.09375,-0.1875,0.09375,0.0,0.0,0.0
1664377751965,-0.24316406,-0.15917969,0.91796875,0.09375,-0.1875,0.09375,0.0,0.0,0.0
1664377752005,-0.24414062,-0.1640625,0.93066406,-0.15625,0.0625,0.15625,0.0,0.0,0.0
1664377752005,-0.24414062,-0.1640625,0.93066406,-0.15625,0.0625,0.15625,0.0,0.0,0.0
1664377752045,-0.24023438,-0.16699219,0.9140625,0.40625,-0.40625,0.09375,0.0,0.0,0.0
1664377752045,-0.24023438,-0.16699219,0.9140625,0.40625,-0.40625,0.09375,0.0,0.0,0.0
1664377752086,-0.2548828,-0.16015625,0.9238281,0.21875,-0.0625,0.03125,0.0,0.0,0.0
1664377752086,-0.2548828,-0.16015625,0.9238281,0.21875,-0.0625,0.03125,0.0,0.0,0.0
1664377752146,-0.24414062,-0.16699219,0.92089844,0.03125,0.125,-0.03125,-37.8125,-7.625,-94.125
1664377752146,-0.24414062,-0.16699219,0.92089844,0.03125,0.125,-0.03125,-37.8125,-7.625,-94.125
1664377752165,-0.2421875,-0.171875,0.9160156,0.03125,-0.125,0.15625,0.0,0.0,0.0
1664377752166,-0.2421875,-0.171875,0.9160156,0.03125,-0.125,0.15625,0.0,0.0,0.0
1664377752206,-0.2421875,-0.15820312,0.9189453,0.03125,0.0625,-0.03125,0.0,0.0,0.0
1664377752206,-0.2421875,-0.15820312,0.9189453,0.03125,0.0625,-0.03125,0.0,0.0,0.0
1664377752246,-0.24609375,-0.16699219,0.9238281,0.03125,-0.0625,-0.03125,0.0,0.0,0.0
1664377752246,-0.24609375,-0.16699219,0.9238281,0.03125,-0.0625,-0.03125,0.0,0.0,0.0
1664377752285,-0.24414062,-0.16113281,0.9267578,0.03125,0.0625,-0.03125,0.0,0.0,0.0
1664377752285,-0.24414062,-0.16113281,0.9267578,0.03125,0.0625,-0.03125,0.0,0.0,0.0
1664377752327,-0.25,-0.15917969,0.91308594,0.09375,-0.0625,-0.03125,0.0,0.0,0.0
1664377752327,-0.25,-0.15917969,0.91308594,0.09375,-0.0625,-0.03125,0.0,0.0,0.0
1664377752365,-0.23730469,-0.15820312,0.9248047,-0.03125,0.0625,-0.09375,0.0,0.0,0.0
1664377752365,-0.23730469,-0.15820312,0.9248047,-0.03125,0.0625,-0.09375,0.0,0.0,0.0
1664377752405,-0.24804688,-0.16113281,0.9248047,-0.03125,-0.0625,0.03125,0.0,0.0,0.0
1664377752405,-0.24804688,-0.16113281,0.9248047,-0.03125,-0.0625,0.03125,0.0,0.0,0.0
1664377752446,-0.23632812,-0.16113281,0.92089844,-0.03125,-0.1875,0.03125,0.0,0.0,0.0
1664377752445,-0.23632812,-0.16113281,0.92089844,-0.03125,-0.1875,0.03125,0.0,0.0,0.0
1664377752485,-0.25390625,-0.15625,0.9199219,0.03125,0.0,-0.09375,0.0,0.0,0.0
1664377752487,-0.25390625,-0.15625,0.9199219,0.03125,0.0,-0.09375,0.0,0.0,0.0
1664377752526,-0.25,-0.16210938,0.92871094,0.09375,-0.125,-0.28125,0.0,0.0,0.0
1664377752526,-0.25,-0.16210938,0.92871094,0.09375,-0.125,-0.28125,0.0,0.0,0.0
1664377752566,-0.25195312,-0.16601562,0.91796875,-0.09375,0.1875,-0.21875,0.0,0.0,0.0
1664377752566,-0.25195312,-0.16601562,0.91796875,-0.09375,0.1875,-0.21875,0.0,0.0,0.0
1664377752605,-0.24511719,-0.16308594,0.9296875,0.09375,-0.28125,-0.28125,0.0,0.0,0.0
1664377752605,-0.24511719,-0.16308594,0.9296875,0.09375,-0.28125,-0.28125,0.0,0.0,0.0
1664377752666,-0.2421875,-0.16210938,0.90722656,-0.1875,-0.0625,-0.34375,-38.25,-5.9375,-92.875
1664377752666,-0.2421875,-0.16210938,0.90722656,-0.1875,-0.0625,-0.34375,-38.25,-5.9375,-92.875
1664377752685,-0.24414062,-0.16601562,0.9267578,0.15625,0.0,-0.40625,0.0,0.0,0.0
1664377752685,-0.24414062,-0.16601562,0.9267578,0.15625,0.0,-0.40625,0.0,0.0,0.0
1664377752727,-0.2421875,-0.16210938,0.9082031,-0.03125,-0.125,-0.34375,0.0,0.0,0.0
1664377752726,-0.2421875,-0.16210938,0.9082031,-0.03125,-0.125,-0.34375,0.0,0.0,0.0
1664377752766,-0.24023438,-0.15332031,0.9082031,0.21875,-0.40625,-0.34375,0.0,0.0,0.0
1664377752765,-0.24023438,-0.15332031,0.9082031,0.21875,-0.40625,-0.34375,0.0,0.0,0.0
1664377752806,-0.24023438,-0.1640625,0.9248047,-0.03125,0.0,-0.15625,0.0,0.0,0.0
1664377752806,-0.24023438,-0.1640625,0.9248047,-0.03125,0.0,-0.15625,0.0,0.0,0.0
1664377752846,-0.25390625,-0.16992188,0.92871094,-0.03125,-0.28125,-0.09375,0.0,0.0,0.0
1664377752846,-0.25390625,-0.16992188,0.92871094,-0.03125,-0.28125,-0.09375,0.0,0.0,0.0
1664377752886,-0.24511719,-0.16796875,0.93066406,-0.15625,0.0,-0.28125,0.0,0.0,0.0
1664377752886,-0.24511719,-0.16796875,0.93066406,-0.15625,0.0,-0.28125,0.0,0.0,0.0
1664377752929,-0.24902344,-0.16210938,0.9121094,0.09375,0.0,-0.28125,0.0,0.0,0.0
1664377752929,-0.24902344,-0.16210938,0.9121094,0.09375,0.0,-0.28125,0.0,0.0,0.0
1664377752966,-0.24121094,-0.15429688,0.93066406,-0.09375,-0.0625,-0.53125,0.0,0.0,0.0
1664377752966,-0.24121094,-0.15429688,0.93066406,-0.09375,-0.0625,-0.53125,0.0,0.0,0.0
1664377753006,-0.24316406,-0.15917969,0.921875,-0.03125,0.0,-0.46875,0.0,0.0,0.0
1664377753009,-0.24316406,-0.15917969,0.921875,-0.03125,0.0,-0.46875,0.0,0.0,0.0
1664377753046,-0.24316406,-0.16210938,0.9189453,-0.03125,-0.1875,-0.40625,0.0,0.0,0.0
1664377753046,-0.24316406,-0.16210938,0.9189453,-0.03125,-0.1875,-0.40625,0.0,0.0,0.0
1664377753086,-0.23632812,-0.1640625,0.9277344,-0.03125,-0.25,-0.46875,0.0,0.0,0.0
1664377753086,-0.23632812,-0.1640625,0.9277344,-0.03125,-0.25,-0.46875,0.0,0.0,0.0
1664377753145,-0.24707031,-0.16894531,0.9189453,0.03125,-0.125,-0.40625,-39.125,-6.5625,-93.375
1664377753145,-0.24707031,-0.16894531,0.9189453,0.03125,-0.125,-0.40625,-39.125,-6.5625,-93.375
1664377753185,-0.23242188,-0.16699219,0.9316406,0.09375,-0.1875,-0.28125,0.0,0.0,0.0
1664377753185,-0.23242188,-0.16699219,0.9316406,0.09375,-0.1875,-0.28125,0.0,0.0,0.0
1664377753206,-0.24023438,-0.16015625,0.91796875,-0.03125,-0.28125,-0.21875,0.0,0.0,0.0
1664377753206,-0.24023438,-0.16015625,0.91796875,-0.03125,-0.28125,-0.21875,0.0,0.0,0.0
1664377753248,-0.24707031,-0.16699219,0.9238281,-0.1875,0.375,-0.21875,0.0,0.0,0.0
1664377753248,-0.24707031,-0.16699219,0.9238281,-0.1875,0.375,-0.21875,0.0,0.0,0.0
1664377753286,-0.23828125,-0.16796875,0.9267578,-0.09375,-0.25,-0.28125,0.0,0.0,0.0
1664377753286,-0.23828125,-0.16796875,0.9267578,-0.09375,-0.25,-0.28125,0.0,0.0,0.0
1664377753486,-0.2421875,-0.16015625,0.92285156,-0.15625,0.1875,-0.46875,0.0,0.0,0.0
1664377753486,-0.2421875,-0.16015625,0.92285156,-0.15625,0.1875,-0.46875,0.0,0.0,0.0
1664377753504,-0.24707031,-0.16503906,0.9277344,-0.03125,-0.125,-0.34375,0.0,0.0,0.0
1664377753505,-0.24707031,-0.16503906,0.9277344,-0.03125,-0.125,-0.34375,0.0,0.0,0.0
1664377753506,-0.23535156,-0.15917969,0.91308594,-0.03125,-0.125,-0.21875,0.0,0.0,0.0
1664377753507,-0.23535156,-0.15917969,0.91308594,-0.03125,-0.125,-0.21875,0.0,0.0,0.0
1664377753508,-0.2529297,-0.16210938,0.921875,-0.09375,-0.125,-0.15625,0.0,0.0,0.0
1664377753509,-0.2529297,-0.16210938,0.921875,-0.09375,-0.125,-0.15625,0.0,0.0,0.0
1664377753510,-0.24902344,-0.15917969,0.92578125,0.03125,-0.125,-0.28125,0.0,0.0,0.0
1664377753510,-0.24902344,-0.15917969,0.92578125,0.03125,-0.125,-0.28125,0.0,0.0,0.0
1664377753526,-0.24023438,-0.1640625,0.9267578,-0.15625,-0.125,-0.15625,0.0,0.0,0.0
1664377753526,-0.24023438,-0.1640625,0.9267578,-0.15625,-0.125,-0.15625,0.0,0.0,0.0
1664377753568,-0.23828125,-0.1640625,0.9238281,0.03125,0.125,-0.34375,0.0,0.0,0.0
1664377753568,-0.23828125,-0.1640625,0.9238281,0.03125,0.125,-0.34375,0.0,0.0,0.0
1664377753606,-0.25097656,-0.16796875,0.9160156,-0.03125,0.0,-0.21875,0.0,0.0,0.0
1664377753607,-0.25097656,-0.16796875,0.9160156,-0.03125,0.0,-0.21875,0.0,0.0,0.0
1664377753666,-0.24511719,-0.16699219,0.9296875,0.03125,0.0625,-0.28125,-39.3125,-5.9375,-93.5
1664377753666,-0.24511719,-0.16699219,0.9296875,0.03125,0.0625,-0.28125,-39.3125,-5.9375,-93.5
1664377753685,-0.2529297,-0.16210938,0.9316406,-0.03125,-0.1875,-0.28125,0.0,0.0,0.0
1664377753685,-0.2529297,-0.16210938,0.9316406,-0.03125,-0.1875,-0.28125,0.0,0.0,0.0
1664377753727,-0.2421875,-0.15917969,0.92871094,0.09375,0.0,-0.28125,0.0,0.0,0.0
1664377753727,-0.2421875,-0.15917969,0.92871094,0.09375,0.0,-0.28125,0.0,0.0,0.0
1664377753766,-0.24414062,-0.1640625,0.91796875,0.09375,-0.125,-0.21875,0.0,0.0,0.0
1664377753766,-0.24414062,-0.1640625,0.91796875,0.09375,-0.125,-0.21875,0.0,0.0,0.0
1664377753805,-0.2421875,-0.15332031,0.9296875,0.03125,0.0,-0.28125,0.0,0.0,0.0
1664377753805,-0.2421875,-0.15332031,0.9296875,0.03125,0.0,-0.28125,0.0,0.0,0.0
1664377753847,-0.25,-0.16992188,0.92578125,0.09375,-0.0625,-0.21875,0.0,0.0,0.0
1664377753846,-0.25,-0.16992188,0.92578125,0.09375,-0.0625,-0.21875,0.0,0.0,0.0
1664377753886,-0.24707031,-0.16113281,0.92285156,-0.09375,-0.25,-0.28125,0.0,0.0,0.0
1664377753887,-0.24707031,-0.16113281,0.92285156,-0.09375,-0.25,-0.28125,0.0,0.0,0.0
1664377753925,-0.23632812,-0.16796875,0.92285156,0.03125,0.125,-0.15625,0.0,0.0,0.0
1664377753925,-0.23632812,-0.16796875,0.92285156,0.03125,0.125,-0.15625,0.0,0.0,0.0
1664377753966,-0.25,-0.16015625,0.9169922,-0.3125,0.1875,-0.09375,0.0,0.0,0.0
1664377753966,-0.25,-0.16015625,0.9169922,-0.3125,0.1875,-0.09375,0.0,0.0,0.0
1664377754006,-0.23828125,-0.15917969,0.9345703,-0.09375,-0.0625,-0.34375,0.0,0.0,0.0
1664377754006,-0.23828125,-0.15917969,0.9345703,-0.09375,-0.0625,-0.34375,0.0,0.0,0.0
1664377754045,-0.24023438,-0.15429688,0.9091797,-0.03125,0.0,-0.21875,0.0,0.0,0.0
1664377754045,-0.24023438,-0.15429688,0.9091797,-0.03125,0.0,-0.21875,0.0,0.0,0.0
1664377754086,-0.24511719,-0.16015625,0.9111328,0.03125,0.0,-0.21875,0.0,0.0,0.0
1664377754086,-0.24511719,-0.16015625,0.9111328,0.03125,0.0,-0.21875,0.0,0.0,0.0
1664377754126,-0.24316406,-0.16894531,0.92871094,0.03125,0.0,-0.03125,-39.0,-5.9375,-92.875
1664377754126,-0.24316406,-0.16894531,0.92871094,0.03125,0.0,-0.03125,-39.0,-5.9375,-92.875
1664377754165,-0.24902344,-0.15917969,0.9267578,0.21875,-0.25,-0.15625,0.0,0.0,0.0
1664377754165,-0.24902344,-0.15917969,0.9267578,0.21875,-0.25,-0.15625,0.0,0.0,0.0
1664377754206,-0.24121094,-0.15625,0.92089844,-0.09375,0.0,-0.09375,0.0,0.0,0.0
1664377754206,-0.24121094,-0.15625,0.92089844,-0.09375,0.0,-0.09375,0.0,0.0,0.0
1664377754246,-0.23925781,-0.16992188,0.92871094,-0.09375,-0.0625,-0.15625,0.0,0.0,0.0
1664377754246,-0.23925781,-0.16992188,0.92871094,-0.09375,-0.0625,-0.15625,0.0,0.0,0.0
1664377754286,-0.24902344,-0.16113281,0.9316406,-0.15625,-0.125,-0.03125,0.0,0.0,0.0
1664377754286,-0.24902344,-0.16113281,0.9316406,-0.15625,-0.125,-0.03125,0.0,0.0,0.0
1664377754326,-0.24023438,-0.16308594,0.92089844,-0.15625,-0.125,-0.09375,0.0,0.0,0.0
1664377754326,-0.24023438,-0.16308594,0.92089844,-0.15625,-0.125,-0.09375,0.0,0.0,0.0
1664377754366,-0.24609375,-0.16601562,0.93652344,-0.03125,0.0,0.09375,0.0,0.0,0.0
1664377754366,-0.24609375,-0.16601562,0.93652344,-0.03125,0.0,0.09375,0.0,0.0,0.0
1664377754405,-0.24804688,-0.15722656,0.93066406,0.09375,0.0625,0.03125,0.0,0.0,0.0
1664377754407,-0.24804688,-0.15722656,0.93066406,0.09375,0.0625,0.03125,0.0,0.0,0.0
1664377754446,-0.24609375,-0.15820312,0.9199219,-0.03125,-0.0625,-0.03125,0.0,0.0,0.0
1664377754446,-0.24609375,-0.15820312,0.9199219,-0.03125,-0.0625,-0.03125,0.0,0.0,0.0
1664377754486,-0.24804688,-0.16308594,0.92871094,0.15625,0.125,0.03125,0.0,0.0,0.0
1664377754486,-0.24804688,-0.16308594,0.92871094,0.15625,0.125,0.03125,0.0,0.0,0.0
1664377754525,-0.23925781,-0.17089844,0.9296875,-0.03125,-0.0625,0.21875,0.0,0.0,0.0
1664377754526,-0.23925781,-0.17089844,0.9296875,-0.03125,-0.0625,0.21875,0.0,0.0,0.0
1664377754565,-0.24804688,-0.16113281,0.9189453,0.03125,0.0625,0.15625,0.0,0.0,0.0
1664377754565,-0.24804688,-0.16113281,0.9189453,0.03125,0.0625,0.15625,0.0,0.0,0.0
1664377754605,-0.23828125,-0.15722656,0.9316406,0.09375,-0.0625,0.09375,0.0,0.0,0.0
1664377754605,-0.23828125,-0.15722656,0.9316406,0.09375,-0.0625,0.09375,0.0,0.0,0.0
1664377754646,-0.2529297,-0.1640625,0.93359375,-0.4375,0.3125,0.34375,-38.875,-6.125,-93.0625
1664377754646,-0.2529297,-0.1640625,0.93359375,-0.4375,0.3125,0.34375,-38.875,-6.125,-93.0625
1664377754686,-0.24316406,-0.16699219,0.92285156,0.03125,0.125,0.09375,0.0,0.0,0.0
1664377754686,-0.24316406,-0.16699219,0.92285156,0.03125,0.125,0.09375,0.0,0.0,0.0
1664377754726,-0.24902344,-0.15625,0.8984375,-0.1875,0.0625,0.09375,0.0,0.0,0.0
1664377754726,-0.24902344,-0.15625,0.8984375,-0.1875,0.0625,0.09375,0.0,0.0,0.0
1664377754766,-0.25,-0.16308594,0.9238281,0.03125,0.0,0.09375,0.0,0.0,0.0
1664377754766,-0.25,-0.16308594,0.9238281,0.03125,0.0,0.09375,0.0,0.0,0.0
1664377754805,-0.25,-0.1640625,0.92089844,0.15625,-0.1875,0.09375,0.0,0.0,0.0
1664377754806,-0.25,-0.1640625,0.92089844,0.15625,-0.1875,0.09375,0.0,0.0,0.0
1664377754846,-0.24121094,-0.16308594,0.92578125,0.46875,-0.34375,-0.03125,0.0,0.0,0.0
1664377754846,-0.24121094,-0.16308594,0.92578125,0.46875,-0.34375,-0.03125,0.0,0.0,0.0
1664377754886,-0.23925781,-0.16308594,0.91503906,0.15625,0.0625,0.09375,0.0,0.0,0.0
1664377754886,-0.23925781,-0.16308594,0.91503906,0.15625,0.0625,0.09375,0.0,0.0,0.0
1664377754925,-0.24414062,-0.16601562,0.9140625,0.09375,-0.125,0.28125,0.0,0.0,0.0
1664377754925,-0.24414062,-0.16601562,0.9140625,0.09375,-0.125,0.28125,0.0,0.0,0.0
1664377754966,-0.24023438,-0.15820312,0.9238281,0.03125,-0.125,0.15625,0.0,0.0,0.0
1664377754966,-0.24023438,-0.15820312,0.9238281,0.03125,-0.125,0.15625,0.0,0.0,0.0
1664377755005,-0.24414062,-0.15917969,0.92285156,0.03125,0.1875,0.15625,0.0,0.0,0.0
1664377755005,-0.24414062,-0.15917969,0.92285156,0.03125,0.1875,0.15625,0.0,0.0,0.0
1664377755046,-0.24414062,-0.16015625,0.9267578,0.21875,-0.0625,0.03125,0.0,0.0,0.0
1664377755045,-0.24414062,-0.16015625,0.9267578,0.21875,-0.0625,0.03125,0.0,0.0,0.0
1664377755085,-0.23535156,-0.15917969,0.9082031,0.28125,-0.1875,0.03125,0.0,0.0,0.0
1664377755085,-0.23535156,-0.15917969,0.9082031,0.28125,-0.1875,0.03125,0.0,0.0,0.0
1664377755126,-0.24511719,-0.16113281,0.92089844,0.03125,-0.0625,0.09375,-39.0,-4.9375,-94.25
1664377755126,-0.24511719,-0.16113281,0.92089844,0.03125,-0.0625,0.09375,-39.0,-4.9375,-94.25
1664377755165,-0.24511719,-0.16210938,0.9189453,0.03125,-0.1875,0.15625,0.0,0.0,0.0
1664377755165,-0.24511719,-0.16210938,0.9189453,0.03125,-0.1875,0.15625,0.0,0.0,0.0
1664377755206,-0.24707031,-0.16894531,0.9316406,0.09375,-0.28125,0.15625,0.0,0.0,0.0
1664377755206,-0.24707031,-0.16894531,0.9316406,0.09375,-0.28125,0.15625,0.0,0.0,0.0
1664377755246,-0.234375,-0.16503906,0.9169922,-0.03125,-0.25,0.03125,0.0,0.0,0.0
1664377755250,-0.234375,-0.16503906,0.9169922,-0.03125,-0.25,0.03125,0.0,0.0,0.0
1664377755285,-0.24902344,-0.16308594,0.9404297,-0.15625,0.5,0.09375,0.0,0.0,0.0
1664377755285,-0.24902344,-0.16308594,0.9404297,-0.15625,0.5,0.09375,0.0,0.0,0.0
1664377755326,-0.24121094,-0.16503906,0.9169922,-0.09375,-0.0625,0.15625,0.0,0.0,0.0
1664377755326,-0.24121094,-0.16503906,0.9169922,-0.09375,-0.0625,0.15625,0.0,0.0,0.0
1664377755365,-0.24902344,-0.14941406,0.9326172,0.03125,0.3125,0.09375,0.0,0.0,0.0
1664377755366,-0.24902344,-0.14941406,0.9326172,0.03125,0.3125,0.09375,0.0,0.0,0.0
1664377755405,-0.24804688,-0.16503906,0.9199219,-0.15625,-0.1875,-0.03125,0.0,0.0,0.0
1664377755405,-0.24804688,-0.16503906,0.9199219,-0.15625,-0.1875,-0.03125,0.0,0.0,0.0
1664377755446,-0.2421875,-0.16113281,0.92871094,0.09375,-0.125,0.09375,0.0,0.0,0.0
1664377755446,-0.2421875,-0.16113281,0.92871094,0.09375,-0.125,0.09375,0.0,0.0,0.0
1664377755486,-0.23925781,-0.16894531,0.9121094,-0.03125,-0.1875,-0.09375,0.0,0.0,0.0
1664377755486,-0.23925781,-0.16894531,0.9121094,-0.03125,-0.1875,-0.09375,0.0,0.0,0.0
1664377755526,-0.24414062,-0.15429688,0.92089844,-0.03125,0.0,-0.15625,0.0,0.0,0.0
1664377755526,-0.24414062,-0.15429688,0.92089844,-0.03125,0.0,-0.15625,0.0,0.0,0.0
1664377755566,-0.25,-0.15527344,0.93066406,0.21875,-0.28125,0.15625,0.0,0.0,0.0
1664377755566,-0.25,-0.15527344,0.93066406,0.21875,-0.28125,0.15625,0.0,0.0,0.0
1664377755605,-0.24316406,-0.16308594,0.9277344,-0.09375,0.125,-0.03125,0.0,0.0,0.0
1664377755606,-0.24316406,-0.16308594,0.9277344,-0.09375,0.125,-0.03125,0.0,0.0,0.0
1664377755647,-0.24511719,-0.15820312,0.9169922,-0.03125,-0.25,0.09375,-39.3125,-4.9375,-94.25
1664377755647,-0.24511719,-0.15820312,0.9169922,-0.03125,-0.25,0.09375,-39.3125,-4.9375,-94.25
1664377755685,-0.24707031,-0.1640625,0.9140625,-0.09375,-0.125,-0.09375,0.0,0.0,0.0
1664377755685,-0.24707031,-0.1640625,0.9140625,-0.09375,-0.125,-0.09375,0.0,0.0,0.0
1664377755726,-0.24511719,-0.15917969,0.921875,0.15625,-0.0625,-0.21875,0.0,0.0,0.0
1664377755726,-0.24511719,-0.15917969,0.921875,0.15625,-0.0625,-0.21875,0.0,0.0,0.0
1664377755769,-0.24804688,-0.15527344,0.9140625,0.0,0.03125,-0.28125,0.0,0.0,0.0
1664377755769,-0.24804688,-0.15527344,0.9140625,0.0,0.03125,-0.28125,0.0,0.0,0.0
1664377755806,-0.2548828,-0.16015625,0.9248047,0.125,-0.34375,-0.34375,0.0,0.0,0.0
1664377755806,-0.2548828,-0.16015625,0.9248047,0.125,-0.34375,-0.34375,0.0,0.0,0.0
1664377755845,-0.25390625,-0.16113281,0.9189453,-0.0625,-0.09375,-0.40625,0.0,0.0,0.0
1664377755845,-0.25390625,-0.16113281,0.9189453,-0.0625,-0.09375,-0.40625,0.0,0.0,0.0
1664377755887,-0.24023438,-0.15136719,0.92578125,0.21875,-0.40625,-0.34375,0.0,0.0,0.0
1664377755887,-0.24023438,-0.15136719,0.92578125,0.21875,-0.40625,-0.34375,0.0,0.0,0.0
1664377755925,-0.24316406,-0.16308594,0.9345703,-0.125,0.21875,-0.40625,0.0,0.0,0.0
1664377755926,-0.24316406,-0.16308594,0.9345703,-0.125,0.21875,-0.40625,0.0,0.0,0.0
1664377755966,-0.24511719,-0.16503906,0.921875,-0.3125,-0.09375,-0.125,0.0,0.0,0.0
1664377755966,-0.24511719,-0.16503906,0.921875,-0.3125,-0.09375,-0.125,0.0,0.0,0.0
1664377756008,-0.24023438,-0.16308594,0.9121094,0.0,0.09375,-0.46875,0.0,0.0,0.0
1664377756008,-0.24023438,-0.16308594,0.9121094,0.0,0.09375,-0.46875,0.0,0.0,0.0
1664377756046,-0.25,-0.1640625,0.93652344,0.0,-0.03125,-0.40625,0.0,0.0,0.0
1664377756046,-0.25,-0.1640625,0.93652344,0.0,-0.03125,-0.40625,0.0,0.0,0.0
1664377756087,-0.24902344,-0.16699219,0.92285156,-0.0625,-0.21875,-0.40625,0.0,0.0,0.0
1664377756086,-0.24902344,-0.16699219,0.92285156,-0.0625,-0.21875,-0.40625,0.0,0.0,0.0
1664377756129,-0.24511719,-0.16113281,0.91503906,-0.1875,-0.09375,-0.28125,-39.75,-6.6875,-94.5625
1664377756127,-0.24511719,-0.16113281,0.91503906,-0.1875,-0.09375,-0.28125,-39.75,-6.6875,-94.5625
1664377756166,-0.23046875,-0.171875,0.91796875,0.15625,-0.15625,-0.59375,0.0,0.0,0.0
1664377756167,-0.23046875,-0.171875,0.91796875,0.15625,-0.15625,-0.59375,0.0,0.0,0.0
1664377756206,-0.24707031,-0.16210938,0.9199219,0.0,-0.15625,-0.40625,0.0,0.0,0.0
1664377756206,-0.24707031,-0.16210938,0.9199219,0.0,-0.15625,-0.40625,0.0,0.0,0.0
1664377756246,-0.24121094,-0.1640625,0.9248047,0.0,-0.03125,-0.34375,0.0,0.0,0.0
1664377756246,-0.24121094,-0.1640625,0.9248047,0.0,-0.03125,-0.34375,0.0,0.0,0.0
1664377756285,-0.24121094,-0.15429688,0.91796875,0.0,0.03125,-0.28125,0.0,0.0,0.0
1664377756285,-0.24121094,-0.15429688,0.91796875,0.0,0.03125,-0.28125,0.0,0.0,0.0
1664377756327,-0.24609375,-0.16113281,0.921875,-0.1875,-0.09375,-0.34375,0.0,0.0,0.0
1664377756328,-0.24609375,-0.16113281,0.921875,-0.1875,-0.09375,-0.34375,0.0,0.0,0.0
1664377756369,-0.24023438,-0.15820312,0.91308594,-0.125,0.03125,-0.46875,0.0,0.0,0.0
1664377756369,-0.24023438,-0.15820312,0.91308594,-0.125,0.03125,-0.46875,0.0,0.0,0.0
1664377756406,-0.25,-0.15625,0.92285156,0.125,-0.28125,-0.34375,0.0,0.0,0.0
1664377756408,-0.25,-0.15625,0.92285156,0.125,-0.28125,-0.34375,0.0,0.0,0.0
1664377756465,-0.23730469,-0.15917969,0.92578125,0.0,0.03125,-0.53125,0.0,0.0,0.0
1664377756465,-0.23730469,-0.15917969,0.92578125,0.0,0.03125,-0.53125,0.0,0.0,0.0
1664377756486,-0.24023438,-0.15527344,0.93359375,0.15625,-0.21875,-0.40625,0.0,0.0,0.0
1664377756486,-0.24023438,-0.15527344,0.93359375,0.15625,-0.21875,-0.40625,0.0,0.0,0.0
1664377756527,-0.2421875,-0.16113281,0.9238281,0.0,0.03125,-0.40625,0.0,0.0,0.0
1664377756527,-0.2421875,-0.16113281,0.9238281,0.0,0.03125,-0.40625,0.0,0.0,0.0
1664377756566,-0.23632812,-0.16308594,0.9189453,-0.0625,-0.15625,-0.34375,0.0,0.0,0.0
1664377756566,-0.23632812,-0.16308594,0.9189453,-0.0625,-0.15625,-0.34375,0.0,0.0,0.0
1664377756607,-0.23730469,-0.16601562,0.92578125,-0.375,0.46875,-0.28125,0.0,0.0,0.0
1664377756607,-0.23730469,-0.16601562,0.92578125,-0.375,0.46875,-0.28125,0.0,0.0,0.0
1664377756646,-0.23339844,-0.16308594,0.9160156,-0.0625,-0.03125,-0.34375,-39.3125,-4.625,-94.5625
1664377756646,-0.23339844,-0.16308594,0.9160156,-0.0625,-0.03125,-0.34375,-39.3125,-4.625,-94.5625
1664377756686,-0.25,-0.15820312,0.9082031,-0.0625,0.21875,-0.28125,0.0,0.0,0.0
1664377756686,-0.25,-0.15820312,0.9082031,-0.0625,0.21875,-0.28125,0.0,0.0,0.0
1664377756726,-0.24804688,-0.15429688,0.92285156,-0.0625,-0.15625,-0.53125,0.0,0.0,0.0
1664377756728,-0.24804688,-0.15429688,0.92285156,-0.0625,-0.15625,-0.53125,0.0,0.0,0.0
1664377756766,-0.2529297,-0.16503906,0.9355469,-0.1875,0.21875,-0.34375,0.0,0.0,0.0
1664377756766,-0.2529297,-0.16503906,0.9355469,-0.1875,0.21875,-0.34375,0.0,0.0,0.0
1664377756805,-0.24707031,-0.16113281,0.9140625,0.0625,-0.34375,-0.34375,0.0,0.0,0.0
1664377756806,-0.24707031,-0.16113281,0.9140625,0.0625,-0.34375,-0.34375,0.0,0.0,0.0
1664377756846,-0.24511719,-0.15917969,0.9296875,0.0,-0.09375,-0.46875,0.0,0.0,0.0
1664377756846,-0.24511719,-0.15917969,0.9296875,0.0,-0.09375,-0.46875,0.0,0.0,0.0
1664377756886,-0.24121094,-0.16308594,0.9199219,-0.125,0.15625,-0.25,0.0,0.0,0.0
1664377756886,-0.24121094,-0.16308594,0.9199219,-0.125,0.15625,-0.25,0.0,0.0,0.0
1664377756927,-0.2421875,-0.15625,0.9248047,-0.0625,-0.03125,-0.34375,0.0,0.0,0.0
1664377756925,-0.2421875,-0.15625,0.9248047,-0.0625,-0.03125,-0.34375,0.0,0.0,0.0
1664377756968,-0.24023438,-0.16503906,0.9189453,-0.0625,-0.09375,-0.25,0.0,0.0,0.0
1664377756968,-0.24023438,-0.16503906,0.9189453,-0.0625,-0.09375,-0.25,0.0,0.0,0.0
1664377757009,-0.24316406,-0.16601562,0.9199219,0.0,-0.03125,-0.25,0.0,0.0,0.0
1664377757009,-0.24316406,-0.16601562,0.9199219,0.0,-0.03125,-0.25,0.0,0.0,0.0
1664377757046,-0.24804688,-0.16601562,0.9140625,0.125,0.03125,-0.25,0.0,0.0,0.0
1664377757046,-0.24804688,-0.16601562,0.9140625,0.125,0.03125,-0.25,0.0,0.0,0.0
1664377757086,-0.25683594,-0.16113281,0.921875,0.125,-0.09375,-0.40625,0.0,0.0,0.0
1664377757086,-0.25683594,-0.16113281,0.921875,0.125,-0.09375,-0.40625,0.0,0.0,0.0
1664377757125,-0.2421875,-0.16113281,0.92578125,-0.0625,-0.03125,-0.46875,-39.875,-6.5625,-94.375
1664377757126,-0.2421875,-0.16113281,0.92578125,-0.0625,-0.03125,-0.46875,-39.875,-6.5625,-94.375
1664377757166,-0.24707031,-0.16210938,0.9394531,0.125,0.03125,-0.59375,0.0,0.0,0.0
1664377757165,-0.24707031,-0.16210938,0.9394531,0.125,0.03125,-0.59375,0.0,0.0,0.0
1664377757206,-0.24414062,-0.15917969,0.91503906,-0.3125,-0.15625,-0.25,0.0,0.0,0.0
1664377757206,-0.24414062,-0.15917969,0.91503906,-0.3125,-0.15625,-0.25,0.0,0.0,0.0
1664377757245,-0.24316406,-0.15917969,0.921875,0.15625,-0.03125,-0.28125,0.0,0.0,0.0
1664377757245,-0.24316406,-0.15917969,0.921875,0.15625,-0.03125,-0.28125,0.0,0.0,0.0
1664377757286,-0.24316406,-0.16113281,0.9248047,-0.375,0.28125,-0.125,0.0,0.0,0.0
1664377757288,-0.24316406,-0.16113281,0.9248047,-0.375,0.28125,-0.125,0.0,0.0,0.0
1664377757326,-0.24316406,-0.15429688,0.9140625,-0.0625,-0.03125,-0.34375,0.0,0.0,0.0
1664377757327,-0.24316406,-0.15429688,0.9140625,-0.0625,-0.03125,-0.34375,0.0,0.0,0.0
1664377757366,-0.24414062,-0.15722656,0.91503906,-0.0625,0.09375,-0.34375,0.0,0.0,0.0
1664377757366,-0.24414062,-0.15722656,0.91503906,-0.0625,0.09375,-0.34375,0.0,0.0,0.0
1664377757405,-0.2421875,-0.16308594,0.9248047,-0.0625,-0.09375,-0.46875,0.0,0.0,0.0
1664377757408,-0.2421875,-0.16308594,0.9248047,-0.0625,-0.09375,-0.46875,0.0,0.0,0.0
1664377757446,-0.24609375,-0.16796875,0.92089844,-0.0625,-0.15625,-0.40625,0.0,0.0,0.0
1664377757446,-0.24609375,-0.16796875,0.92089844,-0.0625,-0.15625,-0.40625,0.0,0.0,0.0
1664377757485,-0.23828125,-0.16503906,0.9267578,-0.0625,-0.28125,-0.1875,0.0,0.0,0.0
1664377757485,-0.23828125,-0.16503906,0.9267578,-0.0625,-0.28125,-0.1875,0.0,0.0,0.0
1664377757526,-0.25,-0.16699219,0.91796875,0.0,0.09375,-0.28125,0.0,0.0,0.0
1664377757526,-0.25,-0.16699219,0.91796875,0.0,0.09375,-0.28125,0.0,0.0,0.0
1664377757566,-0.2421875,-0.1640625,0.92871094,-0.1875,0.09375,-0.1875,0.0,0.0,0.0
1664377757566,-0.2421875,-0.1640625,0.92871094,-0.1875,0.09375,-0.1875,0.0,0.0,0.0
1664377757605,-0.25195312,-0.17089844,0.9267578,-0.3125,-0.09375,-0.1875,0.0,0.0,0.0
1664377757605,-0.25195312,-0.17089844,0.9267578,-0.3125,-0.09375,-0.1875,0.0,0.0,0.0
1664377757646,-0.25,-0.17382812,0.91796875,-0.0625,-0.09375,-0.1875,-39.125,-5.8125,-94.125
1664377757646,-0.25,-0.17382812,0.91796875,-0.0625,-0.09375,-0.1875,-39.125,-5.8125,-94.125
1664377757685,-0.24511719,-0.16503906,0.9277344,-0.125,-0.03125,-0.125,0.0,0.0,0.0
1664377757685,-0.24511719,-0.16503906,0.9277344,-0.125,-0.03125,-0.125,0.0,0.0,0.0
1664377757726,-0.24707031,-0.16992188,0.92285156,-0.0625,-0.15625,-0.125,0.0,0.0,0.0
1664377757726,-0.24707031,-0.16992188,0.92285156,-0.0625,-0.15625,-0.125,0.0,0.0,0.0
1664377757766,-0.24316406,-0.15722656,0.9267578,-0.0625,-0.09375,0.0,0.0,0.0,0.0
1664377757766,-0.24316406,-0.15722656,0.9267578,-0.0625,-0.09375,0.0,0.0,0.0,0.0
1664377757806,-0.24804688,-0.16113281,0.9199219,0.0,-0.09375,-0.125,0.0,0.0,0.0
1664377757806,-0.24804688,-0.16113281,0.9199219,0.0,-0.09375,-0.125,0.0,0.0,0.0
1664377757845,-0.24707031,-0.16113281,0.9140625,0.0,0.15625,-0.0625,0.0,0.0,0.0
1664377757846,-0.24707031,-0.16113281,0.9140625,0.0,0.15625,-0.0625,0.0,0.0,0.0
1664377757886,-0.24414062,-0.15722656,0.9316406,-0.125,0.03125,0.0,0.0,0.0,0.0
1664377757886,-0.24414062,-0.15722656,0.9316406,-0.125,0.03125,0.0,0.0,0.0,0.0
1664377757926,-0.24023438,-0.15820312,0.921875,0.0625,-0.15625,0.125,0.0,0.0,0.0
1664377757927,-0.24023438,-0.15820312,0.921875,0.0625,-0.15625,0.125,0.0,0.0,0.0
1664377757966,-0.25195312,-0.16308594,0.9091797,-0.5,0.53125,0.1875,0.0,0.0,0.0
1664377757968,-0.25195312,-0.16308594,0.9091797,-0.5,0.53125,0.1875,0.0,0.0,0.0
1664377758006,-0.2421875,-0.1640625,0.91503906,0.0,0.09375,-0.0625,0.0,0.0,0.0
1664377758006,-0.2421875,-0.1640625,0.91503906,0.0,0.09375,-0.0625,0.0,0.0,0.0
1664377758045,-0.2421875,-0.15820312,0.91308594,0.0,0.09375,0.0625,0.0,0.0,0.0
1664377758045,-0.2421875,-0.15820312,0.91308594,0.0,0.09375,0.0625,0.0,0.0,0.0
1664377758106,-0.24023438,-0.17675781,0.9189453,0.0625,-0.09375,0.125,0.0,0.0,0.0
1664377758106,-0.24023438,-0.17675781,0.9189453,0.0625,-0.09375,0.125,0.0,0.0,0.0
1664377758125,-0.25390625,-0.16210938,0.93359375,0.0,-0.09375,0.25,-37.9375,-5.1875,-94.25
1664377758125,-0.25390625,-0.16210938,0.93359375,0.0,-0.09375,0.25,-37.9375,-5.1875,-94.25
1664377758166,-0.24902344,-0.1640625,0.9482422,0.21875,-0.21875,0.0625,0.0,0.0,0.0
1664377758166,-0.24902344,-0.1640625,0.9482422,0.21875,-0.21875,0.0625,0.0,0.0,0.0
1664377758226,-0.24316406,-0.16699219,0.92871094,0.15625,0.21875,0.0625,0.0,0.0,0.0
1664377758226,-0.24316406,-0.16699219,0.92871094,0.15625,0.21875,0.0625,0.0,0.0,0.0
1664377758246,-0.24511719,-0.15722656,0.91796875,0.28125,0.09375,0.0625,0.0,0.0,0.0
1664377758248,-0.24511719,-0.15722656,0.91796875,0.28125,0.09375,0.0625,0.0,0.0,0.0
1664377758286,-0.24121094,-0.16796875,0.9248047,0.0,-0.03125,0.125,0.0,0.0,0.0
1664377758286,-0.24121094,-0.16796875,0.9248047,0.0,-0.03125,0.125,0.0,0.0,0.0
1664377758347,-0.24804688,-0.16503906,0.93847656,0.15625,0.03125,0.125,0.0,0.0,0.0
1664377758347,-0.24804688,-0.16503906,0.93847656,0.15625,0.03125,0.125,0.0,0.0,0.0
1664377758365,-0.24804688,-0.15625,0.9160156,0.125,-0.03125,0.0625,0.0,0.0,0.0
1664377758366,-0.24804688,-0.15625,0.9160156,0.125,-0.03125,0.0625,0.0,0.0,0.0
1664377758406,-0.24414062,-0.15820312,0.9267578,0.0625,-0.03125,-0.0625,0.0,0.0,0.0
1664377758406,-0.24414062,-0.15820312,0.9267578,0.0625,-0.03125,-0.0625,0.0,0.0,0.0
1664377758446,-0.23828125,-0.16503906,0.921875,0.28125,-0.09375,0.0,0.0,0.0,0.0
1664377758446,-0.23828125,-0.16503906,0.921875,0.28125,-0.09375,0.0,0.0,0.0,0.0
1664377758485,-0.25,-0.1640625,0.91796875,0.21875,-0.03125,0.0,0.0,0.0,0.0
1664377758486,-0.25,-0.1640625,0.91796875,0.21875,-0.03125,0.0,0.0,0.0,0.0
1664377758527,-0.24707031,-0.15136719,0.9199219,-0.0625,-0.15625,-0.125,0.0,0.0,0.0
1664377758527,-0.24707031,-0.15136719,0.9199219,-0.0625,-0.15625,-0.125,0.0,0.0,0.0
1664377758568,-0.2421875,-0.16113281,0.9160156,0.0,-0.15625,0.125,0.0,0.0,0.0
1664377758567,-0.2421875,-0.16113281,0.9160156,0.0,-0.15625,0.125,0.0,0.0,0.0
1664377758605,-0.24121094,-0.15820312,0.92089844,0.0625,-0.28125,-0.0625,0.0,0.0,0.0
1664377758606,-0.24121094,-0.15820312,0.92089844,0.0625,-0.28125,-0.0625,0.0,0.0,0.0
1664377758647,-0.2548828,-0.1640625,0.91796875,-0.125,0.59375,0.1875,-38.125,-5.5,-94.375
1664377758647,-0.2548828,-0.1640625,0.91796875,-0.125,0.59375,0.1875,-38.125,-5.5,-94.375
1664377758686,-0.24511719,-0.16601562,0.9345703,0.0,-0.21875,0.0625,0.0,0.0,0.0
1664377758685,-0.24511719,-0.16601562,0.9345703,0.0,-0.21875,0.0625,0.0,0.0,0.0
1664377758726,-0.24121094,-0.16113281,0.9248047,-0.25,0.21875,0.125,0.0,0.0,0.0
1664377758725,-0.24121094,-0.16113281,0.9248047,-0.25,0.21875,0.125,0.0,0.0,0.0
1664377758767,-0.24804688,-0.16308594,0.9199219,0.0625,-0.15625,-0.125,0.0,0.0,0.0
1664377758767,-0.24804688,-0.16308594,0.9199219,0.0625,-0.15625,-0.125,0.0,0.0,0.0
1664377758807,-0.24023438,-0.16308594,0.92871094,-0.0625,0.09375,-0.0625,0.0,0.0,0.0
1664377758807,-0.24023438,-0.16308594,0.92871094,-0.0625,0.09375,-0.0625,0.0,0.0,0.0
1664377758845,-0.24511719,-0.15917969,0.9189453,0.125,-0.34375,0.0625,0.0,0.0,0.0
1664377758845,-0.24511719,-0.15917969,0.9189453,0.125,-0.34375,0.0625,0.0,0.0,0.0
1664377758886,-0.24902344,-0.15722656,0.9296875,0.0,-0.03125,0.0,0.0,0.0,0.0
1664377758886,-0.24902344,-0.15722656,0.9296875,0.0,-0.03125,0.0,0.0,0.0,0.0
1664377758927,-0.24023438,-0.16113281,0.9267578,-0.125,-0.03125,-0.125,0.0,0.0,0.0
1664377758926,-0.24023438,-0.16113281,0.9267578,-0.125,-0.03125,-0.125,0.0,0.0,0.0
1664377758965,-0.23730469,-0.15820312,0.9277344,-0.125,0.09375,-0.28125,0.0,0.0,0.0
1664377758965,-0.23730469,-0.15820312,0.9277344,-0.125,0.09375,-0.28125,0.0,0.0,0.0
1664377759006,-0.2421875,-0.16503906,0.92285156,0.125,-0.15625,-0.25,0.0,0.0,0.0
1664377759006,-0.2421875,-0.16503906,0.92285156,0.125,-0.15625,-0.25,0.0,0.0,0.0
1664377759046,-0.23828125,-0.1640625,0.91503906,-0.125,-0.03125,-0.25,0.0,0.0,0.0
1664377759046,-0.23828125,-0.1640625,0.91503906,-0.125,-0.03125,-0.25,0.0,0.0,0.0
1664377759086,-0.24902344,-0.16308594,0.92089844,-0.125,-0.21875,-0.25,0.0,0.0,0.0
1664377759086,-0.24902344,-0.16308594,0.92089844,-0.125,-0.21875,-0.25,0.0,0.0,0.0
1664377759126,-0.24902344,-0.16503906,0.9238281,-0.1875,-0.03125,-0.25,-40.1875,-5.5,-93.0625
1664377759126,-0.24902344,-0.16503906,0.9238281,-0.1875,-0.03125,-0.25,-40.1875,-5.5,-93.0625
1664377759166,-0.24121094,-0.1640625,0.92089844,-0.0625,-0.15625,-0.53125,0.0,0.0,0.0
1664377759166,-0.24121094,-0.1640625,0.92089844,-0.0625,-0.15625,-0.53125,0.0,0.0,0.0
1664377759206,-0.24511719,-0.15527344,0.9199219,0.0,-0.15625,-0.34375,0.0,0.0,0.0
1664377759208,-0.24511719,-0.15527344,0.9199219,0.0,-0.15625,-0.34375,0.0,0.0,0.0
1664377759246,-0.25,-0.1640625,0.92285156,0.0,-0.09375,-0.28125,0.0,0.0,0.0
1664377759246,-0.25,-0.1640625,0.92285156,0.0,-0.09375,-0.28125,0.0,0.0,0.0
1664377759287,-0.24707031,-0.1640625,0.9248047,-0.4375,0.21875,-0.34375,0.0,0.0,0.0
1664377759287,-0.24707031,-0.1640625,0.9248047,-0.4375,0.21875,-0.34375,0.0,0.0,0.0
1664377759326,-0.24511719,-0.15820312,0.92285156,-0.25,-0.34375,-0.34375,0.0,0.0,0.0
1664377759326,-0.24511719,-0.15820312,0.92285156,-0.25,-0.34375,-0.34375,0.0,0.0,0.0
1664377759366,-0.23730469,-0.15820312,0.91308594,-0.0625,0.21875,-0.53125,0.0,0.0,0.0
1664377759366,-0.23730469,-0.15820312,0.91308594,-0.0625,0.21875,-0.53125,0.0,0.0,0.0
1664377759406,-0.25195312,-0.15429688,0.9199219,-0.125,-0.09375,-0.53125,0.0,0.0,0.0
1664377759406,-0.25195312,-0.15429688,0.9199219,-0.125,-0.09375,-0.53125,0.0,0.0,0.0
1664377759446,-0.24902344,-0.16308594,0.9394531,0.0,0.09375,-0.46875,0.0,0.0,0.0
1664377759446,-0.24902344,-0.16308594,0.9394531,0.0,0.09375,-0.46875,0.0,0.0,0.0
1664377759487,-0.24804688,-0.15722656,0.9169922,-0.0625,-0.15625,-0.28125,0.0,0.0,0.0
1664377759489,-0.24804688,-0.15722656,0.9169922,-0.0625,-0.15625,-0.28125,0.0,0.0,0.0
1664377759526,-0.24414062,-0.15820312,0.92578125,0.0,-0.03125,-0.59375,0.0,0.0,0.0
1664377759526,-0.24414062,-0.15820312,0.92578125,0.0,-0.03125,-0.59375,0.0,0.0,0.0
1664377759566,-0.25,-0.15039062,0.9238281,0.0,-0.28125,-0.40625,0.0,0.0,0.0
1664377759566,-0.25,-0.15039062,0.9238281,0.0,-0.28125,-0.40625,0.0,0.0,0.0
1664377759606,-0.2421875,-0.15527344,0.92578125,-0.3125,0.21875,-0.40625,0.0,0.0,0.0
1664377759606,-0.2421875,-0.15527344,0.92578125,-0.3125,0.21875,-0.40625,0.0,0.0,0.0
1664377759646,-0.2421875,-0.1640625,0.92578125,-0.0625,-0.15625,-0.40625,-38.25,-5.1875,-93.9375
1664377759646,-0.2421875,-0.1640625,0.92578125,-0.0625,-0.15625,-0.40625,-38.25,-5.1875,-93.9375
1664377759686,-0.23730469,-0.16503906,0.91015625,-0.09375,0.125,-0.21875,0.0,0.0,0.0
1664377759686,-0.23730469,-0.16503906,0.91015625,-0.09375,0.125,-0.21875,0.0,0.0,0.0
1664377759728,-0.24609375,-0.16113281,0.92578125,-0.03125,-0.125,-0.09375,0.0,0.0,0.0
1664377759728,-0.24609375,-0.16113281,0.92578125,-0.03125,-0.125,-0.09375,0.0,0.0,0.0
1664377759766,-0.24609375,-0.16601562,0.9238281,0.09375,-0.0625,-0.21875,0.0,0.0,0.0
1664377759766,-0.24609375,-0.16601562,0.9238281,0.09375,-0.0625,-0.21875,0.0,0.0,0.0
1664377759805,-0.23242188,-0.16113281,0.92285156,-0.03125,0.0,-0.40625,0.0,0.0,0.0
1664377759805,-0.23242188,-0.16113281,0.92285156,-0.03125,0.0,-0.40625,0.0,0.0,0.0
1664377759847,-0.24414062,-0.16015625,0.9160156,-0.03125,-0.125,-0.21875,0.0,0.0,0.0
1664377759847,-0.24414062,-0.16015625,0.9160156,-0.03125,-0.125,-0.21875,0.0,0.0,0.0
1664377759886,-0.24609375,-0.16210938,0.92285156,0.03125,0.125,-0.28125,0.0,0.0,0.0
1664377759886,-0.24609375,-0.16210938,0.92285156,0.03125,0.125,-0.28125,0.0,0.0,0.0
1664377759926,-0.2421875,-0.16015625,0.9121094,-0.03125,-0.0625,-0.15625,0.0,0.0,0.0
1664377759926,-0.2421875,-0.16015625,0.9121094,-0.03125,-0.0625,-0.15625,0.0,0.0,0.0
1664377759967,-0.25,-0.17285156,0.93359375,-0.5,0.5,-0.03125,0.0,0.0,0.0
1664377759967,-0.25,-0.17285156,0.93359375,-0.5,0.5,-0.03125,0.0,0.0,0.0
1664377760005,-0.24316406,-0.16113281,0.9199219,-0.03125,-0.125,-0.21875,0.0,0.0,0.0
1664377760005,-0.24316406,-0.16113281,0.9199219,-0.03125,-0.125,-0.21875,0.0,0.0,0.0
1664377760048,-0.24023438,-0.16601562,0.9326172,0.09375,0.6875,-0.15625,0.0,0.0,0.0
1664377760048,-0.24023438,-0.16601562,0.9326172,0.09375,0.6875,-0.15625,0.0,0.0,0.0
1664377760086,-0.2421875,-0.16113281,0.9326172,0.15625,-0.4375,-0.34375,0.0,0.0,0.0
1664377760088,-0.2421875,-0.16113281,0.9326172,0.15625,-0.4375,-0.34375,0.0,0.0,0.0
1664377760126,-0.24023438,-0.16308594,0.9277344,-0.21875,0.0625,-0.15625,-39.3125,-5.6875,-94.25
1664377760126,-0.24023438,-0.16308594,0.9277344,-0.21875,0.0625,-0.15625,-39.3125,-5.6875,-94.25
1664377760165,-0.24804688,-0.16796875,0.921875,0.15625,-0.25,-0.03125,0.0,0.0,0.0
1664377760165,-0.24804688,-0.16796875,0.921875,0.15625,-0.25,-0.03125,0.0,0.0,0.0
1664377760206,-0.24414062,-0.16113281,0.921875,0.03125,-0.1875,-0.03125,0.0,0.0,0.0
1664377760206,-0.24414062,-0.16113281,0.921875,0.03125,-0.1875,-0.03125,0.0,0.0,0.0
1664377760246,-0.234375,-0.16210938,0.9140625,-0.03125,0.0,-0.09375,0.0,0.0,0.0
1664377760246,-0.234375,-0.16210938,0.9140625,-0.03125,0.0,-0.09375,0.0,0.0,0.0
1664377760286,-0.24414062,-0.17089844,0.92871094,-0.03125,-0.0625,-0.03125,0.0,0.0,0.0
1664377760286,-0.24414062,-0.17089844,0.92871094,-0.03125,-0.0625,-0.03125,0.0,0.0,0.0
1664377760326,-0.24902344,-0.16894531,0.9277344,0.03125,0.0625,-0.03125,0.0,0.0,0.0
1664377760326,-0.24902344,-0.16894531,0.9277344,0.03125,0.0625,-0.03125,0.0,0.0,0.0
1664377760367,-0.24707031,-0.16992188,0.9238281,-0.09375,0.0,-0.09375,0.0,0.0,0.0
1664377760367,-0.24707031,-0.16992188,0.9238281,-0.09375,0.0,-0.09375,0.0,0.0,0.0
1664377760406,-0.24804688,-0.15429688,0.92285156,0.03125,0.0,-0.15625,0.0,0.0,0.0
1664377760408,-0.24804688,-0.15429688,0.92285156,0.03125,0.0,-0.15625,0.0,0.0,0.0
1664377760445,-0.24023438,-0.17285156,0.92578125,0.03125,-0.0625,-0.09375,0.0,0.0,0.0
1664377760445,-0.24023438,-0.17285156,0.92578125,0.03125,-0.0625,-0.09375,0.0,0.0,0.0
1664377760486,-0.24316406,-0.16015625,0.9160156,0.09375,0.125,-0.03125,0.0,0.0,0.0
1664377760486,-0.24316406,-0.16015625,0.9160156,0.09375,0.125,-0.03125,0.0,0.0,0.0
1664377760525,-0.24902344,-0.17089844,0.9111328,-0.03125,-0.1875,0.03125,0.0,0.0,0.0
1664377760527,-0.24902344,-0.17089844,0.9111328,-0.03125,-0.1875,0.03125,0.0,0.0,0.0
1664377760566,-0.2421875,-0.16503906,0.93066406,-0.03125,-0.0625,0.15625,0.0,0.0,0.0
1664377760566,-0.2421875,-0.16503906,0.93066406,-0.03125,-0.0625,0.15625,0.0,0.0,0.0
1664377760607,-0.23828125,-0.16113281,0.92578125,0.09375,0.0625,0.03125,0.0,0.0,0.0
1664377760606,-0.23828125,-0.16113281,0.92578125,0.09375,0.0625,0.03125,0.0,0.0,0.0
1664377760646,-0.25195312,-0.16210938,0.9277344,-0.375,0.3125,0.21875,-39.3125,-6.6875,-94.5625
1664377760646,-0.25195312,-0.16210938,0.9277344,-0.375,0.3125,0.21875,-39.3125,-6.6875,-94.5625
1664377760686,-0.24121094,-0.16601562,0.92578125,-0.03125,0.0,0.09375,0.0,0.0,0.0
1664377760686,-0.24121094,-0.16601562,0.92578125,-0.03125,0.0,0.09375,0.0,0.0,0.0
1664377760726,-0.24609375,-0.16894531,0.9248047,-0.09375,0.0625,0.15625,0.0,0.0,0.0
1664377760728,-0.24609375,-0.16894531,0.9248047,-0.09375,0.0625,0.15625,0.0,0.0,0.0
1664377760766,-0.24902344,-0.1640625,0.9111328,0.03125,0.125,0.09375,0.0,0.0,0.0
1664377760766,-0.24902344,-0.1640625,0.9111328,0.03125,0.125,0.09375,0.0,0.0,0.0
1664377760805,-0.2421875,-0.16601562,0.93359375,-0.15625,0.125,0.34375,0.0,0.0,0.0
1664377760806,-0.2421875,-0.16601562,0.93359375,-0.15625,0.125,0.34375,0.0,0.0,0.0
1664377760845,-0.24902344,-0.16308594,0.93066406,0.15625,-0.1875,0.15625,0.0,0.0,0.0
1664377760845,-0.24902344,-0.16308594,0.93066406,0.15625,-0.1875,0.15625,0.0,0.0,0.0
1664377760886,-0.23632812,-0.16015625,0.94140625,-0.03125,0.0,0.28125,0.0,0.0,0.0
1664377760886,-0.23632812,-0.16015625,0.94140625,-0.03125,0.0,0.28125,0.0,0.0,0.0
1664377760925,-0.24511719,-0.16210938,0.9277344,0.03125,0.25,0.15625,0.0,0.0,0.0
1664377760925,-0.24511719,-0.16210938,0.9277344,0.03125,0.25,0.15625,0.0,0.0,0.0
1664377760965,-0.23632812,-0.16210938,0.9248047,0.03125,0.0625,0.34375,0.0,0.0,0.0
1664377760965,-0.23632812,-0.16210938,0.9248047,0.03125,0.0625,0.34375,0.0,0.0,0.0
1664377761005,-0.24316406,-0.16113281,0.9248047,-0.03125,-0.125,0.40625,0.0,0.0,0.0
1664377761005,-0.24316406,-0.16113281,0.9248047,-0.03125,-0.125,0.40625,0.0,0.0,0.0
1664377761046,-0.24023438,-0.16113281,0.92871094,0.03125,0.1875,0.46875,0.0,0.0,0.0
1664377761046,-0.24023438,-0.16113281,0.92871094,0.03125,0.1875,0.46875,0.0,0.0,0.0
1664377761086,-0.2529297,-0.15527344,0.91796875,0.21875,0.0625,0.21875,0.0,0.0,0.0
1664377761087,-0.2529297,-0.15527344,0.91796875,0.21875,0.0625,0.21875,0.0,0.0,0.0
1664377761126,-0.24511719,-0.16601562,0.9189453,0.21875,-0.0625,0.21875,-39.3125,-6.4375,-94.25
1664377761126,-0.24511719,-0.16601562,0.9189453,0.21875,-0.0625,0.21875,-39.3125,-6.4375,-94.25
1664377761166,-0.24902344,-0.15820312,0.92285156,0.15625,0.0,0.21875,0.0,0.0,0.0
1664377761166,-0.24902344,-0.15820312,0.92285156,0.15625,0.0,0.21875,0.0,0.0,0.0
1664377761206,-0.24023438,-0.1640625,0.9345703,0.09375,0.0,0.21875,0.0,0.0,0.0
1664377761206,-0.24023438,-0.1640625,0.9345703,0.09375,0.0,0.21875,0.0,0.0,0.0
1664377761246,-0.24023438,-0.15722656,0.9199219,0.09375,0.0625,0.28125,0.0,0.0,0.0
1664377761249,-0.24023438,-0.15722656,0.9199219,0.09375,0.0625,0.28125,0.0,0.0,0.0
1664377761287,-0.24414062,-0.15429688,0.91503906,0.21875,0.0625,0.15625,0.0,0.0,0.0
1664377761288,-0.24414062,-0.15429688,0.91503906,0.21875,0.0625,0.15625,0.0,0.0,0.0
1664377761326,-0.24023438,-0.15625,0.93359375,-0.28125,0.1875,0.46875,0.0,0.0,0.0
1664377761326,-0.24023438,-0.15625,0.93359375,-0.28125,0.1875,0.46875,0.0,0.0,0.0
1664377761365,-0.24414062,-0.15625,0.92578125,-0.03125,-0.0625,0.28125,0.0,0.0,0.0
1664377761366,-0.24414062,-0.15625,0.92578125,-0.03125,-0.0625,0.28125,0.0,0.0,0.0
1664377761406,-0.24414062,-0.16015625,0.90722656,-0.09375,0.25,0.21875,0.0,0.0,0.0
1664377761406,-0.24414062,-0.16015625,0.90722656,-0.09375,0.25,0.21875,0.0,0.0,0.0
1664377761445,-0.24023438,-0.16113281,0.92871094,0.21875,-0.1875,0.21875,0.0,0.0,0.0
1664377761445,-0.24023438,-0.16113281,0.92871094,0.21875,-0.1875,0.21875,0.0,0.0,0.0
1664377761486,-0.2421875,-0.16210938,0.91796875,-0.09375,-0.0625,0.40625,0.0,0.0,0.0
1664377761486,-0.2421875,-0.16210938,0.91796875,-0.09375,-0.0625,0.40625,0.0,0.0,0.0
1664377761526,-0.234375,-0.1640625,0.92578125,0.28125,-0.3125,0.28125,0.0,0.0,0.0
1664377761526,-0.234375,-0.1640625,0.92578125,0.28125,-0.3125,0.28125,0.0,0.0,0.0
1664377761587,-0.24804688,-0.15722656,0.92285156,0.28125,0.0625,0.28125,0.0,0.0,0.0
1664377761587,-0.24804688,-0.15722656,0.92285156,0.28125,0.0625,0.28125,0.0,0.0,0.0
1664377761605,-0.24316406,-0.16210938,0.9160156,0.03125,0.0625,0.15625,0.0,0.0,0.0
1664377761606,-0.24316406,-0.16210938,0.9160156,0.03125,0.0625,0.15625,0.0,0.0,0.0
1664377761646,-0.24414062,-0.16796875,0.9248047,-0.15625,-0.1875,0.15625,-38.25,-5.1875,-92.875
1664377761647,-0.24414062,-0.16796875,0.9248047,-0.15625,-0.1875,0.15625,-38.25,-5.1875,-92.875
1664377761687,-0.24316406,-0.15429688,0.92578125,-0.03125,-0.0625,0.46875,0.0,0.0,0.0
1664377761687,-0.24316406,-0.15429688,0.92578125,-0.03125,-0.0625,0.46875,0.0,0.0,0.0
1664377761726,-0.24023438,-0.16308594,0.9160156,-0.09375,0.125,0.28125,0.0,0.0,0.0
1664377761726,-0.24023438,-0.16308594,0.9160156,-0.09375,0.125,0.28125,0.0,0.0,0.0
1664377761767,-0.25097656,-0.15625,0.9140625,-0.03125,-0.0625,0.09375,0.0,0.0,0.0
1664377761767,-0.25097656,-0.15625,0.9140625,-0.03125,-0.0625,0.09375,0.0,0.0,0.0
1664377761806,-0.24316406,-0.16210938,0.91308594,0.15625,-0.25,0.09375,0.0,0.0,0.0
1664377761806,-0.24316406,-0.16210938,0.91308594,0.15625,-0.25,0.09375,0.0,0.0,0.0
1664377761846,-0.24707031,-0.16210938,0.9248047,-0.03125,-0.1875,-0.03125,0.0,0.0,0.0
1664377761846,-0.24707031,-0.16210938,0.9248047,-0.03125,-0.1875,-0.03125,0.0,0.0,0.0
1664377761886,-0.24804688,-0.16601562,0.92285156,0.15625,0.0625,0.09375,0.0,0.0,0.0
1664377761887,-0.24804688,-0.16601562,0.92285156,0.15625,0.0625,0.09375,0.0,0.0,0.0
1664377761927,-0.23730469,-0.15136719,0.91796875,0.09375,-0.25,-0.09375,0.0,0.0,0.0
1664377761927,-0.23730469,-0.15136719,0.91796875,0.09375,-0.25,-0.09375,0.0,0.0,0.0
1664377761986,-0.25097656,-0.1640625,0.9189453,-0.15625,0.3125,0.09375,0.0,0.0,0.0
1664377761986,-0.25097656,-0.1640625,0.9189453,-0.15625,0.3125,0.09375,0.0,0.0,0.0
1664377762006,-0.24902344,-0.16113281,0.9140625,0.03125,-0.1875,0.21875,0.0,0.0,0.0
1664377762006,-0.24902344,-0.16113281,0.9140625,0.03125,-0.1875,0.21875,0.0,0.0,0.0
1664377762046,-0.24316406,-0.15820312,0.9111328,-0.15625,0.0625,-0.28125,0.0,0.0,0.0
1664377762046,-0.24316406,-0.15820312,0.9111328,-0.15625,0.0625,-0.28125,0.0,0.0,0.0
1664377762086,-0.24316406,-0.15917969,0.91796875,0.21875,-0.25,-0.28125,0.0,0.0,0.0
1664377762086,-0.24316406,-0.15917969,0.91796875,0.21875,-0.25,-0.28125,0.0,0.0,0.0
1664377762126,-0.24707031,-0.16601562,0.9238281,-0.03125,-0.1875,-0.40625,-39.0,-5.6875,-93.9375
1664377762126,-0.24707031,-0.16601562,0.9238281,-0.03125,-0.1875,-0.40625,-39.0,-5.6875,-93.9375
1664377762167,-0.24121094,-0.15820312,0.9121094,-0.03125,-0.375,-0.21875,0.0,0.0,0.0
1664377762167,-0.24121094,-0.15820312,0.9121094,-0.03125,-0.375,-0.21875,0.0,0.0,0.0
1664377762206,-0.25097656,-0.16601562,0.92578125,0.09375,0.0625,-0.21875,0.0,0.0,0.0
1664377762206,-0.25097656,-0.16601562,0.92578125,0.09375,0.0625,-0.21875,0.0,0.0,0.0
1664377762246,-0.23828125,-0.15820312,0.92578125,-0.03125,-0.1875,-0.28125,0.0,0.0,0.0
1664377762246,-0.23828125,-0.15820312,0.92578125,-0.03125,-0.1875,-0.28125,0.0,0.0,0.0
1664377762287,-0.24707031,-0.16015625,0.92871094,-0.03125,0.0,-0.28125,0.0,0.0,0.0
1664377762289,-0.24707031,-0.16015625,0.92871094,-0.03125,0.0,-0.28125,0.0,0.0,0.0
1664377762326,-0.2421875,-0.15722656,0.9267578,-0.03125,-0.1875,-0.40625,0.0,0.0,0.0
1664377762326,-0.2421875,-0.15722656,0.9267578,-0.03125,-0.1875,-0.40625,0.0,0.0,0.0
1664377762367,-0.24511719,-0.16113281,0.92871094,-0.09375,0.0625,-0.21875,0.0,0.0,0.0
1664377762367,-0.24511719,-0.16113281,0.92871094,-0.09375,0.0625,-0.21875,0.0,0.0,0.0
1664377762406,-0.24121094,-0.15917969,0.92089844,-0.03125,-0.0625,-0.46875,0.0,0.0,0.0
1664377762406,-0.24121094,-0.15917969,0.92089844,-0.03125,-0.0625,-0.46875,0.0,0.0,0.0
1664377762447,-0.24707031,-0.16308594,0.921875,0.09375,-0.125,-0.34375,0.0,0.0,0.0
1664377762447,-0.24707031,-0.16308594,0.921875,0.09375,-0.125,-0.34375,0.0,0.0,0.0
1664377762486,-0.24902344,-0.16308594,0.93652344,-0.09375,-0.1875,-0.28125,0.0,0.0,0.0
1664377762486,-0.24902344,-0.16308594,0.93652344,-0.09375,-0.1875,-0.28125,0.0,0.0,0.0
1664377762527,-0.24609375,-0.16210938,0.9199219,0.15625,0.0,-0.40625,0.0,0.0,0.0
1664377762527,-0.24609375,-0.16210938,0.9199219,0.15625,0.0,-0.40625,0.0,0.0,0.0
1664377762566,-0.24609375,-0.16015625,0.9189453,-0.03125,-0.125,-0.28125,0.0,0.0,0.0
1664377762566,-0.24609375,-0.16015625,0.9189453,-0.03125,-0.125,-0.28125,0.0,0.0,0.0
1664377762606,-0.24511719,-0.15820312,0.9248047,-0.21875,0.375,-0.15625,0.0,0.0,0.0
1664377762606,-0.24511719,-0.15820312,0.9248047,-0.21875,0.375,-0.15625,0.0,0.0,0.0
1664377762647,-0.23730469,-0.16308594,0.9277344,-0.21875,0.125,-0.15625,-39.125,-5.8125,-93.625
1664377762647,-0.23730469,-0.16308594,0.9277344,-0.21875,0.125,-0.15625,-39.125,-5.8125,-93.625
1664377762686,-0.24316406,-0.16308594,0.9248047,0.03125,0.3125,-0.09375,0.0,0.0,0.0
1664377762685,-0.24316406,-0.16308594,0.9248047,0.03125,0.3125,-0.09375,0.0,0.0,0.0
1664377762726,-0.24804688,-0.16894531,0.9296875,-0.21875,-0.125,-0.28125,0.0,0.0,0.0
1664377762725,-0.24804688,-0.16894531,0.9296875,-0.21875,-0.125,-0.28125,0.0,0.0,0.0
1664377762766,-0.24511719,-0.15234375,0.9160156,-0.03125,0.1875,-0.34375,0.0,0.0,0.0
1664377762767,-0.24511719,-0.15234375,0.9160156,-0.03125,0.1875,-0.34375,0.0,0.0,0.0
1664377762805,-0.24511719,-0.16699219,0.93359375,0.03125,0.0625,-0.21875,0.0,0.0,0.0
1664377762806,-0.24511719,-0.16699219,0.93359375,0.03125,0.0625,-0.21875,0.0,0.0,0.0
1664377762847,-0.24414062,-0.15429688,0.91796875,0.15625,0.0,-0.21875,0.0,0.0,0.0
1664377762847,-0.24414062,-0.15429688,0.91796875,0.15625,0.0,-0.21875,0.0,0.0,0.0
1664377762886,-0.24121094,-0.16308594,0.92871094,-0.09375,0.0,-0.15625,0.0,0.0,0.0
1664377762886,-0.24121094,-0.16308594,0.92871094,-0.09375,0.0,-0.15625,0.0,0.0,0.0
1664377762925,-0.24902344,-0.15820312,0.91796875,-0.21875,0.0625,-0.21875,0.0,0.0,0.0
1664377762925,-0.24902344,-0.15820312,0.91796875,-0.21875,0.0625,-0.21875,0.0,0.0,0.0
1664377762966,-0.2421875,-0.16015625,0.9326172,-0.03125,-0.25,-0.34375,0.0,0.0,0.0
1664377762966,-0.2421875,-0.16015625,0.9326172,-0.03125,-0.25,-0.34375,0.0,0.0,0.0
1664377763005,-0.24609375,-0.16796875,0.9267578,-0.09375,0.0,-0.09375,0.0,0.0,0.0
1664377763006,-0.24609375,-0.16796875,0.9267578,-0.09375,0.0,-0.09375,0.0,0.0,0.0
1664377763045,-0.2421875,-0.16796875,0.92285156,0.03125,0.25,-0.21875,0.0,0.0,0.0
1664377763047,-0.2421875,-0.16796875,0.92285156,0.03125,0.25,-0.21875,0.0,0.0,0.0
1664377763086,-0.25195312,-0.15429688,0.9111328,-0.03125,-0.125,-0.28125,0.0,0.0,0.0
1664377763086,-0.25195312,-0.15429688,0.9111328,-0.03125,-0.125,-0.28125,0.0,0.0,0.0
1664377763126,-0.24121094,-0.16894531,0.9345703,-0.03125,0.125,-0.15625,-39.3125,-6.6875,-93.5
1664377763129,-0.24121094,-0.16894531,0.9345703,-0.03125,0.125,-0.15625,-39.3125,-6.6875,-93.5
1664377763165,-0.24902344,-0.15527344,0.921875,0.15625,0.0625,-0.15625,0.0,0.0,0.0
1664377763165,-0.24902344,-0.15527344,0.921875,0.15625,0.0625,-0.15625,0.0,0.0,0.0
1664377763206,-0.2421875,-0.16699219,0.9248047,-0.03125,0.0,-0.21875,0.0,0.0,0.0
1664377763208,-0.2421875,-0.16699219,0.9248047,-0.03125,0.0,-0.21875,0.0,0.0,0.0
1664377763245,-0.234375,-0.16699219,0.91796875,0.09375,-0.1875,-0.21875,0.0,0.0,0.0
1664377763245,-0.234375,-0.16699219,0.91796875,0.09375,-0.1875,-0.21875,0.0,0.0,0.0
1664377763286,-0.24414062,-0.16601562,0.93066406,-0.375,0.5625,-0.03125,0.0,0.0,0.0
1664377763286,-0.24414062,-0.16601562,0.93066406,-0.375,0.5625,-0.03125,0.0,0.0,0.0
1664377763327,-0.24414062,-0.15917969,0.92285156,-0.28125,0.0,-0.15625,0.0,0.0,0.0
1664377763327,-0.24414062,-0.15917969,0.92285156,-0.28125,0.0,-0.15625,0.0,0.0,0.0
1664377763365,-0.24316406,-0.1640625,0.9267578,-0.09375,0.1875,-0.15625,0.0,0.0,0.0
1664377763365,-0.24316406,-0.1640625,0.9267578,-0.09375,0.1875,-0.15625,0.0,0.0,0.0
1664377763406,-0.24902344,-0.15136719,0.93359375,-0.09375,-0.125,-0.21875,0.0,0.0,0.0
1664377763408,-0.24902344,-0.15136719,0.93359375,-0.09375,-0.125,-0.21875,0.0,0.0,0.0
1664377763445,-0.23632812,-0.15722656,0.9326172,-0.15625,0.0625,-0.09375,0.0,0.0,0.0
1664377763446,-0.23632812,-0.15722656,0.9326172,-0.15625,0.0625,-0.09375,0.0,0.0,0.0
1664377763485,-0.25195312,-0.1640625,0.9267578,-0.09375,-0.125,-0.03125,0.0,0.0,0.0
1664377763485,-0.25195312,-0.1640625,0.9267578,-0.09375,-0.125,-0.03125,0.0,0.0,0.0
1664377763526,-0.23632812,-0.16503906,0.93066406,-0.03125,-0.0625,-0.09375,0.0,0.0,0.0
1664377763525,-0.23632812,-0.16503906,0.93066406,-0.03125,-0.0625,-0.09375,0.0,0.0,0.0
1664377763566,-0.25390625,-0.16601562,0.92578125,-0.03125,0.0,-0.15625,0.0,0.0,0.0
1664377763566,-0.25390625,-0.16601562,0.92578125,-0.03125,0.0,-0.15625,0.0,0.0,0.0
1664377763605,-0.24316406,-0.16210938,0.9296875,-0.03125,0.0,-0.15625,0.0,0.0,0.0
1664377763605,-0.24316406,-0.16210938,0.9296875,-0.03125,0.0,-0.15625,0.0,0.0,0.0
1664377763645,-0.24316406,-0.1640625,0.92578125,-0.21875,-0.0625,0.03125,-39.3125,-5.1875,-93.5
1664377763645,-0.24316406,-0.1640625,0.92578125,-0.21875,-0.0625,0.03125,-39.3125,-5.1875,-93.5
1664377763686,-0.24414062,-0.16015625,0.92285156,-0.03125,0.0625,0.03125,0.0,0.0,0.0
1664377763686,-0.24414062,-0.16015625,0.92285156,-0.03125,0.0625,0.03125,0.0,0.0,0.0
1664377763726,-0.25097656,-0.16894531,0.9248047,0.09375,0.0625,-0.15625,0.0,0.0,0.0
1664377763726,-0.25097656,-0.16894531,0.9248047,0.09375,0.0625,-0.15625,0.0,0.0,0.0
1664377763766,-0.24316406,-0.16308594,0.9277344,0.03125,-0.0625,-0.03125,0.0,0.0,0.0
1664377763769,-0.24316406,-0.16308594,0.9277344,0.03125,-0.0625,-0.03125,0.0,0.0,0.0
1664377763806,-0.22949219,-0.16699219,0.9267578,-0.03125,-0.0625,-0.03125,0.0,0.0,0.0
1664377763806,-0.22949219,-0.16699219,0.9267578,-0.03125,-0.0625,-0.03125,0.0,0.0,0.0
1664377763846,-0.24511719,-0.16210938,0.93652344,0.09375,0.1875,0.03125,0.0,0.0,0.0
1664377763848,-0.24511719,-0.16210938,0.93652344,0.09375,0.1875,0.03125,0.0,0.0,0.0
1664377763886,-0.24121094,-0.15722656,0.9316406,-0.15625,0.0625,-0.09375,0.0,0.0,0.0
1664377763890,-0.24121094,-0.15722656,0.9316406,-0.15625,0.0625,-0.09375,0.0,0.0,0.0
1664377763925,-0.24316406,-0.16601562,0.92285156,0.09375,-0.125,0.09375,0.0,0.0,0.0
1664377763925,-0.24316406,-0.16601562,0.92285156,0.09375,-0.125,0.09375,0.0,0.0,0.0
1664377763966,-0.24316406,-0.16308594,0.9189453,-0.21875,0.5625,0.34375,0.0,0.0,0.0
1664377763966,-0.24316406,-0.16308594,0.9189453,-0.21875,0.5625,0.34375,0.0,0.0,0.0
1664377764005,-0.24414062,-0.16601562,0.9296875,-0.09375,0.0,0.21875,0.0,0.0,0.0
1664377764006,-0.24414062,-0.16601562,0.9296875,-0.09375,0.0,0.21875,0.0,0.0,0.0
1664377764046,-0.24316406,-0.16015625,0.9248047,-0.28125,0.25,0.21875,0.0,0.0,0.0
1664377764046,-0.24316406,-0.16015625,0.9248047,-0.28125,0.25,0.21875,0.0,0.0,0.0
1664377764089,-0.24121094,-0.16503906,0.92089844,0.03125,0.125,0.15625,0.0,0.0,0.0
1664377764089,-0.24121094,-0.16503906,0.92089844,0.03125,0.125,0.15625,0.0,0.0,0.0
1664377764126,-0.24023438,-0.1640625,0.9140625,-0.15625,0.0625,0.15625,-39.875,-6.125,-94.375
1664377764129,-0.24023438,-0.1640625,0.9140625,-0.15625,0.0625,0.15625,-39.875,-6.125,-94.375
1664377764165,-0.24023438,-0.16503906,0.93066406,0.03125,-0.0625,0.34375,0.0,0.0,0.0
1664377764165,-0.24023438,-0.16503906,0.93066406,0.03125,-0.0625,0.34375,0.0,0.0,0.0
1664377764209,-0.2421875,-0.16503906,0.92089844,0.15625,-0.125,0.21875,0.0,0.0,0.0
1664377764209,-0.2421875,-0.16503906,0.92089844,0.15625,-0.125,0.21875,0.0,0.0,0.0
1664377764245,-0.25390625,-0.16796875,0.9326172,-0.09375,0.125,0.21875,0.0,0.0,0.0
1664377764245,-0.25390625,-0.16796875,0.9326172,-0.09375,0.125,0.21875,0.0,0.0,0.0
1664377764286,-0.24414062,-0.17382812,0.921875,0.09375,-0.0625,0.40625,0.0,0.0,0.0
1664377764286,-0.24414062,-0.17382812,0.921875,0.09375,-0.0625,0.40625,0.0,0.0,0.0
1664377764327,-0.25097656,-0.15917969,0.9238281,0.03125,0.1875,0.28125,0.0,0.0,0.0
1664377764327,-0.25097656,-0.15917969,0.9238281,0.03125,0.1875,0.28125,0.0,0.0,0.0
1664377764366,-0.24414062,-0.16601562,0.92089844,0.09375,-0.0625,0.28125,0.0,0.0,0.0
1664377764366,-0.24414062,-0.16601562,0.92089844,0.09375,-0.0625,0.28125,0.0,0.0,0.0
1664377764405,-0.24121094,-0.16308594,0.9248047,0.15625,0.0625,0.34375,0.0,0.0,0.0
1664377764405,-0.24121094,-0.16308594,0.9248047,0.15625,0.0625,0.34375,0.0,0.0,0.0
1664377764446,-0.24511719,-0.16796875,0.9199219,0.28125,0.0,0.40625,0.0,0.0,0.0
1664377764449,-0.24511719,-0.16796875,0.9199219,0.28125,0.0,0.40625,0.0,0.0,0.0
1664377764486,-0.25097656,-0.16015625,0.9160156,0.15625,-0.0625,0.15625,0.0,0.0,0.0
1664377764487,-0.25097656,-0.16015625,0.9160156,0.15625,-0.0625,0.15625,0.0,0.0,0.0
1664377764527,-0.23632812,-0.1640625,0.9267578,0.15625,0.125,0.15625,0.0,0.0,0.0
1664377764527,-0.23632812,-0.1640625,0.9267578,0.15625,0.125,0.15625,0.0,0.0,0.0
1664377764566,-0.22949219,-0.16503906,0.9277344,0.09375,-0.125,0.21875,0.0,0.0,0.0
1664377764566,-0.22949219,-0.16503906,0.9277344,0.09375,-0.125,0.21875,0.0,0.0,0.0
1664377764606,-0.24414062,-0.16210938,0.921875,0.03125,0.1875,0.15625,0.0,0.0,0.0
1664377764606,-0.24414062,-0.16210938,0.921875,0.03125,0.1875,0.15625,0.0,0.0,0.0
1664377764648,-0.24121094,-0.16015625,0.921875,0.28125,-0.125,0.21875,-38.875,-5.8125,-95.125
1664377764648,-0.24121094,-0.16015625,0.921875,0.28125,-0.125,0.21875,-38.875,-5.8125,-95.125
1664377764685,-0.2578125,-0.17480469,0.9169922,-0.15625,0.3125,0.46875,0.0,0.0,0.0
1664377764685,-0.2578125,-0.17480469,0.9169922,-0.15625,0.3125,0.46875,0.0,0.0,0.0
1664377764727,-0.24511719,-0.15625,0.9277344,0.15625,0.1875,0.34375,0.0,0.0,0.0
1664377764727,-0.24511719,-0.15625,0.9277344,0.15625,0.1875,0.34375,0.0,0.0,0.0
1664377764767,-0.24023438,-0.16210938,0.93847656,-0.03125,0.125,0.15625,0.0,0.0,0.0
1664377764769,-0.24023438,-0.16210938,0.93847656,-0.03125,0.125,0.15625,0.0,0.0,0.0
1664377764807,-0.24804688,-0.15722656,0.9267578,0.15625,-0.0625,0.34375,0.0,0.0,0.0
1664377764807,-0.24804688,-0.15722656,0.9267578,0.15625,-0.0625,0.34375,0.0,0.0,0.0
1664377764846,-0.25097656,-0.16699219,0.93066406,0.03125,0.1875,0.15625,0.0,0.0,0.0
1664377764845,-0.25097656,-0.16699219,0.93066406,0.03125,0.1875,0.15625,0.0,0.0,0.0
1664377764887,-0.2421875,-0.16601562,0.91796875,0.15625,-0.5,-0.09375,0.0,0.0,0.0
1664377764887,-0.2421875,-0.16601562,0.91796875,0.15625,-0.5,-0.09375,0.0,0.0,0.0
1664377764926,-0.25585938,-0.15527344,0.92089844,0.09375,-0.125,0.03125,0.0,0.0,0.0
1664377764926,-0.25585938,-0.15527344,0.92089844,0.09375,-0.125,0.03125,0.0,0.0,0.0
1664377764966,-0.24121094,-0.16210938,0.9189453,0.28125,-0.1875,0.1875,0.0,0.0,0.0
1664377764966,-0.24121094,-0.16210938,0.9189453,0.28125,-0.1875,0.1875,0.0,0.0,0.0
1664377765007,-0.24707031,-0.16210938,0.9199219,0.0,0.0,-0.03125,0.0,0.0,0.0
1664377765007,-0.24707031,-0.16210938,0.9199219,0.0,0.0,-0.03125,0.0,0.0,0.0
1664377765047,-0.24414062,-0.16503906,0.9160156,0.09375,0.0,-0.03125,0.0,0.0,0.0
1664377765049,-0.24414062,-0.16503906,0.9160156,0.09375,0.0,-0.03125,0.0,0.0,0.0
1664377765086,-0.24316406,-0.15722656,0.93066406,0.09375,0.0,0.125,0.0,0.0,0.0
1664377765086,-0.24316406,-0.15722656,0.93066406,0.09375,0.0,0.125,0.0,0.0,0.0
1664377765126,-0.2421875,-0.16210938,0.9169922,0.03125,0.0,0.03125,-38.875,-6.125,-92.75
1664377765126,-0.2421875,-0.16210938,0.9169922,0.03125,0.0,0.03125,-38.875,-6.125,-92.75
1664377765166,-0.24316406,-0.16308594,0.9277344,0.09375,-0.1875,0.125,0.0,0.0,0.0
1664377765166,-0.24316406,-0.16308594,0.9277344,0.09375,-0.1875,0.125,0.0,0.0,0.0
1664377765207,-0.24316406,-0.16015625,0.93066406,-0.0625,-0.125,0.125,0.0,0.0,0.0
1664377765206,-0.24316406,-0.16015625,0.93066406,-0.0625,-0.125,0.125,0.0,0.0,0.0
1664377765247,-0.24707031,-0.16503906,0.9248047,0.03125,0.0,0.125,0.0,0.0,0.0
1664377765247,-0.24707031,-0.16503906,0.9248047,0.03125,0.0,0.125,0.0,0.0,0.0
1664377765286,-0.24511719,-0.16796875,0.9140625,-0.0625,-0.0625,0.125,0.0,0.0,0.0
1664377765286,-0.24511719,-0.16796875,0.9140625,-0.0625,-0.0625,0.125,0.0,0.0,0.0
1664377765326,-0.23828125,-0.16015625,0.93359375,0.03125,0.0625,-0.03125,0.0,0.0,0.0
1664377765326,-0.23828125,-0.16015625,0.93359375,0.03125,0.0625,-0.03125,0.0,0.0,0.0
1664377765366,-0.24609375,-0.16503906,0.9160156,-0.3125,0.1875,0.125,0.0,0.0,0.0
1664377765368,-0.24609375,-0.16503906,0.9160156,-0.3125,0.1875,0.125,0.0,0.0,0.0
1664377765407,-0.25195312,-0.16308594,0.91308594,0.03125,0.125,-0.03125,0.0,0.0,0.0
1664377765407,-0.25195312,-0.16308594,0.91308594,0.03125,0.125,-0.03125,0.0,0.0,0.0
1664377765446,-0.24023438,-0.1640625,0.9140625,-0.25,0.0,-0.21875,0.0,0.0,0.0
1664377765446,-0.24023438,-0.1640625,0.9140625,-0.25,0.0,-0.21875,0.0,0.0,0.0
1664377765486,-0.24902344,-0.16601562,0.92285156,0.0,-0.125,-0.40625,0.0,0.0,0.0
1664377765486,-0.24902344,-0.16601562,0.92285156,0.0,-0.125,-0.40625,0.0,0.0,0.0
1664377765526,-0.2421875,-0.15917969,0.92578125,-0.1875,-0.0625,-0.65625,0.0,0.0,0.0
1664377765526,-0.2421875,-0.15917969,0.92578125,-0.1875,-0.0625,-0.65625,0.0,0.0,0.0
1664377765567,-0.24609375,-0.15722656,0.92578125,0.09375,-0.125,-0.53125,0.0,0.0,0.0
1664377765567,-0.24609375,-0.15722656,0.92578125,0.09375,-0.125,-0.53125,0.0,0.0,0.0
1664377765609,-0.23339844,-0.16015625,0.9189453,0.09375,-0.3125,-0.59375,0.0,0.0,0.0
1664377765609,-0.23339844,-0.16015625,0.9189453,0.09375,-0.3125,-0.59375,0.0,0.0,0.0
1664377765667,-0.2421875,-0.16699219,0.9189453,-0.0625,0.0625,-0.59375,-38.25,-4.625,-93.1875
1664377765667,-0.2421875,-0.16699219,0.9189453,-0.0625,0.0625,-0.59375,-38.25,-4.625,-93.1875
1664377765685,-0.23828125,-0.16113281,0.921875,-0.0625,-0.3125,-0.59375,0.0,0.0,0.0
1664377765688,-0.23828125,-0.16113281,0.921875,-0.0625,-0.3125,-0.59375,0.0,0.0,0.0
1664377765727,-0.24707031,-0.16503906,0.9199219,-0.125,-0.1875,-0.65625,0.0,0.0,0.0
1664377765727,-0.24707031,-0.16503906,0.9199219,-0.125,-0.1875,-0.65625,0.0,0.0,0.0
1664377765766,-0.25878906,-0.16699219,0.921875,0.03125,0.0,-0.59375,0.0,0.0,0.0
1664377765766,-0.25878906,-0.16699219,0.921875,0.03125,0.0,-0.59375,0.0,0.0,0.0
1664377765806,-0.23828125,-0.16210938,0.93359375,0.0,-0.3125,-0.78125,0.0,0.0,0.0
1664377765806,-0.23828125,-0.16210938,0.93359375,0.0,-0.3125,-0.78125,0.0,0.0,0.0
1664377765846,-0.23632812,-0.15332031,0.92871094,0.03125,0.0,-0.65625,0.0,0.0,0.0
1664377765846,-0.23632812,-0.15332031,0.92871094,0.03125,0.0,-0.65625,0.0,0.0,0.0
1664377765887,-0.24609375,-0.1640625,0.9199219,0.09375,-0.25,-0.71875,0.0,0.0,0.0
1664377765887,-0.24609375,-0.1640625,0.9199219,0.09375,-0.25,-0.71875,0.0,0.0,0.0
1664377765925,-0.25195312,-0.16699219,0.91796875,-0.125,0.0,-0.71875,0.0,0.0,0.0
1664377765925,-0.25195312,-0.16699219,0.91796875,-0.125,0.0,-0.71875,0.0,0.0,0.0
1664377765966,-0.24316406,-0.15625,0.9140625,-0.0625,-0.375,-0.71875,0.0,0.0,0.0
1664377765967,-0.24316406,-0.15625,0.9140625,-0.0625,-0.375,-0.71875,0.0,0.0,0.0
1664377766005,-0.24804688,-0.15527344,0.9355469,-0.4375,0.375,-0.59375,0.0,0.0,0.0
1664377766005,-0.24804688,-0.15527344,0.9355469,-0.4375,0.375,-0.59375,0.0,0.0,0.0
1664377766045,-0.25585938,-0.16796875,0.9199219,-0.375,-0.125,-0.59375,0.0,0.0,0.0
1664377766048,-0.25585938,-0.16796875,0.9199219,-0.375,-0.125,-0.59375,0.0,0.0,0.0
1664377766086,-0.23925781,-0.16601562,0.91796875,0.0,0.125,-0.65625,0.0,0.0,0.0
1664377766086,-0.23925781,-0.16601562,0.91796875,0.0,0.125,-0.65625,0.0,0.0,0.0
1664377766126,-0.24121094,-0.16796875,0.9267578,-0.0625,-0.3125,-0.71875,-39.3125,-4.9375,-93.5
1664377766126,-0.24121094,-0.16796875,0.9267578,-0.0625,-0.3125,-0.71875,-39.3125,-4.9375,-93.5
1664377766166,-0.24414062,-0.15429688,0.92285156,0.09375,-0.125,-0.65625,0.0,0.0,0.0
1664377766167,-0.24414062,-0.15429688,0.92285156,0.09375,-0.125,-0.65625,0.0,0.0,0.0
1664377766206,-0.2548828,-0.15722656,0.9082031,0.0,-0.3125,-0.65625,0.0,0.0,0.0
1664377766206,-0.2548828,-0.15722656,0.9082031,0.0,-0.3125,-0.65625,0.0,0.0,0.0
1664377766249,-0.24316406,-0.16601562,0.92089844,0.09375,-0.1875,-0.46875,0.0,0.0,0.0
1664377766248,-0.24316406,-0.16601562,0.92089844,0.09375,-0.1875,-0.46875,0.0,0.0,0.0
1664377766286,-0.24414062,-0.15625,0.9199219,-0.125,-0.125,-0.53125,0.0,0.0,0.0
1664377766287,-0.24414062,-0.15625,0.9199219,-0.125,-0.125,-0.53125,0.0,0.0,0.0
1664377766326,-0.24707031,-0.16601562,0.9277344,-0.125,-0.125,-0.65625,0.0,0.0,0.0
1664377766327,-0.24707031,-0.16601562,0.9277344,-0.125,-0.125,-0.65625,0.0,0.0,0.0
1664377766366,-0.25,-0.16210938,0.9189453,-0.0625,-0.0625,-0.53125,0.0,0.0,0.0
1664377766366,-0.25,-0.16210938,0.9189453,-0.0625,-0.0625,-0.53125,0.0,0.0,0.0
1664377766406,-0.24023438,-0.16113281,0.9248047,0.0,0.0625,-0.71875,0.0,0.0,0.0
1664377766407,-0.24023438,-0.16113281,0.9248047,0.0,0.0625,-0.71875,0.0,0.0,0.0
1664377766446,-0.24902344,-0.16601562,0.9267578,-0.125,-0.0625,-0.53125,0.0,0.0,0.0
1664377766446,-0.24902344,-0.16601562,0.9267578,-0.125,-0.0625,-0.53125,0.0,0.0,0.0
1664377766486,-0.2421875,-0.16015625,0.9248047,0.03125,0.0625,-0.59375,0.0,0.0,0.0
1664377766486,-0.2421875,-0.16015625,0.9248047,0.03125,0.0625,-0.59375,0.0,0.0,0.0
1664377766528,-0.24707031,-0.16015625,0.92285156,-0.0625,-0.1875,-0.59375,0.0,0.0,0.0
1664377766528,-0.24707031,-0.16015625,0.92285156,-0.0625,-0.1875,-0.59375,0.0,0.0,0.0
1664377766566,-0.25097656,-0.15625,0.93847656,0.0,-0.0625,-0.59375,0.0,0.0,0.0
1664377766567,-0.25097656,-0.15625,0.93847656,0.0,-0.0625,-0.59375,0.0,0.0,0.0
1664377766607,-0.25,-0.16992188,0.91308594,-0.1875,-0.0625,-0.59375,0.0,0.0,0.0
1664377766609,-0.25,-0.16992188,0.91308594,-0.1875,-0.0625,-0.59375,0.0,0.0,0.0
1664377766646,-0.23925781,-0.16308594,0.90722656,-0.1875,-0.4375,-0.59375,-38.6875,-5.1875,-93.9375
1664377766646,-0.23925781,-0.16308594,0.90722656,-0.1875,-0.4375,-0.59375,-38.6875,-5.1875,-93.9375
1664377766686,-0.24414062,-0.16210938,0.9296875,-0.5625,0.5625,-0.46875,0.0,0.0,0.0
1664377766685,-0.24414062,-0.16210938,0.9296875,-0.5625,0.5625,-0.46875,0.0,0.0,0.0
1664377766725,-0.24121094,-0.16894531,0.9296875,-0.3125,-0.125,-0.53125,0.0,0.0,0.0
1664377766726,-0.24121094,-0.16894531,0.9296875,-0.3125,-0.125,-0.53125,0.0,0.0,0.0
1664377766766,-0.2421875,-0.15722656,0.92089844,-0.3125,0.375,-0.65625,0.0,0.0,0.0
1664377766766,-0.2421875,-0.15722656,0.92089844,-0.3125,0.375,-0.65625,0.0,0.0,0.0
1664377766805,-0.24316406,-0.16210938,0.9248047,-0.0625,-0.0625,-0.59375,0.0,0.0,0.0
1664377766805,-0.24316406,-0.16210938,0.9248047,-0.0625,-0.0625,-0.59375,0.0,0.0,0.0
1664377766848,-0.24511719,-0.16894531,0.9199219,-0.25,0.0,-0.53125,0.0,0.0,0.0
1664377766847,-0.24511719,-0.16894531,0.9199219,-0.25,0.0,-0.53125,0.0,0.0,0.0
1664377766886,-0.24414062,-0.16503906,0.9296875,-0.125,-0.1875,-0.59375,0.0,0.0,0.0
1664377766886,-0.24414062,-0.16503906,0.9296875,-0.125,-0.1875,-0.59375,0.0,0.0,0.0
1664377766925,-0.23828125,-0.16503906,0.92578125,0.09375,-0.1875,-0.59375,0.0,0.0,0.0
1664377766925,-0.23828125,-0.16503906,0.92578125,0.09375,-0.1875,-0.59375,0.0,0.0,0.0
1664377766966,-0.24316406,-0.16210938,0.92089844,-0.25,-0.0625,-0.59375,0.0,0.0,0.0
1664377766966,-0.24316406,-0.16210938,0.92089844,-0.25,-0.0625,-0.59375,0.0,0.0,0.0
1664377767005,-0.23828125,-0.16015625,0.9199219,0.0,0.0,-0.59375,0.0,0.0,0.0
1664377767006,-0.23828125,-0.16015625,0.9199219,0.0,0.0,-0.59375,0.0,0.0,0.0
1664377767046,-0.23828125,-0.15820312,0.9199219,-0.25,-0.125,-0.40625,0.0,0.0,0.0
1664377767046,-0.23828125,-0.15820312,0.9199219,-0.25,-0.125,-0.40625,0.0,0.0,0.0
1664377767087,-0.23925781,-0.1640625,0.9345703,0.0,0.125,-0.53125,0.0,0.0,0.0
1664377767087,-0.23925781,-0.1640625,0.9345703,0.0,0.125,-0.53125,0.0,0.0,0.0
1664377767125,-0.24121094,-0.15820312,0.9326172,-0.0625,-0.0625,-0.53125,-38.25,-5.6875,-94.25
1664377767127,-0.24121094,-0.15820312,0.9326172,-0.0625,-0.0625,-0.53125,-38.25,-5.6875,-94.25
1664377767165,-0.25097656,-0.16113281,0.92089844,0.03125,-0.0625,-0.40625,0.0,0.0,0.0
1664377767165,-0.25097656,-0.16113281,0.92089844,0.03125,-0.0625,-0.40625,0.0,0.0,0.0
1664377767206,-0.24121094,-0.16210938,0.93066406,-0.0625,-0.25,-0.46875,0.0,0.0,0.0
1664377767208,-0.24121094,-0.16210938,0.93066406,-0.0625,-0.25,-0.46875,0.0,0.0,0.0
1664377767246,-0.2421875,-0.16308594,0.9199219,-0.0625,-0.0625,-0.53125,0.0,0.0,0.0
1664377767246,-0.2421875,-0.16308594,0.9199219,-0.0625,-0.0625,-0.53125,0.0,0.0,0.0
1664377767285,-0.2421875,-0.15722656,0.9277344,0.0,-0.0625,-0.53125,0.0,0.0,0.0
1664377767285,-0.2421875,-0.15722656,0.9277344,0.0,-0.0625,-0.53125,0.0,0.0,0.0
1664377767327,-0.24121094,-0.16503906,0.9169922,-0.0625,-0.25,-0.40625,0.0,0.0,0.0
1664377767327,-0.24121094,-0.16503906,0.9169922,-0.0625,-0.25,-0.40625,0.0,0.0,0.0
1664377767366,-0.24121094,-0.16503906,0.92871094,-0.125,0.125,-0.28125,0.0,0.0,0.0
1664377767366,-0.24121094,-0.16503906,0.92871094,-0.125,0.125,-0.28125,0.0,0.0,0.0
1664377767406,-0.2529297,-0.16308594,0.9355469,-0.5625,0.125,-0.21875,0.0,0.0,0.0
1664377767406,-0.2529297,-0.16308594,0.9355469,-0.5625,0.125,-0.21875,0.0,0.0,0.0
1664377767447,-0.2421875,-0.16796875,0.9199219,-0.125,0.125,-0.59375,0.0,0.0,0.0
1664377767447,-0.2421875,-0.16796875,0.9199219,-0.125,0.125,-0.59375,0.0,0.0,0.0
1664377767485,-0.23925781,-0.16796875,0.9277344,-0.125,-0.1875,-0.28125,0.0,0.0,0.0
1664377767487,-0.23925781,-0.16796875,0.9277344,-0.125,-0.1875,-0.28125,0.0,0.0,0.0
1664377767527,-0.23632812,-0.16308594,0.9189453,-0.1875,0.0625,-0.34375,0.0,0.0,0.0
1664377767528,-0.23632812,-0.16308594,0.9189453,-0.1875,0.0625,-0.34375,0.0,0.0,0.0
1664377767566,-0.2529297,-0.16796875,0.92089844,-0.0625,0.125,-0.09375,0.0,0.0,0.0
1664377767566,-0.2529297,-0.16796875,0.92089844,-0.0625,0.125,-0.09375,0.0,0.0,0.0
1664377767605,-0.23828125,-0.16113281,0.90722656,0.09375,-0.25,-0.21875,0.0,0.0,0.0
1664377767606,-0.23828125,-0.16113281,0.90722656,0.09375,-0.25,-0.21875,0.0,0.0,0.0
1664377767646,-0.2529297,-0.15820312,0.92089844,0.0,0.0625,-0.09375,-38.25,-5.9375,-93.9375
1664377767646,-0.2529297,-0.15820312,0.92089844,0.0,0.0625,-0.09375,-38.25,-5.9375,-93.9375
1664377767686,-0.24121094,-0.16601562,0.9199219,-0.0625,0.0,0.0625,0.0,0.0,0.0
1664377767686,-0.24121094,-0.16601562,0.9199219,-0.0625,0.0,0.0625,0.0,0.0,0.0
1664377767725,-0.23535156,-0.16503906,0.9238281,-0.125,0.0625,-0.09375,0.0,0.0,0.0
1664377767726,-0.23535156,-0.16503906,0.9238281,-0.125,0.0625,-0.09375,0.0,0.0,0.0
1664377767767,-0.24316406,-0.1640625,0.9267578,0.03125,0.125,-0.09375,0.0,0.0,0.0
1664377767767,-0.24316406,-0.1640625,0.9267578,0.03125,0.125,-0.09375,0.0,0.0,0.0
1664377767810,-0.24707031,-0.16601562,0.9277344,0.0,0.125,-0.15625,0.0,0.0,0.0
1664377767810,-0.24707031,-0.16601562,0.9277344,0.0,0.125,-0.15625,0.0,0.0,0.0
1664377767845,-0.24804688,-0.16210938,0.921875,-0.0625,-0.1875,-0.09375,0.0,0.0,0.0
1664377767845,-0.24804688,-0.16210938,0.921875,-0.0625,-0.1875,-0.09375,0.0,0.0,0.0
1664377767887,-0.24511719,-0.15234375,0.92578125,0.15625,0.125,-0.09375,0.0,0.0,0.0
1664377767887,-0.24511719,-0.15234375,0.92578125,0.15625,0.125,-0.09375,0.0,0.0,0.0
1664377767926,-0.24511719,-0.15820312,0.9355469,0.03125,-0.125,-0.15625,0.0,0.0,0.0
1664377767926,-0.24511719,-0.15820312,0.9355469,0.03125,-0.125,-0.15625,0.0,0.0,0.0
1664377767966,-0.24414062,-0.16992188,0.9189453,0.0,-0.0625,-0.03125,0.0,0.0,0.0
1664377767966,-0.24414062,-0.16992188,0.9189453,0.0,-0.0625,-0.03125,0.0,0.0,0.0
1664377768008,-0.25097656,-0.16796875,0.93652344,0.0,0.0,-0.03125,0.0,0.0,0.0
1664377768008,-0.25097656,-0.16796875,0.93652344,0.0,0.0,-0.03125,0.0,0.0,0.0
1664377768046,-0.23925781,-0.15722656,0.92871094,0.0,-0.25,0.03125,0.0,0.0,0.0
1664377768046,-0.23925781,-0.15722656,0.92871094,0.0,-0.25,0.03125,0.0,0.0,0.0
1664377768087,-0.25,-0.16699219,0.9433594,-0.0625,0.0625,0.0625,0.0,0.0,0.0
1664377768087,-0.25,-0.16699219,0.9433594,-0.0625,0.0625,0.0625,0.0,0.0,0.0
1664377768129,-0.2578125,-0.16210938,0.9199219,-0.5,-0.0625,0.125,-40.5,-5.1875,-93.9375
1664377768128,-0.2578125,-0.16210938,0.9199219,-0.5,-0.0625,0.125,-40.5,-5.1875,-93.9375
1664377768167,-0.2421875,-0.16113281,0.93066406,0.03125,0.3125,-0.03125,0.0,0.0,0.0
1664377768169,-0.2421875,-0.16113281,0.93066406,0.03125,0.3125,-0.03125,0.0,0.0,0.0
1664377768206,-0.25585938,-0.16503906,0.9199219,-0.125,-0.0625,-0.09375,0.0,0.0,0.0
1664377768206,-0.25585938,-0.16503906,0.9199219,-0.125,-0.0625,-0.09375,0.0,0.0,0.0
1664377768246,-0.24316406,-0.1640625,0.9375,-0.1875,-0.1875,-0.03125,0.0,0.0,0.0
1664377768245,-0.24316406,-0.1640625,0.9375,-0.1875,-0.1875,-0.03125,0.0,0.0,0.0
1664377768287,-0.24804688,-0.16113281,0.9189453,-0.0625,0.125,0.0625,0.0,0.0,0.0
1664377768287,-0.24804688,-0.16113281,0.9189453,-0.0625,0.125,0.0625,0.0,0.0,0.0
1664377768326,-0.25,-0.15917969,0.9160156,0.03125,-0.25,-0.03125,0.0,0.0,0.0
1664377768326,-0.25,-0.15917969,0.9160156,0.03125,-0.25,-0.03125,0.0,0.0,0.0
1664377768366,-0.24804688,-0.15917969,0.921875,-0.1875,-0.125,-0.15625,0.0,0.0,0.0
1664377768366,-0.24804688,-0.15917969,0.921875,-0.1875,-0.125,-0.15625,0.0,0.0,0.0
1664377768407,-0.23828125,-0.16601562,0.9199219,0.0,0.125,-0.15625,0.0,0.0,0.0
1664377768407,-0.23828125,-0.16601562,0.9199219,0.0,0.125,-0.15625,0.0,0.0,0.0
1664377768446,-0.24804688,-0.16113281,0.92089844,0.0,0.0,-0.34375,0.0,0.0,0.0
1664377768448,-0.24804688,-0.16113281,0.92089844,0.0,0.0,-0.34375,0.0,0.0,0.0
1664377768487,-0.24902344,-0.16699219,0.9160156,0.15625,-0.1875,-0.34375,0.0,0.0,0.0
1664377768487,-0.24902344,-0.16699219,0.9160156,0.15625,-0.1875,-0.34375,0.0,0.0,0.0
1664377768526,-0.25390625,-0.16015625,0.9169922,0.0,-0.0625,-0.34375,0.0,0.0,0.0
1664377768526,-0.25390625,-0.16015625,0.9169922,0.0,-0.0625,-0.34375,0.0,0.0,0.0
1664377768566,-0.24414062,-0.15722656,0.9316406,-0.0625,-0.125,-0.34375,0.0,0.0,0.0
1664377768566,-0.24414062,-0.15722656,0.9316406,-0.0625,-0.125,-0.34375,0.0,0.0,0.0
1664377768607,-0.25097656,-0.16113281,0.93359375,-0.1875,-0.125,-0.59375,0.0,0.0,0.0
1664377768607,-0.25097656,-0.16113281,0.93359375,-0.1875,-0.125,-0.59375,0.0,0.0,0.0
1664377768646,-0.2421875,-0.16015625,0.9277344,0.0,0.0,-0.46875,-38.375,-5.5,-93.0625
1664377768646,-0.2421875,-0.16015625,0.9277344,0.0,0.0,-0.46875,-38.375,-5.5,-93.0625
1664377768686,-0.24121094,-0.16699219,0.92285156,-0.0625,-0.5,-0.15625,0.0,0.0,0.0
1664377768686,-0.24121094,-0.16699219,0.92285156,-0.0625,-0.5,-0.15625,0.0,0.0,0.0
1664377768727,-0.2529297,-0.16113281,0.92285156,-0.0625,0.25,0.0625,0.0,0.0,0.0
1664377768727,-0.2529297,-0.16113281,0.92285156,-0.0625,0.25,0.0625,0.0,0.0,0.0
1664377768766,-0.23535156,-0.16503906,0.9199219,0.28125,-0.65625,-0.34375,0.0,0.0,0.0
1664377768769,-0.23535156,-0.16503906,0.9199219,0.28125,-0.65625,-0.34375,0.0,0.0,0.0
1664377768805,-0.25195312,-0.16503906,0.9189453,-0.5,0.5625,-0.21875,0.0,0.0,0.0
1664377768809,-0.25195312,-0.16503906,0.9189453,-0.5,0.5625,-0.21875,0.0,0.0,0.0
1664377768846,-0.24609375,-0.15917969,0.921875,-0.25,-0.59375,-0.46875,0.0,0.0,0.0
1664377768846,-0.24609375,-0.15917969,0.921875,-0.25,-0.59375,-0.46875,0.0,0.0,0.0
1664377768887,-0.234375,-0.16113281,0.93359375,-0.0625,-0.1875,-0.28125,0.0,0.0,0.0
1664377768887,-0.234375,-0.16113281,0.93359375,-0.0625,-0.1875,-0.28125,0.0,0.0,0.0
1664377768926,-0.23535156,-0.17089844,0.9189453,-0.625,0.0,-0.40625,0.0,0.0,0.0
1664377768926,-0.23535156,-0.17089844,0.9189453,-0.625,0.0,-0.40625,0.0,0.0,0.0
1664377768966,-0.24804688,-0.16113281,0.9316406,-0.3125,0.5,-0.40625,0.0,0.0,0.0
1664377768966,-0.24804688,-0.16113281,0.9316406,-0.3125,0.5,-0.40625,0.0,0.0,0.0
1664377769006,-0.24609375,-0.15332031,0.9394531,0.28125,-0.59375,-0.40625,0.0,0.0,0.0
1664377769006,-0.24609375,-0.15332031,0.9394531,0.28125,-0.59375,-0.40625,0.0,0.0,0.0
1664377769048,-0.24511719,-0.15917969,0.9160156,-0.3125,0.4375,-0.53125,0.0,0.0,0.0
1664377769048,-0.24511719,-0.15917969,0.9160156,-0.3125,0.4375,-0.53125,0.0,0.0,0.0
1664377769087,-0.24902344,-0.16796875,0.9267578,0.0,0.0625,-0.34375,0.0,0.0,0.0
1664377769088,-0.24902344,-0.16796875,0.9267578,0.0,0.0625,-0.34375,0.0,0.0,0.0
1664377769125,-0.23632812,-0.15527344,0.8984375,-0.375,-0.1875,-0.34375,-38.375,-5.5,-94.125
1664377769125,-0.23632812,-0.15527344,0.8984375,-0.375,-0.1875,-0.34375,-38.375,-5.5,-94.125
1664377769166,-0.24707031,-0.16503906,0.91796875,-0.1875,0.0625,-0.53125,0.0,0.0,0.0
1664377769166,-0.24707031,-0.16503906,0.91796875,-0.1875,0.0625,-0.53125,0.0,0.0,0.0
1664377769206,-0.24804688,-0.16015625,0.91796875,-0.375,-0.125,-0.59375,0.0,0.0,0.0
1664377769206,-0.24804688,-0.16015625,0.91796875,-0.375,-0.125,-0.59375,0.0,0.0,0.0
1664377769246,-0.25097656,-0.15917969,0.9189453,-0.0625,-0.125,-0.46875,0.0,0.0,0.0
1664377769246,-0.25097656,-0.15917969,0.9189453,-0.0625,-0.125,-0.46875,0.0,0.0,0.0
1664377769286,-0.24902344,-0.1640625,0.9248047,-0.25,0.0625,-0.65625,0.0,0.0,0.0
1664377769287,-0.24902344,-0.1640625,0.9248047,-0.25,0.0625,-0.65625,0.0,0.0,0.0
1664377769327,-0.24511719,-0.15429688,0.92285156,-0.125,-0.1875,-0.53125,0.0,0.0,0.0
1664377769327,-0.24511719,-0.15429688,0.92285156,-0.125,-0.1875,-0.53125,0.0,0.0,0.0
1664377769366,-0.24804688,-0.15820312,0.91796875,-0.25,-0.1875,-0.53125,0.0,0.0,0.0
1664377769368,-0.24804688,-0.15820312,0.91796875,-0.25,-0.1875,-0.53125,0.0,0.0,0.0
1664377769406,-0.24804688,-0.16503906,0.93066406,-0.375,-0.25,-0.46875,0.0,0.0,0.0
1664377769407,-0.24804688,-0.16503906,0.93066406,-0.375,-0.25,-0.46875,0.0,0.0,0.0
1664377769445,-0.23925781,-0.171875,0.9169922,-0.25,-0.25,-0.53125,0.0,0.0,0.0
1664377769446,-0.23925781,-0.171875,0.9169922,-0.25,-0.25,-0.53125,0.0,0.0,0.0
1664377769486,-0.24316406,-0.16699219,0.9375,-0.4375,0.4375,-0.40625,0.0,0.0,0.0
1664377769486,-0.24316406,-0.16699219,0.9375,-0.4375,0.4375,-0.40625,0.0,0.0,0.0
1664377769527,-0.2548828,-0.16796875,0.91796875,-0.375,-0.125,-0.21875,0.0,0.0,0.0
1664377769526,-0.2548828,-0.16796875,0.91796875,-0.375,-0.125,-0.21875,0.0,0.0,0.0
1664377769567,-0.24511719,-0.16699219,0.94140625,0.03125,0.25,-0.59375,0.0,0.0,0.0
1664377769566,-0.24511719,-0.16699219,0.94140625,0.03125,0.25,-0.59375,0.0,0.0,0.0
1664377769606,-0.24804688,-0.16601562,0.91503906,0.03125,-0.125,-0.78125,0.0,0.0,0.0
1664377769606,-0.24804688,-0.16601562,0.91503906,0.03125,-0.125,-0.78125,0.0,0.0,0.0
1664377769648,-0.24902344,-0.16601562,0.9248047,0.0,-0.0625,-0.40625,-39.875,-6.5625,-94.6875
1664377769648,-0.24902344,-0.16601562,0.9248047,0.0,-0.0625,-0.40625,-39.875,-6.5625,-94.6875
1664377769685,-0.24902344,-0.17285156,0.9316406,-0.25,-0.125,-0.40625,0.0,0.0,0.0
1664377769686,-0.24902344,-0.17285156,0.9316406,-0.25,-0.125,-0.40625,0.0,0.0,0.0
1664377769725,-0.24414062,-0.16308594,0.921875,0.15625,-0.375,-0.59375,0.0,0.0,0.0
1664377769726,-0.24414062,-0.16308594,0.921875,0.15625,-0.375,-0.59375,0.0,0.0,0.0
1664377769765,-0.23925781,-0.16308594,0.93359375,0.15625,-0.3125,-0.53125,0.0,0.0,0.0
1664377769766,-0.23925781,-0.16308594,0.93359375,0.15625,-0.3125,-0.53125,0.0,0.0,0.0
1664377769806,-0.24316406,-0.1640625,0.92089844,-0.125,-0.0625,-0.40625,0.0,0.0,0.0
1664377769806,-0.24316406,-0.1640625,0.92089844,-0.125,-0.0625,-0.40625,0.0,0.0,0.0
1664377769845,-0.23828125,-0.16210938,0.91015625,-0.1875,-0.1875,-0.40625,0.0,0.0,0.0
1664377769845,-0.23828125,-0.16210938,0.91015625,-0.1875,-0.1875,-0.40625,0.0,0.0,0.0
1664377769886,-0.24121094,-0.16894531,0.9160156,-0.125,0.0,-0.40625,0.0,0.0,0.0
1664377769886,-0.24121094,-0.16894531,0.9160156,-0.125,0.0,-0.40625,0.0,0.0,0.0
1664377769926,-0.23925781,-0.16699219,0.9199219,-0.0625,-0.0625,-0.40625,0.0,0.0,0.0
