# Sensor type: Thingy
# Activity type: Running
# Activity code: 11
# Subject id: s1800825
# Notes: 
timestamp,accel_x,accel_y,accel_z,gyro_x,gyro_y,gyro_z,mag_x,mag_y,mag_z
1664567018164,-0.97753906,0.08886719,0.16601562,1.5,8.90625,5.0625,0.0,0.0,0.0
1664567018204,-0.9794922,0.1171875,0.17773438,0.78125,13.03125,5.125,0.0,0.0,0.0
1664567018244,-0.9453125,0.111328125,0.18066406,-13.03125,7.0625,7.0,0.0,0.0,0.0
1664567018283,-0.90625,0.09667969,0.22363281,-24.78125,2.71875,2.65625,0.0,0.0,0.0
1664567018325,-0.92578125,0.115234375,0.25195312,-28.21875,-5.875,-0.9375,0.0,0.0,0.0
1664567018404,-1.0820312,0.12792969,0.27539062,-26.5625,-1.40625,3.34375,0.0,0.0,0.0
1664567018405,-1.03125,0.08300781,0.37695312,-46.53125,-10.40625,4.9375,0.0,0.0,0.0
1664567018464,-1.0097656,-0.09667969,0.33789062,-37.78125,12.4375,-11.96875,-68.375,30.0625,-120.0625
1664567018484,-1.0615234,-0.0546875,0.24902344,8.59375,30.125,-35.40625,0.0,0.0,0.0
1664567018524,-0.9160156,0.013671875,0.15722656,62.25,25.3125,-40.375,0.0,0.0,0.0
1664567018566,-1.0195312,-0.020507812,0.21679688,46.0625,-14.84375,-29.75,0.0,0.0,0.0
1664567018606,-0.91308594,-0.018554688,0.22167969,37.8125,-63.625,-23.8125,0.0,0.0,0.0
1664567018643,-0.8378906,-0.033203125,0.36621094,21.96875,-108.0,-35.59375,0.0,0.0,0.0
1664567018684,-0.7324219,-0.12890625,0.5341797,43.1875,-85.59375,-34.375,0.0,0.0,0.0
1664567018724,-0.8339844,-0.1015625,0.41015625,57.90625,-61.0625,-0.6875,0.0,0.0,0.0
1664567018764,-0.61816406,0.013671875,0.5185547,75.84375,-65.09375,7.90625,0.0,0.0,0.0
1664567018803,-0.7519531,-0.08691406,0.7529297,63.21875,-62.03125,7.125,0.0,0.0,0.0
1664567018844,-0.77441406,-0.11035156,0.76464844,67.25,-30.78125,-12.96875,0.0,0.0,0.0
1664567018885,-0.7207031,-0.025390625,0.8027344,81.40625,0.03125,-15.21875,0.0,0.0,0.0
1664567018944,-0.68066406,-0.0048828125,0.79003906,39.59375,18.53125,-17.96875,-67.375,27.9375,-115.875
1664567018965,-0.9003906,0.6748047,0.5185547,-24.78125,71.53125,24.03125,0.0,0.0,0.0
1664567019003,-0.5439453,-0.07421875,0.4375,-74.0,45.5625,12.75,0.0,0.0,0.0
1664567019045,-0.6582031,0.12988281,-0.025390625,-79.125,165.625,48.375,0.0,0.0,0.0
1664567019084,-1.3037109,0.41503906,0.15332031,-82.53125,99.90625,117.96875,0.0,0.0,0.0
1664567019125,-1.3457031,0.15820312,0.03125,-36.09375,175.21875,140.3125,0.0,0.0,0.0
1664567019165,-2.0,0.046875,-0.078125,25.9375,173.5625,146.09375,0.0,0.0,0.0
1664567019205,-2.0,-0.2734375,0.9042969,154.03125,269.28125,-145.9375,0.0,0.0,0.0
1664567019244,-1.7636719,0.7714844,0.59765625,71.9375,211.09375,-21.875,0.0,0.0,0.0
1664567019283,-0.3154297,-0.2109375,-0.5488281,-345.96875,30.9375,-3.0,0.0,0.0,0.0
1664567019325,-0.44433594,-0.43652344,-0.01171875,7.4375,-40.40625,-13.0625,0.0,0.0,0.0
1664567019364,0.3095703,0.032226562,-0.07714844,125.65625,-106.71875,-49.8125,0.0,0.0,0.0
1664567019404,0.041992188,0.020507812,0.038085938,1.8125,-103.09375,-46.09375,0.0,0.0,0.0
1664567019467,-0.26464844,0.10449219,-0.018554688,5.53125,-153.15625,-32.65625,-65.6875,30.9375,-140.125
1664567019484,-1.1201172,0.07128906,-0.13867188,-78.875,-220.0,-6.78125,0.0,0.0,0.0
1664567019524,-2.0,0.5673828,1.0019531,-60.4375,-315.6875,-80.53125,0.0,0.0,0.0
1664567019565,-2.0,-0.103515625,1.0224609,66.6875,-385.15625,-122.5,0.0,0.0,0.0
1664567019604,-0.44140625,-0.06542969,1.0566406,99.03125,-119.03125,-75.34375,0.0,0.0,0.0
1664567019644,-0.21582031,-0.038085938,0.08691406,81.84375,48.8125,-5.03125,0.0,0.0,0.0
1664567019684,0.42578125,0.34277344,-0.5078125,-17.09375,75.90625,23.1875,0.0,0.0,0.0
1664567019723,0.6640625,0.43652344,-0.6904297,-5.21875,1.625,113.9375,0.0,0.0,0.0
1664567019764,-0.3828125,0.041015625,-0.032226562,-79.375,284.53125,50.78125,0.0,0.0,0.0
1664567019804,-1.3681641,0.041992188,0.17089844,5.46875,111.125,40.15625,0.0,0.0,0.0
1664567019844,-0.19726562,0.5058594,-0.9248047,-212.25,125.34375,-82.34375,0.0,0.0,0.0
1664567019884,-0.85839844,0.16894531,0.5390625,-169.5,-217.375,-9.90625,0.0,0.0,0.0
1664567019944,-2.0,0.65722656,9.765625E-4,-41.15625,286.78125,160.8125,-63.3125,28.25,-115.125
1664567019964,-1.96875,-0.60839844,0.9160156,95.625,102.34375,69.125,0.0,0.0,0.0
1664567020004,-2.0,-0.44726562,0.78515625,41.0,315.21875,-93.34375,0.0,0.0,0.0
1664567020044,-1.3232422,0.95214844,0.64453125,136.03125,162.75,20.8125,0.0,0.0,0.0
1664567020084,0.56152344,0.12597656,0.047851562,-135.4375,122.25,1.375,0.0,0.0,0.0
1664567020124,-0.3720703,-0.56347656,-0.6015625,-23.09375,-3.25,1.8125,0.0,0.0,0.0
1664567020164,0.3154297,0.42578125,-0.022460938,85.0,-81.125,-4.78125,0.0,0.0,0.0
1664567020204,0.13085938,-0.29589844,0.0107421875,-4.59375,-106.59375,-38.21875,0.0,0.0,0.0
1664567020246,-0.24804688,-0.23144531,-0.23046875,58.59375,-121.0,-69.0,0.0,0.0,0.0
1664567020284,-1.7714844,0.2421875,-0.30273438,-68.875,-293.65625,4.375,0.0,0.0,0.0
1664567020324,-2.0,0.7548828,1.2275391,-22.90625,-250.75,-96.5625,0.0,0.0,0.0
1664567020363,-2.0,-0.17871094,1.0234375,-202.34375,-243.90625,-171.15625,0.0,0.0,0.0
1664567020404,-0.5058594,-0.87890625,0.49316406,208.125,-201.5625,-169.8125,0.0,0.0,0.0
1664567020464,1.1074219,0.2890625,0.27246094,185.15625,-68.9375,8.71875,-60.4375,21.5,-104.125
1664567020484,0.62890625,0.5332031,-1.2890625,24.8125,163.25,70.78125,0.0,0.0,0.0
1664567020524,0.62890625,0.15625,-0.5644531,21.21875,128.34375,55.15625,0.0,0.0,0.0
1664567020564,-0.35058594,0.013671875,0.8359375,-38.40625,408.625,82.6875,0.0,0.0,0.0
1664567020604,-1.1630859,0.06738281,-0.07910156,-106.8125,63.40625,24.8125,0.0,0.0,0.0
1664567020644,-1.0117188,0.28222656,-0.24707031,-40.78125,109.40625,-5.21875,0.0,0.0,0.0
1664567020684,0.6201172,-0.0703125,-0.4716797,99.09375,-139.40625,-75.15625,0.0,0.0,0.0
1664567020724,-2.0,2.0,0.21875,-218.75,-250.375,217.4375,0.0,0.0,0.0
1664567020764,-1.1748047,-0.1484375,-0.8232422,-202.15625,105.5,52.71875,0.0,0.0,0.0
1664567020804,-2.0,-0.22265625,1.7519531,97.40625,148.96875,-18.4375,0.0,0.0,0.0
1664567020844,-2.0,-0.390625,0.48828125,-20.03125,348.96875,-159.4375,0.0,0.0,0.0
1664567020884,-0.77441406,0.9277344,0.09082031,66.03125,186.75,0.65625,0.0,0.0,0.0
1664567020944,-0.23242188,-0.71972656,0.2109375,-32.90625,76.21875,18.53125,-62.25,32.125,-141.8125
1664567020964,0.16992188,-0.4423828,0.29003906,15.1875,27.625,13.40625,0.0,0.0,0.0
1664567021004,-0.030273438,-0.05078125,-0.025390625,25.125,-56.65625,-8.5,0.0,0.0,0.0
1664567021044,0.25,-0.3486328,-0.29882812,-3.625,-109.5,-21.3125,0.0,0.0,0.0
1664567021084,-0.4501953,0.2861328,0.12011719,99.40625,-146.5,-16.96875,0.0,0.0,0.0
1664567021124,-1.5654297,0.3798828,-0.3623047,-78.4375,-202.84375,-20.03125,0.0,0.0,0.0
1664567021167,-2.0,0.8457031,1.3916016,26.0,-268.09375,19.03125,0.0,0.0,0.0
1664567021204,-2.0,-0.19042969,1.2509766,-29.875,-193.0,-81.375,0.0,0.0,0.0
1664567021245,-1.0371094,-0.4794922,0.19335938,83.71875,-88.8125,-147.28125,0.0,0.0,0.0
1664567021284,0.6123047,0.06542969,-0.15136719,88.71875,-50.90625,-28.21875,0.0,0.0,0.0
1664567021325,0.97265625,0.30566406,-1.2197266,65.34375,-26.1875,53.21875,0.0,0.0,0.0
1664567021365,0.8613281,0.3359375,-0.45703125,55.84375,85.96875,119.125,0.0,0.0,0.0
1664567021404,-0.55371094,-0.1328125,0.2607422,-8.4375,375.90625,-31.4375,0.0,0.0,0.0
1664567021444,-1.2617188,0.22460938,-0.19042969,-56.71875,43.5,49.375,-62.25,29.3125,-123.0625
1664567021484,-0.68359375,0.17773438,0.2421875,-84.3125,-35.15625,-85.90625,0.0,0.0,0.0
1664567021524,-2.0,2.0,1.4814453,117.65625,-174.875,400.4375,0.0,0.0,0.0
1664567021564,-0.11230469,-0.10253906,-1.2011719,-218.9375,261.34375,22.03125,0.0,0.0,0.0
1664567021603,-2.0,0.5878906,0.3955078,129.9375,-14.40625,263.59375,0.0,0.0,0.0
1664567021644,-2.0,-0.13671875,1.6113281,95.75,234.96875,-75.8125,0.0,0.0,0.0
1664567021684,-2.0,-0.625,0.24707031,-94.5625,270.75,-150.28125,0.0,0.0,0.0
1664567021724,-0.2109375,1.4990234,0.24121094,71.03125,192.375,68.40625,0.0,0.0,0.0
1664567021765,-0.5097656,-1.0019531,0.3486328,41.625,3.21875,76.15625,0.0,0.0,0.0
1664567021805,0.4091797,0.27148438,0.17773438,58.09375,1.375,21.96875,0.0,0.0,0.0
1664567021844,9.765625E-4,-0.1953125,0.026367188,2.0,-47.4375,-6.71875,0.0,0.0,0.0
1664567021883,0.25097656,-0.41503906,-0.34570312,12.0,-107.75,-47.625,0.0,0.0,0.0
1664567021924,-0.72558594,0.33789062,-0.013671875,101.71875,-162.78125,-18.5625,-61.5,30.0625,-131.4375
1664567021964,-2.0,-0.02734375,-0.46972656,-34.375,-290.96875,-62.5,0.0,0.0,0.0
1664567022004,-2.0,0.9375,1.2109375,-104.1875,-161.875,-57.3125,0.0,0.0,0.0
1664567022043,-2.0,-0.38085938,1.3085938,-67.15625,-187.40625,-117.4375,0.0,0.0,0.0
1664567022084,-1.1376953,-0.68847656,0.15820312,182.1875,-95.90625,-179.65625,0.0,0.0,0.0
1664567022124,0.96875,0.19140625,-0.3984375,137.3125,-58.84375,1.6875,0.0,0.0,0.0
1664567022164,1.0957031,0.38183594,-1.1210938,71.09375,6.5625,87.375,0.0,0.0,0.0
1664567022204,0.5683594,0.07714844,-0.43652344,62.5,238.21875,68.65625,0.0,0.0,0.0
1664567022244,-0.52441406,0.18261719,0.0546875,40.5,327.0625,-20.9375,0.0,0.0,0.0
1664567022284,-1.6689453,0.71777344,0.9550781,-119.40625,-49.625,75.90625,0.0,0.0,0.0
1664567022324,0.46484375,-0.34960938,-0.6464844,-158.28125,77.6875,-178.125,0.0,0.0,0.0
1664567022363,-2.0,1.4707031,0.10058594,-134.65625,165.375,84.21875,0.0,0.0,0.0
1664567022404,0.2890625,-0.48535156,0.17578125,-140.40625,-178.0,-147.59375,0.0,0.0,0.0
1664567022444,-2.0,0.5810547,0.2265625,79.6875,166.4375,172.40625,-58.375,27.9375,-114.5
1664567022484,-1.6943359,-0.13867188,1.3564453,90.125,250.84375,-23.8125,0.0,0.0,0.0
1664567022524,-2.0,-0.5810547,0.53027344,-10.6875,229.65625,-48.53125,0.0,0.0,0.0
1664567022564,0.22851562,0.62597656,0.05859375,-71.0,218.1875,41.0625,0.0,0.0,0.0
1664567022604,-0.86035156,-0.8486328,0.56347656,49.3125,2.125,81.40625,0.0,0.0,0.0
1664567022644,0.5078125,-0.057617188,0.37597656,60.34375,9.8125,-22.59375,0.0,0.0,0.0
1664567022686,-0.022460938,-0.16601562,-0.09277344,-24.5,-35.125,-37.5,0.0,0.0,0.0
1664567022726,0.25390625,-0.40429688,-0.24902344,-1.1875,-115.6875,-55.5625,0.0,0.0,0.0
1664567022766,-0.74902344,0.16796875,-0.05859375,98.25,-149.375,-41.65625,0.0,0.0,0.0
1664567022804,-2.0,0.4482422,0.16796875,-110.3125,-349.875,-28.40625,0.0,0.0,0.0
1664567022844,-2.0,0.71972656,1.5410156,-70.28125,-251.65625,-66.53125,0.0,0.0,0.0
1664567022884,-2.0,-0.26464844,0.86035156,-112.1875,-155.09375,-202.34375,0.0,0.0,0.0
1664567022926,-0.6376953,-0.64941406,-0.080078125,239.1875,-127.8125,-170.5625,-60.875,22.0625,-107.625
1664567022964,0.9033203,0.40722656,-0.51171875,115.21875,-63.5625,30.4375,0.0,0.0,0.0
1664567023006,1.0986328,0.7109375,-1.1904297,-56.59375,116.875,131.9375,0.0,0.0,0.0
1664567023044,0.2939453,-0.0068359375,-0.111328125,46.0,148.71875,94.15625,0.0,0.0,0.0
1664567023084,-0.86035156,-0.14257812,0.4345703,30.5,273.0625,-6.0,0.0,0.0,0.0
1664567023125,-0.95703125,0.29492188,-0.078125,-133.625,66.6875,31.0625,0.0,0.0,0.0
1664567023164,0.14257812,0.07324219,-0.25878906,-89.90625,108.125,-151.75,0.0,0.0,0.0
1664567023204,-2.0,2.0,1.0888672,310.96875,-661.34375,568.90625,0.0,0.0,0.0
1664567023245,-0.043945312,-0.41796875,-1.2138672,-150.03125,245.34375,-29.3125,0.0,0.0,0.0
1664567023284,-2.0,0.17871094,1.6455078,201.875,75.59375,271.40625,0.0,0.0,0.0
1664567023324,-1.1113281,0.265625,0.8642578,21.34375,348.1875,-61.84375,0.0,0.0,0.0
1664567023364,-2.0,-0.27441406,0.32714844,105.5,164.28125,-73.75,0.0,0.0,0.0
1664567023403,0.62109375,1.1132812,-0.02734375,-169.875,180.34375,30.8125,0.0,0.0,0.0
1664567023444,-0.3076172,-0.9902344,-0.1953125,11.53125,-25.34375,36.78125,-61.8125,29.4375,-136.6875
1664567023484,0.3359375,0.18359375,0.09863281,63.34375,-53.46875,2.90625,0.0,0.0,0.0
1664567023524,0.095703125,-0.22167969,-0.10546875,21.40625,-56.34375,-39.875,0.0,0.0,0.0
1664567023564,-0.09082031,-0.18652344,-0.123046875,19.625,-107.25,-43.46875,0.0,0.0,0.0
1664567023606,-1.1132812,0.24804688,-0.34570312,37.75,-158.84375,-53.84375,0.0,0.0,0.0
1664567023644,-2.0,1.6855469,1.1748047,64.4375,-317.9375,-31.5625,0.0,0.0,0.0
1664567023685,-2.0,0.10644531,1.5908203,-149.125,-301.65625,15.5,0.0,0.0,0.0
1664567023724,-2.0,-0.4423828,0.45410156,-34.9375,-31.9375,-191.71875,0.0,0.0,0.0
1664567023764,-0.4560547,-0.005859375,-0.6142578,205.5625,-90.28125,-50.25,0.0,0.0,0.0
1664567023805,0.8925781,0.27929688,-0.79003906,43.6875,-135.21875,59.5,0.0,0.0,0.0
1664567023844,1.0888672,0.4375,-0.82910156,-50.375,57.78125,133.90625,0.0,0.0,0.0
1664567023884,0.13769531,-0.29101562,0.25878906,68.40625,218.4375,6.46875,0.0,0.0,0.0
1664567023926,-0.60253906,-0.11230469,-0.034179688,-64.03125,208.34375,-30.03125,-60.4375,27.1875,-117.9375
1664567023964,-1.2255859,0.7685547,0.20605469,-193.8125,-20.65625,87.8125,0.0,0.0,0.0
1664567024004,0.16894531,0.21777344,-0.5410156,-146.875,83.25,-148.5625,0.0,0.0,0.0
1664567024044,-1.3945312,-0.80371094,-0.65234375,-305.375,-164.6875,-113.34375,0.0,0.0,0.0
1664567024084,-2.0,0.48632812,0.19335938,-61.28125,278.125,96.3125,0.0,0.0,0.0
1664567024124,-2.0,-0.40039062,0.67285156,34.09375,109.25,19.75,0.0,0.0,0.0
1664567024164,-2.0,-0.055664062,0.89453125,-42.75,348.0,2.96875,0.0,0.0,0.0
1664567024206,-0.86621094,0.8886719,0.40429688,162.59375,157.53125,45.09375,0.0,0.0,0.0
1664567024244,0.77734375,-0.40039062,0.1953125,-42.3125,134.75,17.1875,0.0,0.0,0.0
1664567024283,0.01171875,-0.31152344,0.0126953125,-22.0625,15.5625,0.0,0.0,0.0,0.0
1664567024344,-0.041015625,-0.0625,-0.091796875,35.25,-59.59375,-2.21875,0.0,0.0,0.0
1664567024364,-0.0068359375,-0.30273438,-0.13183594,11.09375,-110.3125,-35.34375,0.0,0.0,0.0
1664567024404,-0.4453125,-0.047851562,-0.39257812,77.4375,-157.84375,-39.1875,0.0,0.0,0.0
1664567024444,-2.0,0.63378906,0.5595703,-3.1875,-377.09375,-0.1875,-63.0,27.5,-128.3125
1664567024484,-2.0,0.89746094,0.80078125,-209.4375,-199.28125,-11.78125,0.0,0.0,0.0
1664567024524,-2.0,-0.52441406,1.3378906,-75.09375,-207.78125,-51.03125,0.0,0.0,0.0
1664567024564,-1.0253906,-0.85058594,0.0126953125,151.03125,-121.09375,-218.71875,0.0,0.0,0.0
1664567024607,0.8515625,0.29589844,-0.31835938,149.75,-65.875,15.5,0.0,0.0,0.0
1664567024644,1.1044922,0.31835938,-1.1201172,54.6875,39.0,143.53125,0.0,0.0,0.0
1664567024684,0.5410156,-0.0390625,-0.40820312,94.53125,174.25,81.53125,0.0,0.0,0.0
1664567024724,-0.73828125,0.125,0.2939453,35.09375,282.5625,-35.34375,0.0,0.0,0.0
1664567024764,-1.3535156,0.59472656,0.4501953,-226.53125,30.875,33.96875,0.0,0.0,0.0
1664567024804,0.1953125,0.30273438,-1.2714844,-145.28125,135.40625,-106.59375,0.0,0.0,0.0
1664567024844,-1.8359375,0.24511719,-0.020507812,-24.96875,-635.8125,66.34375,0.0,0.0,0.0
1664567024885,-1.3759766,0.54296875,-0.95996094,-109.8125,270.6875,60.96875,0.0,0.0,0.0
1664567024924,-2.0,-0.030273438,0.049804688,217.21875,56.1875,58.21875,-61.8125,25.5625,-115.6875
1664567024964,-2.0,-0.12890625,1.0419922,0.0,417.21875,-76.125,0.0,0.0,0.0
1664567025004,-2.0,0.7861328,0.9707031,-8.3125,249.375,50.8125,0.0,0.0,0.0
1664567025044,0.99316406,0.48535156,0.3408203,-118.4375,92.8125,7.375,0.0,0.0,0.0
1664567025084,0.12792969,-0.85058594,-0.33398438,-15.875,-42.875,-3.0,0.0,0.0,0.0
1664567025124,0.018554688,0.016601562,-0.27441406,66.21875,-88.46875,-17.59375,0.0,0.0,0.0
1664567025165,0.29589844,-0.068359375,-0.17382812,57.65625,-123.6875,-60.1875,0.0,0.0,0.0
1664567025205,-0.30371094,0.10058594,-0.22070312,42.71875,-114.40625,-38.65625,0.0,0.0,0.0
1664567025244,-1.6074219,0.38085938,-0.28320312,-86.9375,-245.125,-52.3125,0.0,0.0,0.0
1664567025284,-2.0,0.93847656,1.8320312,97.03125,-321.65625,-60.875,0.0,0.0,0.0
1664567025324,-2.0,-0.31152344,1.1582031,-171.9375,-318.9375,-123.4375,0.0,0.0,0.0
1664567025364,-0.765625,-0.828125,0.4423828,209.625,-216.5,-192.28125,0.0,0.0,0.0
1664567025404,0.828125,0.21875,-0.078125,161.71875,-22.78125,8.15625,0.0,0.0,0.0
1664567025444,0.61035156,0.4248047,-1.6738281,16.84375,85.4375,107.96875,-55.375,22.5625,-98.875
1664567025484,0.6044922,0.40039062,-0.29101562,56.75,64.3125,78.96875,0.0,0.0,0.0
1664567025527,-0.8730469,-0.12695312,-0.03125,18.21875,412.875,41.375,0.0,0.0,0.0
1664567025566,-0.7402344,-0.17480469,-0.001953125,-109.5,12.0,-11.3125,0.0,0.0,0.0
1664567025604,-0.28027344,0.4501953,-0.6826172,-82.59375,168.125,-28.46875,0.0,0.0,0.0
1664567025644,-2.0,2.0,2.0,-1.0,25.6875,158.90625,0.0,0.0,0.0
1664567025685,0.81347656,-0.9189453,-1.7421875,-314.34375,340.5625,-82.34375,0.0,0.0,0.0
1664567025725,-2.0,0.3671875,-0.16796875,33.25,205.25,189.9375,0.0,0.0,0.0
1664567025763,-2.0,-0.14453125,0.45507812,50.09375,299.65625,-55.8125,0.0,0.0,0.0
1664567025804,-2.0,-0.18554688,0.49023438,89.875,232.84375,-14.1875,0.0,0.0,0.0
1664567025844,0.05859375,0.88671875,-0.0390625,-182.8125,180.40625,28.0,0.0,0.0,0.0
1664567025885,-0.57128906,-1.03125,0.29296875,82.375,31.96875,65.09375,0.0,0.0,0.0
1664567025927,0.28222656,0.12597656,0.048828125,56.5,-11.71875,-14.1875,-65.875,28.25,-137.0
1664567025964,0.03125,-0.15625,-0.23339844,-0.0625,-91.15625,-22.59375,0.0,0.0,0.0
1664567026004,-0.27734375,0.051757812,-0.080078125,49.4375,-176.71875,-11.96875,0.0,0.0,0.0
1664567026044,-1.7949219,0.19238281,-0.18457031,-42.125,-267.46875,-30.65625,0.0,0.0,0.0
1664567026084,-2.0,0.7558594,0.7529297,-71.5,-265.75,-42.625,0.0,0.0,0.0
1664567026124,-2.0,-0.033203125,1.8115234,-97.84375,-331.625,-30.28125,0.0,0.0,0.0
1664567026164,-0.96777344,-1.0917969,0.33789062,118.15625,-70.03125,-210.28125,0.0,0.0,0.0
1664567026204,0.5595703,0.024414062,-0.07421875,156.96875,-50.1875,-45.125,0.0,0.0,0.0
1664567026245,0.9189453,0.5439453,-1.3857422,95.5625,-34.4375,88.3125,0.0,0.0,0.0
1664567026284,0.7998047,-0.038085938,-0.68652344,146.03125,80.5625,51.4375,0.0,0.0,0.0
1664567026325,-0.82714844,0.32617188,0.7597656,61.5,445.40625,-19.59375,0.0,0.0,0.0
1664567026364,-0.8574219,0.033203125,0.1640625,-203.09375,-51.84375,-27.59375,0.0,0.0,0.0
1664567026405,-0.3984375,0.82421875,-0.81933594,-12.15625,161.125,23.96875,0.0,0.0,0.0
1664567026444,-2.0,2.0,1.9638672,31.96875,-152.46875,243.03125,-63.625,26.0,-119.75
1664567026486,1.0976562,-0.59277344,-0.6171875,-134.21875,107.78125,-111.65625,0.0,0.0,0.0
1664567026524,-2.0,0.67285156,0.21972656,20.0625,211.53125,321.625,0.0,0.0,0.0
1664567026564,-2.0,-0.32128906,0.68652344,103.1875,260.90625,-31.9375,0.0,0.0,0.0
1664567026604,-2.0,-0.2626953,0.36621094,41.84375,231.25,-88.6875,0.0,0.0,0.0
1664567026644,0.15234375,1.2998047,0.22851562,28.5625,198.28125,69.625,0.0,0.0,0.0
1664567026684,-0.8154297,-0.6777344,0.3310547,1.6875,55.09375,90.3125,0.0,0.0,0.0
1664567026724,0.39746094,-0.1015625,-0.044921875,-11.90625,18.96875,4.25,0.0,0.0,0.0
1664567026766,-0.08300781,-0.2685547,-0.015625,5.0625,-45.84375,-20.53125,0.0,0.0,0.0
1664567026807,0.017578125,-0.24707031,-0.15039062,19.40625,-112.8125,-39.75,0.0,0.0,0.0
1664567026845,-0.7841797,0.25390625,-0.24023438,83.90625,-154.3125,-47.25,0.0,0.0,0.0
1664567026884,-2.0,0.8183594,0.083984375,-73.625,-370.0,-79.125,0.0,0.0,0.0
1664567026925,-2.0,1.2246094,1.0273438,-72.65625,-219.75,6.6875,-63.0,25.6875,-121.6875
1664567026964,-2.0,0.0087890625,1.8652344,399.15625,-155.46875,-3.0625,0.0,0.0,0.0
1664567027004,-0.77246094,0.12011719,0.51660156,2.5,-70.5,-89.0625,0.0,0.0,0.0
1664567027044,0.6113281,-0.50097656,-0.75683594,-36.9375,34.46875,-13.6875,0.0,0.0,0.0
1664567027084,1.2646484,0.34179688,-0.93359375,10.78125,-54.6875,40.09375,0.0,0.0,0.0
1664567027124,-0.3173828,0.095703125,-0.54296875,99.53125,152.875,100.3125,0.0,0.0,0.0
1664567027164,-0.9863281,0.12011719,0.90234375,146.34375,135.65625,-6.53125,0.0,0.0,0.0
1664567027205,-0.56933594,-0.23339844,0.3955078,-131.4375,-0.5625,-26.8125,0.0,0.0,0.0
1664567027244,-0.5878906,1.1289062,-1.0849609,5.1875,-60.0,-24.25,0.0,0.0,0.0
1664567027284,0.0068359375,-0.56347656,0.4560547,-20.34375,247.65625,-132.8125,0.0,0.0,0.0
1664567027324,-1.96875,0.89746094,0.57421875,64.375,36.65625,72.0625,0.0,0.0,0.0
1664567027364,-2.0,-0.23339844,1.5400391,7.8125,283.1875,-22.46875,0.0,0.0,0.0
1664567027403,-2.0,0.06542969,0.875,42.96875,342.09375,-70.03125,0.0,0.0,0.0
1664567027444,0.2685547,1.6669922,0.46972656,68.15625,238.8125,-15.40625,-60.3125,26.0,-133.25
1664567027485,-0.041015625,-0.6230469,0.22363281,-31.625,99.28125,65.0625,0.0,0.0,0.0
1664567027524,0.13476562,0.20605469,-0.046875,-8.8125,-1.84375,-4.96875,0.0,0.0,0.0
1664567027564,0.08203125,-0.017578125,-0.17089844,-9.96875,-52.875,1.3125,0.0,0.0,0.0
1664567027604,0.016601562,-0.38964844,-0.23242188,29.90625,-137.78125,-14.96875,0.0,0.0,0.0
1664567027645,-0.5,0.38378906,-0.18164062,7.1875,-181.71875,-33.46875,0.0,0.0,0.0
1664567027685,-2.0,0.61035156,0.26367188,-50.0625,-223.53125,-59.71875,0.0,0.0,0.0
1664567027724,-2.0,0.71191406,1.1552734,-210.90625,-316.40625,39.0,0.0,0.0,0.0
1664567027764,-2.0,-0.2685547,1.6503906,-129.46875,-206.4375,-10.15625,0.0,0.0,0.0
1664567027804,-1.1738281,-0.45117188,0.57910156,-15.21875,-117.3125,-120.8125,0.0,0.0,0.0
1664567027844,0.54296875,0.20117188,-0.20117188,35.09375,-6.90625,-86.25,0.0,0.0,0.0
1664567027884,0.9404297,0.5917969,-0.9902344,-22.34375,60.65625,38.0625,0.0,0.0,0.0
1664567027924,0.6611328,0.028320312,-0.66308594,-2.875,76.46875,130.46875,-55.9375,19.8125,-104.3125
1664567027964,-0.921875,-0.15039062,0.56347656,-84.25,306.1875,122.71875,0.0,0.0,0.0
1664567028006,-0.86035156,0.0703125,0.328125,-49.875,106.1875,9.9375,0.0,0.0,0.0
1664567028044,0.30859375,-0.13085938,-0.5078125,-73.5625,59.25,-110.1875,0.0,0.0,0.0
1664567028085,-2.0,2.0,1.7099609,98.75,-99.625,138.46875,0.0,0.0,0.0
1664567028124,-0.5058594,-0.051757812,-1.2011719,-177.9375,110.9375,-17.46875,0.0,0.0,0.0
1664567028164,-2.0,0.14453125,0.9902344,166.125,190.34375,163.4375,0.0,0.0,0.0
1664567028204,-2.0,-0.24707031,1.1787109,46.8125,245.28125,-4.03125,0.0,0.0,0.0
1664567028244,-1.4511719,0.61621094,0.4482422,216.71875,215.0,-32.78125,0.0,0.0,0.0
1664567028284,0.4326172,0.5566406,-0.17480469,16.90625,132.5625,58.875,0.0,0.0,0.0
1664567028324,-0.24902344,-0.3466797,0.032226562,41.5,-0.75,5.53125,0.0,0.0,0.0
1664567028364,0.10644531,0.18652344,0.21484375,48.75,-39.5,5.0625,0.0,0.0,0.0
1664567028404,0.0126953125,-0.21972656,0.015625,3.34375,-117.5625,-17.65625,0.0,0.0,0.0
1664567028445,-0.23339844,-0.045898438,-0.28027344,-66.90625,-173.53125,-39.6875,-63.0,27.1875,-133.375
1664567028484,-1.9189453,0.7832031,0.3046875,-123.84375,-150.28125,-78.375,0.0,0.0,0.0
1664567028524,-2.0,0.23730469,1.2617188,-52.625,-347.71875,4.25,0.0,0.0,0.0
1664567028565,-2.0,-0.42578125,1.9257812,-91.03125,-197.09375,-32.71875,0.0,0.0,0.0
1664567028605,-0.91015625,-0.44335938,0.6875,-70.875,-189.40625,-109.15625,0.0,0.0,0.0
1664567028644,0.24902344,0.04296875,0.051757812,42.46875,-63.125,-67.71875,0.0,0.0,0.0
1664567028687,0.63964844,0.38476562,-1.0224609,-5.9375,-8.625,37.59375,0.0,0.0,0.0
1664567028726,0.9423828,0.2626953,-0.7246094,59.25,24.75,122.71875,0.0,0.0,0.0
1664567028764,-0.7919922,-0.0859375,0.6269531,-78.5,289.84375,127.125,0.0,0.0,0.0
1664567028804,-0.9824219,-0.15234375,0.3515625,-97.96875,158.1875,17.4375,0.0,0.0,0.0
1664567028845,0.09667969,0.12792969,-0.57910156,-42.0,90.75,-81.75,0.0,0.0,0.0
1664567028884,-2.0,1.2011719,2.0,463.125,-265.28125,202.875,0.0,0.0,0.0
1664567028925,-2.0,0.1953125,-0.9472656,-203.875,81.28125,66.5625,-55.375,22.5625,-109.5625
1664567028964,-2.0,-0.109375,0.9033203,179.1875,220.25,96.46875,0.0,0.0,0.0
1664567029004,-2.0,-0.38671875,0.53222656,-8.3125,320.125,14.28125,0.0,0.0,0.0
1664567029044,-1.1582031,0.7060547,0.4609375,183.8125,208.1875,-53.96875,0.0,0.0,0.0
1664567029084,0.6591797,0.6357422,0.040039062,-18.5,167.59375,64.4375,0.0,0.0,0.0
1664567029125,0.061523438,-0.3046875,-0.24121094,40.9375,6.03125,10.59375,0.0,0.0,0.0
1664567029164,0.028320312,0.13085938,0.06933594,3.34375,-42.1875,-8.25,0.0,0.0,0.0
1664567029204,0.015625,-0.23828125,0.09082031,-1.0625,-89.25,-33.28125,0.0,0.0,0.0
1664567029244,-0.34179688,-0.09667969,-0.26660156,-78.6875,-138.25,-53.0625,0.0,0.0,0.0
1664567029285,-2.0,0.7890625,0.17578125,-45.96875,-107.625,-94.0,0.0,0.0,0.0
1664567029325,-2.0,0.703125,1.2294922,-56.46875,-297.8125,-30.65625,0.0,0.0,0.0
1664567029365,-2.0,-0.7470703,1.5693359,-71.0625,-235.96875,-44.09375,0.0,0.0,0.0
1664567029403,-0.9501953,-0.34277344,0.50097656,62.4375,-190.6875,-110.625,0.0,0.0,0.0
1664567029444,0.171875,0.07714844,0.265625,80.78125,-24.75,-8.9375,-56.6875,18.3125,-106.375
1664567029483,0.83984375,0.29003906,-1.2792969,-17.84375,33.0,57.84375,0.0,0.0,0.0
1664567029524,1.2783203,0.58984375,-0.640625,51.875,-14.34375,130.28125,0.0,0.0,0.0
1664567029565,-0.89160156,-0.03515625,0.3173828,-52.875,367.65625,67.5,0.0,0.0,0.0
1664567029624,-1.3310547,-0.10253906,0.2265625,-74.125,65.90625,5.40625,0.0,0.0,0.0
1664567029644,-0.016601562,0.059570312,-0.45117188,-89.5,62.71875,-93.28125,0.0,0.0,0.0
1664567029684,-2.0,2.0,0.27929688,-46.21875,87.3125,172.71875,0.0,0.0,0.0
1664567029725,0.51464844,-0.6298828,-0.54003906,-155.71875,341.65625,4.25,0.0,0.0,0.0
1664567029764,-2.0,0.45898438,0.08691406,-11.5625,152.6875,209.59375,0.0,0.0,0.0
1664567029805,-2.0,-0.45898438,1.0371094,137.375,238.5,-55.3125,0.0,0.0,0.0
1664567029844,-1.9921875,0.030273438,0.2783203,138.53125,223.3125,-17.34375,0.0,0.0,0.0
1664567029884,0.4091797,1.0576172,0.06738281,-216.375,202.8125,37.53125,0.0,0.0,0.0
1664567029924,-0.7578125,-0.9765625,0.20410156,66.6875,-5.5,79.5,-59.25,28.0625,-136.125
1664567029966,0.34472656,0.14355469,0.045898438,69.0625,-30.46875,-7.875,0.0,0.0,0.0
1664567030004,0.015625,-0.31054688,0.15234375,12.125,-54.15625,-32.3125,0.0,0.0,0.0
1664567030044,0.009765625,-0.40722656,-0.13867188,6.09375,-135.625,-43.65625,0.0,0.0,0.0
1664567030084,-0.9560547,0.22265625,-0.19824219,53.28125,-173.53125,-38.53125,0.0,0.0,0.0
1664567030124,-2.0,1.5029297,1.0595703,38.6875,-427.9375,-73.0625,0.0,0.0,0.0
1664567030164,-2.0,0.3095703,1.7324219,-106.09375,-361.28125,1.625,0.0,0.0,0.0
1664567030205,-2.0,-0.32128906,0.11035156,-29.6875,-143.375,-131.4375,0.0,0.0,0.0
1664567030244,0.06542969,0.17089844,0.14160156,204.4375,-145.65625,-94.1875,0.0,0.0,0.0
1664567030285,1.0498047,0.11425781,-0.9472656,66.21875,2.125,52.90625,0.0,0.0,0.0
1664567030324,0.6123047,0.15917969,-1.4794922,81.53125,59.0,176.4375,0.0,0.0,0.0
1664567030364,0.09667969,-0.07324219,0.5126953,85.6875,241.6875,65.28125,0.0,0.0,0.0
1664567030404,-1.1181641,0.12695312,0.359375,-23.6875,213.53125,-82.65625,0.0,0.0,0.0
1664567030444,-0.8808594,0.5917969,-0.359375,-131.5,95.375,46.5,-55.9375,29.875,-118.375
1664567030484,0.328125,-0.029296875,-0.60839844,-141.9375,75.125,-150.34375,0.0,0.0,0.0
1664567030523,-1.7880859,0.5361328,-0.3251953,-145.78125,-530.03125,76.59375,0.0,0.0,0.0
1664567030565,-0.86816406,0.23632812,-0.81347656,-222.1875,285.15625,52.09375,0.0,0.0,0.0
1664567030606,-2.0,-0.54785156,2.0,230.34375,-15.40625,120.28125,0.0,0.0,0.0
1664567030644,-1.625,-0.22949219,0.9160156,50.875,295.40625,-95.78125,0.0,0.0,0.0
1664567030684,-1.1386719,0.6308594,0.63964844,142.375,178.5,13.53125,0.0,0.0,0.0
1664567030726,0.88671875,0.6875,0.6455078,-166.28125,195.0,12.625,0.0,0.0,0.0
1664567030764,0.052734375,-0.61816406,-0.44726562,-67.75,-3.5,-3.75,0.0,0.0,0.0
1664567030804,0.045898438,0.048828125,-0.024414062,96.34375,-81.9375,8.84375,0.0,0.0,0.0
1664567030844,0.15917969,-0.42285156,-0.22558594,-27.53125,-83.21875,-59.40625,0.0,0.0,0.0
1664567030883,-0.29003906,-0.17480469,-0.12402344,98.3125,-137.09375,-64.46875,0.0,0.0,0.0
1664567030925,-1.2851562,0.35253906,-0.14746094,28.65625,-204.3125,-48.96875,-59.375,28.5625,-125.4375
1664567030964,-2.0,0.6894531,0.47753906,-9.21875,-217.25,-56.15625,0.0,0.0,0.0
1664567031004,-2.0,0.66015625,1.7451172,-45.4375,-394.1875,10.90625,0.0,0.0,0.0
1664567031044,-1.8300781,-0.57421875,0.20800781,-10.28125,4.0,-206.9375,0.0,0.0,0.0
1664567031084,0.21484375,-0.25097656,0.10839844,225.03125,-167.0,-40.90625,0.0,0.0,0.0
1664567031124,0.7363281,0.32128906,-1.1074219,59.125,35.1875,95.4375,0.0,0.0,0.0
1664567031164,1.0908203,0.8925781,-0.95214844,-52.375,80.90625,113.625,0.0,0.0,0.0
1664567031205,-0.296875,-0.29785156,0.4501953,26.09375,298.5625,36.375,0.0,0.0,0.0
1664567031245,-1.5546875,-0.21679688,0.28027344,-28.9375,88.4375,-15.875,0.0,0.0,0.0
1664567031284,-0.6455078,0.4189453,-0.15625,-93.40625,20.5625,23.84375,0.0,0.0,0.0
1664567031325,-2.0,2.0,0.5419922,-42.96875,116.375,112.46875,0.0,0.0,0.0
1664567031364,0.29101562,-0.66015625,-0.31152344,-179.6875,212.4375,-171.03125,0.0,0.0,0.0
1664567031405,-2.0,0.71191406,0.5527344,154.46875,136.21875,229.78125,0.0,0.0,0.0
1664567031444,-1.8632812,-0.015625,1.0361328,74.8125,287.9375,1.3125,-54.875,27.3125,-119.125
1664567031484,-2.0,-0.3359375,0.43164062,3.90625,219.53125,-51.46875,0.0,0.0,0.0
1664567031526,0.07519531,0.61035156,-0.14648438,-83.15625,166.0625,47.46875,0.0,0.0,0.0
1664567031564,-0.68066406,-1.0517578,0.24707031,33.375,29.9375,63.59375,0.0,0.0,0.0
1664567031604,0.28515625,0.42578125,0.42089844,104.59375,6.03125,-11.5625,0.0,0.0,0.0
1664567031644,0.09375,-0.3701172,-0.04296875,-25.53125,-44.8125,-29.75,0.0,0.0,0.0
1664567031685,0.10253906,-0.5019531,-0.32128906,47.53125,-137.84375,-49.8125,0.0,0.0,0.0
1664567031724,-1.2851562,0.14941406,-0.4794922,113.15625,-194.90625,-39.8125,0.0,0.0,0.0
1664567031764,-2.0,1.9589844,0.87402344,87.8125,-286.875,-56.21875,0.0,0.0,0.0
1664567031804,-2.0,0.7128906,1.4072266,-71.0,-351.21875,83.125,0.0,0.0,0.0
1664567031844,-2.0,-0.25585938,0.6484375,-142.40625,-24.0625,-207.0,0.0,0.0,0.0
1664567031887,-0.028320312,-0.625,-0.16113281,230.9375,-122.5,-103.15625,0.0,0.0,0.0
1664567031924,0.97753906,0.2763672,-0.35253906,88.90625,-47.1875,44.78125,-54.875,21.625,-107.75
1664567031964,1.1513672,0.32910156,-1.5615234,52.0,28.78125,141.9375,0.0,0.0,0.0
1664567032005,0.24707031,-0.005859375,0.2841797,40.09375,178.75,43.4375,0.0,0.0,0.0
1664567032043,-1.8779297,0.041015625,0.62109375,5.0,237.96875,-51.21875,0.0,0.0,0.0
1664567032084,-0.8261719,0.296875,-0.24902344,-175.6875,-27.125,33.25,0.0,0.0,0.0
1664567032128,-0.5449219,1.4863281,-1.2714844,-81.1875,159.53125,-1.0625,0.0,0.0,0.0
1664567032164,0.8925781,-1.3691406,0.9248047,-553.96875,-5.15625,-308.375,0.0,0.0,0.0
1664567032205,-2.0,0.38085938,-0.63183594,-128.625,312.125,119.375,0.0,0.0,0.0
1664567032246,-2.0,-0.34375,1.4853516,191.5,103.4375,-17.90625,0.0,0.0,0.0
1664567032284,-1.8486328,0.009765625,0.70214844,-55.3125,325.78125,-111.15625,0.0,0.0,0.0
1664567032325,-0.7167969,0.6738281,0.61621094,69.3125,151.28125,14.28125,0.0,0.0,0.0
1664567032364,0.41503906,-0.71484375,0.359375,-97.5625,96.125,44.84375,0.0,0.0,0.0
1664567032404,0.025390625,-0.3017578,0.115234375,-41.21875,31.0,22.03125,0.0,0.0,0.0
1664567032445,0.19824219,-0.15722656,-0.21777344,-18.4375,-54.03125,4.75,-57.75,29.4375,-130.5625
1664567032484,0.18847656,-0.7636719,-0.22558594,53.5,-105.65625,-42.9375,0.0,0.0,0.0
1664567032524,-0.51171875,-0.048828125,-0.5263672,213.375,-131.1875,-43.03125,0.0,0.0,0.0
1664567032564,-2.0,1.6152344,0.71777344,-53.0625,-406.875,37.9375,0.0,0.0,0.0
1664567032604,-2.0,0.59375,1.2177734,-232.3125,-83.625,-79.3125,0.0,0.0,0.0
1664567032644,-2.0,-0.546875,1.0898438,-214.8125,-116.34375,-46.15625,0.0,0.0,0.0
1664567032685,-1.0927734,-0.5488281,-0.22851562,130.59375,-57.375,-151.875,0.0,0.0,0.0
1664567032724,0.4326172,0.35546875,-0.37597656,165.6875,-131.25,-6.71875,0.0,0.0,0.0
1664567032764,1.2568359,0.33203125,-1.0771484,88.53125,-30.90625,111.875,0.0,0.0,0.0
1664567032804,0.82714844,0.18066406,-0.45117188,70.34375,140.625,112.84375,0.0,0.0,0.0
1664567032844,-1.1904297,0.025390625,0.5683594,-15.09375,292.84375,-27.3125,0.0,0.0,0.0
1664567032884,-1.2324219,0.125,0.3564453,-143.09375,-16.6875,28.3125,0.0,0.0,0.0
1664567032944,0.5019531,0.4453125,-1.4091797,-112.6875,125.09375,-49.625,-55.1875,26.0,-114.375
1664567032964,-1.6601562,-0.18261719,0.50097656,-271.8125,-110.78125,-157.5,0.0,0.0,0.0
1664567033004,-1.578125,0.45898438,-0.5498047,-155.90625,192.125,178.625,0.0,0.0,0.0
1664567033044,-2.0,-0.33691406,1.5888672,197.75,46.25,9.125,0.0,0.0,0.0
1664567033085,-2.0,0.30664062,0.6855469,-54.75,285.5625,-67.71875,0.0,0.0,0.0
1664567033124,-0.63964844,0.5527344,0.6777344,129.25,160.8125,2.3125,0.0,0.0,0.0
1664567033164,1.0449219,-0.0625,0.47851562,-122.6875,169.90625,11.03125,0.0,0.0,0.0
1664567033205,-0.095703125,-0.23632812,-0.33984375,-54.875,16.21875,-2.21875,0.0,0.0,0.0
1664567033244,0.026367188,-0.020507812,-0.24316406,9.1875,-60.4375,18.125,0.0,0.0,0.0
1664567033284,0.052734375,-0.6201172,-0.16601562,11.875,-91.875,-48.40625,0.0,0.0,0.0
1664567033324,-0.40429688,0.04296875,-0.43164062,103.625,-130.8125,-53.375,0.0,0.0,0.0
1664567033363,-2.0,1.0888672,0.3017578,54.1875,-366.28125,-3.125,0.0,0.0,0.0
1664567033404,-2.0,0.9316406,1.0498047,-212.90625,-195.3125,-15.46875,0.0,0.0,0.0
1664567033445,-2.0,-0.5253906,1.2568359,-106.03125,-172.375,-16.25,-53.375,27.0625,-112.25
1664567033484,-0.9736328,-0.39453125,0.25097656,61.8125,-18.25,-147.78125,0.0,0.0,0.0
1664567033544,0.5566406,0.29589844,-0.20996094,125.40625,-125.3125,-1.34375,0.0,0.0,0.0
1664567033565,1.0615234,0.11816406,-1.3212891,117.34375,-22.15625,90.875,0.0,0.0,0.0
1664567033604,0.6982422,0.14453125,-0.6201172,16.84375,86.59375,91.78125,0.0,0.0,0.0
1664567033644,-1.1083984,0.034179688,0.6826172,15.625,312.3125,-26.25,0.0,0.0,0.0
1664567033686,-1.1328125,0.25976562,0.3017578,-127.625,25.875,-0.8125,0.0,0.0,0.0
1664567033727,0.3388672,0.44726562,-1.4736328,-126.71875,35.625,-32.90625,0.0,0.0,0.0
1664567033764,-0.6533203,-0.9160156,1.3642578,-286.5,-438.3125,-130.09375,0.0,0.0,0.0
1664567033804,-1.7197266,0.6435547,-0.8027344,-143.9375,273.375,17.0625,0.0,0.0,0.0
1664567033844,-2.0,-0.24902344,1.4589844,272.4375,57.59375,-17.96875,0.0,0.0,0.0
1664567033905,-2.0,0.27441406,0.8691406,-30.96875,264.9375,-3.25,0.0,0.0,0.0
1664567033924,-0.54785156,0.20703125,0.4658203,142.375,133.40625,-4.15625,-57.625,28.5625,-127.25
1664567033964,0.83496094,0.21777344,0.46289062,-171.875,191.8125,-47.125,0.0,0.0,0.0
1664567034004,-0.1640625,-0.11425781,-0.19726562,-1.65625,15.5625,-4.71875,0.0,0.0,0.0
1664567034045,0.10644531,0.23730469,-0.04296875,57.0,-76.96875,15.65625,0.0,0.0,0.0
1664567034084,0.064453125,-0.51464844,-0.27539062,-24.4375,-110.0625,-54.6875,0.0,0.0,0.0
1664567034125,-0.7167969,-0.017578125,-0.16992188,51.0625,-147.84375,-59.65625,0.0,0.0,0.0
1664567034164,-2.0,1.6025391,0.53222656,42.65625,-360.625,-16.8125,0.0,0.0,0.0
1664567034205,-2.0,0.6513672,1.0390625,-140.15625,-172.0625,-3.875,0.0,0.0,0.0
1664567034264,-2.0,-0.044921875,0.77441406,-140.53125,-179.21875,-13.8125,0.0,0.0,0.0
1664567034284,-1.1435547,-0.47460938,0.4296875,54.375,-86.9375,-143.375,0.0,0.0,0.0
1664567034324,0.54785156,0.11035156,-0.11816406,86.65625,-35.46875,-33.71875,0.0,0.0,0.0
1664567034364,0.9248047,0.16894531,-1.2548828,76.8125,21.03125,97.6875,0.0,0.0,0.0
1664567034404,0.7207031,0.041992188,-0.4814453,54.0625,176.8125,11.9375,0.0,0.0,0.0
1664567034444,-0.9951172,0.4970703,0.67871094,34.78125,315.90625,-40.65625,-54.125,28.375,-115.25
1664567034484,-1.5283203,0.31835938,0.7138672,-222.375,-22.78125,17.875,0.0,0.0,0.0
1664567034525,0.7128906,0.13085938,-1.5556641,-117.1875,115.28125,-47.25,0.0,0.0,0.0
1664567034564,-2.0,1.1552734,0.28125,-139.46875,-512.53125,115.15625,0.0,0.0,0.0
1664567034604,-1.1220703,0.29003906,-0.7480469,-145.9375,245.34375,75.375,0.0,0.0,0.0
1664567034645,-2.0,-0.27441406,1.0839844,204.9375,19.6875,89.09375,0.0,0.0,0.0
1664567034684,-2.0,0.041015625,0.11328125,-34.1875,295.40625,-15.09375,0.0,0.0,0.0
1664567034724,-0.9111328,0.66015625,0.7402344,127.1875,151.78125,8.90625,0.0,0.0,0.0
1664567034763,0.75097656,-0.18261719,0.43164062,-163.28125,181.9375,-23.4375,0.0,0.0,0.0
1664567034805,-0.22949219,-0.3935547,-0.43164062,-57.6875,8.65625,17.0625,0.0,0.0,0.0
1664567034844,0.203125,0.22949219,-0.029296875,80.25,-67.15625,17.6875,0.0,0.0,0.0
1664567034905,0.080078125,-0.7050781,-0.23242188,-4.59375,-89.4375,-46.09375,0.0,0.0,0.0
1664567034924,-0.5595703,0.08691406,-0.32128906,183.09375,-193.6875,-24.625,-59.5625,26.3125,-131.625
1664567034964,-2.0,1.4453125,0.6123047,9.4375,-357.8125,-53.84375,0.0,0.0,0.0
1664567035004,-2.0,0.26367188,0.41015625,-279.6875,-51.34375,-47.1875,0.0,0.0,0.0
1664567035044,-2.0,-0.38964844,1.7128906,20.90625,-267.78125,-28.15625,0.0,0.0,0.0
1664567035084,-1.3730469,-0.5488281,-0.17675781,81.15625,-44.28125,-155.15625,0.0,0.0,0.0
1664567035125,0.5058594,0.40527344,-0.47460938,98.3125,-171.40625,-11.0625,0.0,0.0,0.0
1664567035164,1.1367188,0.5107422,-1.1367188,104.46875,-20.09375,89.15625,0.0,0.0,0.0
1664567035205,0.8330078,-0.08886719,-0.45410156,72.6875,119.6875,37.21875,0.0,0.0,0.0
1664567035245,-0.8144531,0.034179688,0.40234375,20.25,372.3125,-38.34375,0.0,0.0,0.0
1664567035284,-1.2138672,0.4169922,0.57421875,-140.9375,-25.78125,-16.1875,0.0,0.0,0.0
1664567035325,0.4296875,0.3798828,-1.2167969,-151.1875,98.3125,-48.46875,0.0,0.0,0.0
1664567035367,-2.0,0.77441406,-0.48046875,-78.5,-572.84375,158.0,0.0,0.0,0.0
1664567035404,-0.68066406,0.041992188,-0.94921875,-207.96875,179.0625,70.59375,0.0,0.0,0.0
1664567035445,-2.0,-0.3544922,1.2158203,153.3125,-32.0625,177.09375,-58.5,20.875,-114.625
1664567035484,-2.0,-0.1953125,0.7949219,35.8125,327.8125,-62.5625,0.0,0.0,0.0
1664567035525,-1.5595703,0.46679688,0.5654297,137.125,186.5,-2.625,0.0,0.0,0.0
1664567035564,0.7714844,0.34765625,0.076171875,-236.28125,175.09375,2.84375,0.0,0.0,0.0
1664567035604,-0.47753906,-0.7998047,-0.2783203,13.59375,-4.71875,41.375,0.0,0.0,0.0
1664567035644,0.21777344,0.34179688,0.021484375,112.46875,-71.625,34.15625,0.0,0.0,0.0
1664567035684,-0.099609375,-0.3173828,0.047851562,-55.6875,-64.15625,-11.375,0.0,0.0,0.0
1664567035724,-0.09472656,0.0,-0.34472656,107.34375,-155.09375,-9.78125,0.0,0.0,0.0
1664567035764,-1.6601562,0.16796875,-0.6347656,-14.84375,-251.125,-16.0625,0.0,0.0,0.0
1664567035805,-2.0,1.1757812,0.07910156,-65.125,-123.25,-43.53125,0.0,0.0,0.0
1664567035844,-2.0,0.24414062,1.4833984,-31.21875,-358.90625,57.78125,0.0,0.0,0.0
1664567035884,-1.4863281,-0.2685547,0.4794922,-56.46875,-114.53125,-109.625,0.0,0.0,0.0
1664567035927,-0.053710938,0.034179688,-0.5517578,159.53125,-28.8125,-76.0625,-52.375,21.625,-109.125
1664567035965,0.8300781,0.46679688,-0.5361328,53.75,-89.4375,1.5,0.0,0.0,0.0
1664567036005,1.2392578,0.1796875,-0.74609375,44.71875,8.03125,74.03125,0.0,0.0,0.0
1664567036044,-0.39160156,-0.234375,0.017578125,20.25,302.96875,18.53125,0.0,0.0,0.0
1664567036084,-1.5566406,0.06738281,0.5410156,12.625,88.71875,34.65625,0.0,0.0,0.0
1664567036124,0.33789062,-0.03515625,-0.49902344,-96.09375,-88.03125,-55.6875,0.0,0.0,0.0
1664567036164,-2.0,2.0,1.9306641,18.46875,-36.28125,216.34375,0.0,0.0,0.0
1664567036225,0.9716797,-0.63964844,-0.39648438,-17.65625,-6.65625,-129.84375,0.0,0.0,0.0
1664567036244,-2.0,0.9765625,0.41992188,96.84375,216.15625,203.0,0.0,0.0,0.0
1664567036284,-2.0,-0.25,0.84765625,106.375,201.59375,-46.15625,0.0,0.0,0.0
1664567036325,-1.6630859,-0.07128906,0.75,56.625,230.21875,-22.59375,0.0,0.0,0.0
1664567036364,-0.2685547,0.5595703,0.34472656,43.5,184.75,55.03125,0.0,0.0,0.0
1664567036404,-0.33007812,-0.88964844,0.72558594,20.3125,106.84375,44.59375,0.0,0.0,0.0
1664567036445,0.3544922,0.14550781,-0.02734375,67.84375,21.59375,-22.28125,-53.375,26.3125,-137.125
1664567036484,-0.20019531,-0.09765625,-0.11230469,-42.125,-53.71875,-1.40625,0.0,0.0,0.0
1664567036524,-0.06640625,-0.0546875,-0.17480469,51.75,-137.40625,-14.59375,0.0,0.0,0.0
1664567036565,-0.6777344,0.095703125,-0.23046875,53.4375,-168.65625,-44.875,0.0,0.0,0.0
1664567036604,-2.0,0.62597656,0.6777344,22.4375,-327.21875,-57.6875,0.0,0.0,0.0
1664567036645,-2.0,1.0,0.8935547,-100.0625,-238.0625,30.5,0.0,0.0,0.0
1664567036684,-2.0,-0.4638672,1.1806641,-130.5625,-173.46875,-41.8125,0.0,0.0,0.0
1664567036725,-0.7294922,-0.41308594,-0.17480469,82.375,10.59375,-183.65625,0.0,0.0,0.0
1664567036764,0.53808594,0.1953125,-0.6376953,94.21875,-83.03125,23.59375,0.0,0.0,0.0
1664567036805,0.88378906,0.6699219,-0.8955078,99.40625,-12.09375,121.25,0.0,0.0,0.0
1664567036844,0.6064453,0.3359375,-0.06933594,-25.59375,193.84375,-25.90625,0.0,0.0,0.0
1664567036884,-0.99121094,0.072265625,0.31152344,-5.625,225.5,14.375,0.0,0.0,0.0
1664567036924,-1.0390625,-0.65625,-0.005859375,-185.8125,17.6875,-47.1875,-55.9375,24.8125,-117.0625
1664567036964,0.1484375,0.5966797,-1.2050781,-18.21875,79.15625,2.375,0.0,0.0,0.0
1664567037005,-0.31640625,-0.9013672,1.8525391,-385.875,-330.21875,-106.8125,0.0,0.0,0.0
1664567037044,-2.0,0.58203125,-1.0361328,-161.5,243.75,20.25,0.0,0.0,0.0
1664567037084,-2.0,-0.20117188,1.3144531,227.71875,45.21875,39.09375,0.0,0.0,0.0
1664567037124,-1.7167969,0.052734375,0.5859375,-13.25,310.71875,32.03125,0.0,0.0,0.0
1664567037164,-1.0126953,0.44140625,0.57910156,152.5625,134.5625,23.78125,0.0,0.0,0.0
1664567037204,0.9824219,0.009765625,0.19433594,-133.625,176.375,-32.90625,0.0,0.0,0.0
1664567037244,0.11328125,-0.27539062,-0.2861328,-54.34375,3.28125,-19.0,0.0,0.0,0.0
1664567037285,0.09863281,0.00390625,0.12890625,74.625,-84.625,0.09375,0.0,0.0,0.0
1664567037324,0.01171875,-0.47851562,-0.11621094,-2.40625,-111.03125,-56.09375,0.0,0.0,0.0
1664567037364,-0.57128906,0.25390625,-0.20800781,92.5,-142.59375,-47.4375,0.0,0.0,0.0
1664567037404,-2.0,1.6914062,0.4814453,25.6875,-307.6875,-56.28125,0.0,0.0,0.0
1664567037445,-2.0,1.0166016,0.8613281,-190.5625,-158.15625,60.03125,-59.125,24.3125,-120.0625
1664567037484,-2.0,-0.37597656,1.0751953,-7.9375,-87.96875,-52.375,0.0,0.0,0.0
1664567037524,-0.9042969,-0.17578125,-0.049804688,191.5,-108.65625,-187.21875,0.0,0.0,0.0
1664567037564,0.4267578,0.29101562,-0.3779297,69.25,-85.9375,35.09375,0.0,0.0,0.0
1664567037604,1.2050781,0.234375,-0.87109375,24.09375,12.625,64.125,0.0,0.0,0.0
1664567037644,0.625,0.1328125,-0.45507812,44.25,64.0625,116.0625,0.0,0.0,0.0
1664567037685,-0.7871094,0.10839844,0.35839844,20.0625,260.375,-5.8125,0.0,0.0,0.0
1664567037724,-1.5058594,0.26953125,0.82128906,-153.28125,33.84375,-0.4375,0.0,0.0,0.0
1664567037766,0.13574219,0.75,-1.6484375,-105.65625,36.78125,13.03125,0.0,0.0,0.0
1664567037804,0.05078125,-0.546875,0.71484375,-325.21875,-189.40625,-163.71875,0.0,0.0,0.0
1664567037844,-2.0,0.70996094,0.041015625,-23.75,315.0625,99.15625,0.0,0.0,0.0
1664567037887,-2.0,-0.3642578,0.4560547,75.84375,168.4375,14.8125,0.0,0.0,0.0
1664567037924,-2.0,-0.11328125,0.6533203,56.5625,290.03125,-56.65625,0.0,0.0,0.0
1664567037964,-1.0292969,0.7109375,0.4189453,183.9375,178.28125,1.5625,-58.8125,26.0,-127.375
1664567038004,0.73339844,0.390625,0.28222656,-229.625,212.6875,-10.28125,0.0,0.0,0.0
1664567038044,-0.09277344,-0.63671875,-0.4638672,-19.375,-4.84375,-15.40625,0.0,0.0,0.0
1664567038085,0.12890625,0.0859375,0.107421875,62.65625,-72.59375,11.59375,0.0,0.0,0.0
1664567038127,0.06542969,-0.45214844,-0.18164062,-18.4375,-102.0,-49.875,0.0,0.0,0.0
1664567038165,-0.4404297,0.052734375,-0.20996094,83.71875,-172.375,-48.21875,0.0,0.0,0.0
1664567038204,-2.0,0.53222656,-0.14355469,-53.0,-364.21875,-20.9375,0.0,0.0,0.0
1664567038244,-2.0,0.97265625,0.6386719,-110.0625,-175.84375,11.40625,0.0,0.0,0.0
1664567038284,-2.0,-0.45898438,1.4248047,-55.4375,-215.34375,3.40625,0.0,0.0,0.0
1664567038325,-1.3505859,-0.36328125,0.328125,37.46875,-83.75,-213.53125,0.0,0.0,0.0
1664567038365,0.22851562,0.09082031,-0.16601562,119.125,-116.34375,-25.28125,0.0,0.0,0.0
1664567038404,0.9941406,0.061523438,-0.953125,51.125,-13.03125,39.21875,0.0,0.0,0.0
1664567038447,0.81933594,0.47460938,-0.95996094,115.21875,84.625,184.125,-53.375,24.5,-107.3125
1664567038486,-0.48632812,0.09667969,0.44140625,41.96875,310.21875,-77.84375,0.0,0.0,0.0
1664567038524,-1.828125,0.13964844,0.7753906,-78.09375,-28.65625,30.5,0.0,0.0,0.0
1664567038564,0.56152344,-0.12207031,-1.3056641,-170.5,47.90625,-99.375,0.0,0.0,0.0
1664567038605,-2.0,2.0,0.25683594,156.25,-479.875,433.09375,0.0,0.0,0.0
1664567038644,-0.47070312,0.064453125,-1.1074219,-83.375,110.65625,13.40625,0.0,0.0,0.0
1664567038685,-2.0,0.38476562,0.75,113.5,135.1875,159.53125,0.0,0.0,0.0
1664567038725,-2.0,-0.32421875,0.8486328,97.75,276.15625,-12.09375,0.0,0.0,0.0
1664567038764,-1.8164062,-0.2626953,0.21679688,64.125,198.84375,-49.6875,0.0,0.0,0.0
1664567038806,0.18457031,1.0966797,0.06933594,20.25,178.625,107.96875,0.0,0.0,0.0
1664567038845,-0.77734375,-0.7529297,-0.1328125,20.125,36.96875,52.90625,0.0,0.0,0.0
1664567038884,0.5097656,0.4111328,0.028320312,98.875,-24.90625,9.5625,0.0,0.0,0.0
1664567038924,-0.171875,-0.5566406,-0.020507812,-68.9375,-52.25,-29.5,0.0,0.0,0.0
1664567038965,-0.16015625,-0.26953125,-0.15429688,92.8125,-125.75,-66.40625,-60.0,27.3125,-132.9375
1664567039004,-0.9863281,0.28222656,-0.3828125,85.375,-189.15625,-73.375,0.0,0.0,0.0
1664567039046,-2.0,1.2089844,0.8330078,9.625,-208.9375,-24.375,0.0,0.0,0.0
1664567039086,-2.0,0.6816406,1.5126953,-63.125,-255.6875,28.78125,0.0,0.0,0.0
1664567039124,-2.0,-0.27246094,0.5332031,-107.25,-82.09375,-137.71875,0.0,0.0,0.0
1664567039165,-0.3701172,0.10546875,-0.4326172,178.5625,-54.875,-112.4375,0.0,0.0,0.0
1664567039204,0.7890625,0.31347656,-0.70996094,42.46875,-100.28125,42.28125,0.0,0.0,0.0
1664567039244,1.1015625,0.33496094,-0.8125,75.5,-1.40625,124.6875,0.0,0.0,0.0
1664567039284,-0.16015625,0.09863281,-0.078125,23.25,256.46875,29.71875,0.0,0.0,0.0
1664567039325,-1.5742188,0.07519531,0.7548828,24.8125,84.46875,13.40625,0.0,0.0,0.0
1664567039364,-0.43652344,0.024414062,-0.19921875,-136.78125,13.65625,-52.5625,0.0,0.0,0.0
1664567039405,-2.0,1.8320312,-0.12011719,-94.6875,86.40625,121.09375,0.0,0.0,0.0
1664567039446,0.25976562,-0.95214844,-0.13671875,-177.3125,221.0,-89.0,-55.625,24.8125,-110.875
1664567039485,-2.0,1.1904297,-0.1015625,9.03125,138.15625,230.15625,0.0,0.0,0.0
1664567039524,-2.0,-0.08105469,1.0019531,143.34375,195.84375,-20.28125,0.0,0.0,0.0
1664567039564,-2.0,-0.375,0.5751953,-89.84375,246.03125,-49.8125,0.0,0.0,0.0
1664567039604,-0.07128906,0.6923828,0.4560547,76.15625,194.6875,40.8125,0.0,0.0,0.0
1664567039644,-0.48632812,-0.94921875,0.3408203,-19.96875,72.3125,72.1875,0.0,0.0,0.0
1664567039684,0.1640625,0.095703125,0.17773438,22.09375,20.1875,9.9375,0.0,0.0,0.0
1664567039724,0.1484375,-0.35253906,-0.29492188,-40.71875,-49.40625,-32.0,0.0,0.0,0.0
1664567039764,-0.045898438,-0.31640625,-0.16992188,37.8125,-136.1875,-67.03125,0.0,0.0,0.0
1664567039804,-1.1621094,0.2763672,-0.34960938,132.84375,-199.125,-39.1875,0.0,0.0,0.0
1664567039844,-2.0,1.4355469,0.9453125,-51.71875,-229.625,-62.21875,0.0,0.0,0.0
1664567039885,-2.0,0.609375,1.5683594,-145.15625,-261.71875,41.90625,0.0,0.0,0.0
1664567039924,-2.0,-0.4638672,0.61621094,-86.0,-74.34375,-177.75,0.0,0.0,0.0
1664567039964,-0.5722656,-0.265625,-0.23242188,158.75,-85.15625,-62.625,-55.8125,16.375,-108.625
1664567040004,0.8466797,0.5058594,-0.23925781,65.0625,2.5625,34.59375,0.0,0.0,0.0
1664567040046,1.1826172,0.038085938,-1.2363281,89.46875,21.03125,69.625,0.0,0.0,0.0
1664567040084,0.23632812,0.171875,-0.08886719,71.28125,155.3125,102.40625,0.0,0.0,0.0
1664567040124,-1.6601562,0.30859375,0.71777344,31.28125,240.15625,9.375,0.0,0.0,0.0
1664567040164,-0.671875,-0.037109375,0.09375,-190.5625,-90.71875,-52.09375,0.0,0.0,0.0
1664567040204,-2.0,2.0,-0.42382812,-126.3125,207.5,171.125,0.0,0.0,0.0
1664567040244,0.9560547,-1.0410156,0.42578125,-194.78125,149.34375,-46.34375,0.0,0.0,0.0
1664567040285,-2.0,0.80078125,0.8466797,120.71875,186.375,183.40625,0.0,0.0,0.0
1664567040324,-2.0,-0.07128906,0.74316406,73.21875,181.625,25.375,0.0,0.0,0.0
1664567040365,-2.0,-0.22363281,0.8925781,36.0,242.90625,-83.28125,0.0,0.0,0.0
1664567040404,-0.6748047,0.99902344,0.5810547,10.71875,212.03125,28.84375,0.0,0.0,0.0
1664567040444,0.022460938,-1.0449219,0.5488281,37.28125,81.46875,28.71875,-61.5,26.125,-133.375
1664567040485,0.13574219,0.029296875,0.07421875,2.71875,0.21875,10.71875,0.0,0.0,0.0
1664567040524,0.12207031,-0.30273438,-0.16113281,-32.84375,-45.59375,-29.25,0.0,0.0,0.0
1664567040564,0.08105469,-0.32617188,-0.30371094,56.5,-136.25,-60.25,0.0,0.0,0.0
1664567040604,-0.58496094,0.047851562,-0.53027344,167.09375,-166.28125,-60.0625,0.0,0.0,0.0
1664567040645,-2.0,1.4257812,0.765625,-118.90625,-424.5625,6.09375,0.0,0.0,0.0
1664567040684,-2.0,0.5527344,1.2001953,-157.71875,-266.875,-40.78125,0.0,0.0,0.0
1664567040724,-2.0,-0.9121094,0.7089844,-9.53125,-126.90625,-241.40625,0.0,0.0,0.0
1664567040766,-0.58496094,-0.5341797,0.5048828,124.0625,-124.65625,-93.9375,0.0,0.0,0.0
1664567040804,0.30273438,0.3251953,-0.1015625,88.25,35.3125,9.9375,0.0,0.0,0.0
1664567040844,1.0507812,0.30078125,-1.4013672,46.625,54.78125,85.875,0.0,0.0,0.0
1664567040885,0.8076172,0.39941406,-0.26660156,43.9375,23.4375,137.875,0.0,0.0,0.0
1664567040924,-1.2851562,-0.048828125,0.16992188,-23.5,289.28125,14.625,0.0,0.0,0.0
1664567040967,-1.4765625,0.059570312,0.7001953,-104.6875,7.625,37.34375,-58.625,24.3125,-114.8125
1664567041006,0.3828125,0.33691406,-1.3759766,-144.25,45.46875,-56.65625,0.0,0.0,0.0
1664567041045,-1.4560547,0.6533203,0.29882812,-191.125,-476.5625,10.46875,0.0,0.0,0.0
1664567041084,-1.5263672,0.4765625,-1.0039062,-107.75,243.5,55.15625,0.0,0.0,0.0
1664567041124,-2.0,-0.38183594,1.1357422,148.84375,94.28125,-2.15625,0.0,0.0,0.0
1664567041164,-2.0,-0.072265625,0.5800781,-4.21875,249.125,-64.90625,0.0,0.0,0.0
1664567041205,-0.49121094,0.6582031,0.74316406,169.1875,185.03125,17.0,0.0,0.0,0.0
1664567041245,0.453125,-0.4248047,0.68847656,-96.375,150.5,-10.5,0.0,0.0,0.0
1664567041287,0.06933594,0.02734375,-0.0146484375,20.3125,1.21875,11.15625,0.0,0.0,0.0
1664567041324,0.001953125,-0.030273438,-0.21289062,-47.125,-40.78125,-15.6875,0.0,0.0,0.0
1664567041365,0.017578125,-0.5566406,-0.28808594,9.4375,-105.1875,-40.90625,0.0,0.0,0.0
1664567041404,-0.46679688,0.18164062,-0.32714844,165.5625,-175.0,-34.1875,0.0,0.0,0.0
1664567041444,-2.0,0.6171875,-0.19140625,-74.53125,-367.4375,-30.96875,-62.25,24.625,-130.375
1664567041485,-2.0,0.44140625,0.53027344,-160.34375,-199.71875,-58.4375,0.0,0.0,0.0
1664567041525,-2.0,-0.5361328,1.3066406,-44.03125,-209.4375,-12.53125,0.0,0.0,0.0
1664567041565,-1.5517578,-0.19921875,0.07910156,79.8125,-98.40625,-127.8125,0.0,0.0,0.0
1664567041605,0.5283203,-0.015625,-0.4345703,134.4375,-107.5,-15.40625,0.0,0.0,0.0
1664567041644,1.0039062,0.040039062,-0.98535156,135.375,-16.125,67.625,0.0,0.0,0.0
1664567041686,0.7128906,0.39257812,-0.5498047,11.03125,168.0,132.5625,0.0,0.0,0.0
1664567041724,-0.7597656,0.38085938,0.37695312,56.9375,324.875,-36.875,0.0,0.0,0.0
1664567041764,-1.3789062,0.11816406,0.7421875,-208.5625,-13.125,36.4375,0.0,0.0,0.0
1664567041803,-0.14355469,0.7207031,-1.796875,-150.65625,105.46875,17.0625,0.0,0.0,0.0
1664567041844,0.20410156,-1.2333984,1.6240234,-271.5625,-243.25,-111.71875,0.0,0.0,0.0
1664567041884,-2.0,0.87597656,-0.7207031,-1.1875,251.28125,127.65625,0.0,0.0,0.0
1664567041927,-2.0,-0.17871094,0.6230469,95.375,193.34375,-79.59375,0.0,0.0,0.0
1664567041966,-2.0,0.41992188,0.640625,52.34375,255.0625,11.15625,-60.4375,24.3125,-122.75
1664567042005,-0.65722656,0.5078125,0.23925781,59.625,155.25,22.5625,0.0,0.0,0.0
1664567042045,0.33496094,-0.3935547,0.60839844,-57.375,136.21875,-10.9375,0.0,0.0,0.0
1664567042084,-0.005859375,0.0068359375,0.07519531,6.5625,5.46875,3.59375,0.0,0.0,0.0
1664567042124,0.10449219,-0.27929688,-0.13183594,-11.96875,-55.4375,-6.59375,0.0,0.0,0.0
1664567042164,0.016601562,-0.54589844,-0.29882812,6.03125,-107.125,-46.21875,0.0,0.0,0.0
1664567042205,-0.47070312,0.17675781,-0.4013672,129.0,-152.0,-38.90625,0.0,0.0,0.0
1664567042244,-2.0,0.66308594,0.6230469,23.84375,-383.625,-33.15625,0.0,0.0,0.0
1664567042284,-2.0,0.64941406,0.51171875,-219.875,-164.25,-29.125,0.0,0.0,0.0
1664567042325,-2.0,-0.5683594,1.4853516,-106.78125,-193.8125,17.0,0.0,0.0,0.0
1664567042364,-1.1337891,-0.5214844,-0.040039062,45.6875,-35.78125,-145.71875,0.0,0.0,0.0
1664567042404,0.3564453,0.23730469,-0.3544922,117.84375,-118.84375,5.90625,0.0,0.0,0.0
1664567042445,1.0732422,0.45703125,-0.921875,132.625,-18.75,90.0625,-57.0,20.125,-108.0625
1664567042484,1.046875,0.055664062,-0.50683594,16.9375,97.8125,77.625,0.0,0.0,0.0
1664567042524,-0.94140625,0.1640625,0.40039062,64.375,390.4375,-89.0625,0.0,0.0,0.0
1664567042565,-1.1591797,0.1015625,0.66015625,-161.21875,-9.0,-5.3125,0.0,0.0,0.0
1664567042604,-1.4990234,1.7265625,-1.5205078,-100.125,200.90625,47.21875,0.0,0.0,0.0
1664567042644,1.4306641,-1.1162109,1.1210938,-239.59375,-248.0625,-197.09375,0.0,0.0,0.0
1664567042684,-2.0,1.5439453,-0.9970703,-79.3125,295.28125,283.75,0.0,0.0,0.0
1664567042724,-2.0,-0.08886719,0.7363281,119.625,145.25,-32.84375,0.0,0.0,0.0
1664567042764,-2.0,-0.19824219,0.84375,-23.03125,275.8125,-55.625,0.0,0.0,0.0
1664567042805,-0.5,0.35742188,0.47851562,114.78125,172.21875,-5.9375,0.0,0.0,0.0
1664567042844,0.7128906,0.053710938,0.5283203,-138.25,184.25,15.0625,0.0,0.0,0.0
1664567042884,-0.2578125,-0.12597656,-0.27246094,-16.0625,2.375,10.375,0.0,0.0,0.0
1664567042925,0.18847656,0.045898438,-0.036132812,15.65625,-67.53125,9.5625,0.0,0.0,0.0
1664567042964,0.14453125,-0.5751953,-0.20800781,-3.0,-114.6875,-49.03125,-60.875,24.625,-140.0
1664567043005,-0.5410156,0.01953125,-0.20605469,129.75,-160.65625,-59.71875,0.0,0.0,0.0
1664567043044,-2.0,0.7998047,0.032226562,-42.96875,-372.4375,-22.125,0.0,0.0,0.0
1664567043085,-2.0,0.77734375,0.50097656,-195.09375,-157.84375,-11.5625,0.0,0.0,0.0
1664567043124,-2.0,-0.3515625,1.3388672,-81.1875,-181.0,17.3125,0.0,0.0,0.0
1664567043165,-1.3066406,-0.41992188,0.13574219,41.5,26.65625,-226.5625,0.0,0.0,0.0
1664567043204,0.265625,-0.083984375,-0.1953125,93.75,-136.3125,2.96875,0.0,0.0,0.0
1664567043245,0.96191406,0.1640625,-0.8613281,81.34375,-54.53125,115.03125,0.0,0.0,0.0
1664567043284,1.3916016,0.19726562,-0.8691406,1.03125,123.34375,78.21875,0.0,0.0,0.0
1664567043325,-0.5673828,0.32128906,0.2265625,36.96875,272.375,9.8125,0.0,0.0,0.0
1664567043364,-2.0,-0.23535156,1.4423828,-151.6875,-40.3125,65.34375,0.0,0.0,0.0
1664567043404,0.051757812,0.95996094,-2.0,-247.28125,203.34375,-11.125,0.0,0.0,0.0
1664567043444,-0.9472656,-0.41796875,0.51953125,-183.4375,-336.1875,-155.84375,-62.375,17.75,-121.5625
1664567043484,-2.0,0.9189453,-0.80859375,36.96875,376.6875,218.6875,0.0,0.0,0.0
1664567043525,-2.0,0.07714844,0.8652344,83.78125,47.28125,35.4375,0.0,0.0,0.0
1664567043564,-2.0,-0.034179688,0.4326172,-121.34375,322.75,-28.65625,0.0,0.0,0.0
1664567043604,-0.76464844,0.08886719,0.40722656,144.09375,118.9375,-19.78125,0.0,0.0,0.0
1664567043645,0.77441406,0.2685547,0.06933594,-187.875,167.84375,27.625,0.0,0.0,0.0
1664567043684,-0.29785156,-0.453125,-0.51171875,-34.875,-6.0625,-10.5,0.0,0.0,0.0
1664567043724,0.4951172,0.26953125,0.03125,70.53125,-50.75,3.53125,0.0,0.0,0.0
1664567043765,0.034179688,-0.55078125,-0.001953125,-39.5,-63.25,-45.1875,0.0,0.0,0.0
1664567043806,-0.52734375,0.0,-0.14648438,100.8125,-126.1875,-44.28125,0.0,0.0,0.0
1664567043844,-2.0,0.60058594,-0.70703125,17.5,-304.75,-24.625,0.0,0.0,0.0
1664567043886,-2.0,0.9951172,0.6220703,-131.96875,-107.6875,-113.25,0.0,0.0,0.0
1664567043925,-2.0,-0.25878906,1.1113281,-122.6875,-207.40625,42.90625,0.0,0.0,0.0
1664567043964,-1.6113281,-0.7441406,-0.25585938,-16.25,80.96875,-218.34375,-60.625,15.1875,-113.625
1664567044004,0.45410156,0.1171875,-0.46972656,181.3125,-196.78125,-40.46875,0.0,0.0,0.0
1664567044044,1.1582031,0.64941406,-0.453125,47.09375,-53.78125,97.21875,0.0,0.0,0.0
1664567044084,0.93847656,0.20410156,-0.5732422,55.84375,42.65625,102.84375,0.0,0.0,0.0
1664567044125,-0.4638672,0.11425781,0.21875,22.03125,289.0625,52.09375,0.0,0.0,0.0
1664567044165,-1.4355469,0.03125,0.3515625,-46.40625,-18.5625,17.0625,0.0,0.0,0.0
1664567044205,-0.48632812,0.6201172,-0.97265625,-126.46875,80.5625,-63.375,0.0,0.0,0.0
1664567044245,-0.6279297,0.0107421875,-0.4892578,-81.0,-314.03125,-14.0625,0.0,0.0,0.0
1664567044284,-1.5419922,0.6748047,-0.9404297,-152.71875,286.46875,173.625,0.0,0.0,0.0
1664567044324,-2.0,-0.2607422,0.5986328,52.21875,21.03125,44.65625,0.0,0.0,0.0
1664567044365,-1.5546875,0.018554688,1.25,86.53125,284.40625,37.46875,0.0,0.0,0.0
1664567044404,-2.0,-0.171875,0.3798828,34.71875,221.3125,-51.21875,0.0,0.0,0.0
1664567044445,0.14941406,1.0078125,0.5644531,-0.25,178.15625,85.25,-61.375,21.9375,-134.3125
1664567044484,-0.8203125,-0.9394531,0.28320312,9.125,15.84375,68.15625,0.0,0.0,0.0
1664567044525,0.27441406,0.0625,0.31347656,0.09375,25.75,-9.40625,0.0,0.0,0.0
1664567044564,0.076171875,-0.29882812,0.07324219,-8.375,-63.375,-19.375,0.0,0.0,0.0
1664567044605,-0.029296875,-0.24023438,-0.2734375,55.59375,-152.1875,-40.71875,0.0,0.0,0.0
1664567044644,-1.171875,0.22070312,-0.45214844,49.65625,-233.46875,-25.34375,0.0,0.0,0.0
1664567044684,-2.0,1.109375,0.84765625,14.4375,-265.625,-63.96875,0.0,0.0,0.0
1664567044725,-2.0,0.123046875,1.5556641,-87.84375,-289.03125,11.59375,0.0,0.0,0.0
1664567044765,-2.0,-0.51660156,0.1015625,-0.5,-101.21875,-141.75,0.0,0.0,0.0
1664567044807,-0.18261719,0.0546875,0.046875,128.34375,-136.4375,-95.09375,0.0,0.0,0.0
1664567044845,0.9482422,0.44140625,-0.5527344,97.9375,-24.90625,-2.03125,0.0,0.0,0.0
1664567044884,1.1181641,0.12207031,-1.2050781,23.53125,71.28125,119.90625,0.0,0.0,0.0
1664567044924,-0.22167969,0.0048828125,0.18164062,33.5,209.8125,81.65625,0.0,0.0,0.0
1664567044965,-1.5732422,-0.05859375,0.5576172,-38.03125,165.21875,-17.90625,-56.25,22.6875,-118.875
1664567045005,-0.64453125,0.21484375,-0.0078125,-96.9375,-17.28125,12.25,0.0,0.0,0.0
1664567045044,-2.0,1.9404297,-0.6484375,-84.5625,171.25,70.96875,0.0,0.0,0.0
1664567045085,1.8603516,-1.2070312,0.6582031,-267.90625,-156.03125,-154.6875,0.0,0.0,0.0
1664567045124,-2.0,1.3134766,-0.8300781,28.65625,345.8125,212.5625,0.0,0.0,0.0
1664567045164,-2.0,-0.109375,0.7402344,116.0,177.40625,-11.6875,0.0,0.0,0.0
1664567045205,-2.0,-0.48535156,0.8701172,-20.40625,263.21875,-110.6875,0.0,0.0,0.0
1664567045244,-0.9433594,0.68359375,0.68847656,117.1875,199.9375,16.15625,0.0,0.0,0.0
1664567045285,0.81933594,0.08691406,0.45117188,-157.65625,205.625,-16.5625,0.0,0.0,0.0
1664567045324,-0.08984375,-0.40234375,-0.17871094,-25.90625,-0.9375,5.125,0.0,0.0,0.0
1664567045366,0.13671875,-0.16699219,0.07519531,53.34375,-72.46875,6.46875,0.0,0.0,0.0
1664567045404,-0.01171875,-0.49609375,-0.11328125,25.0,-133.9375,-60.1875,0.0,0.0,0.0
1664567045444,-1.1386719,0.13574219,-0.5576172,117.78125,-217.25,-47.5625,-58.625,17.875,-137.875
1664567045485,-2.0,1.5087891,0.9140625,120.09375,-267.09375,-56.84375,0.0,0.0,0.0
1664567045525,-2.0,0.6269531,1.2880859,-227.3125,-303.53125,67.0,0.0,0.0,0.0
1664567045564,-2.0,-0.3408203,0.53222656,-120.6875,-122.6875,-87.78125,0.0,0.0,0.0
1664567045604,-0.13085938,-0.28125,-0.15917969,133.78125,-130.15625,-105.125,0.0,0.0,0.0
1664567045644,0.81347656,0.29492188,-0.76953125,89.15625,-77.40625,1.8125,0.0,0.0,0.0
1664567045684,1.109375,0.39746094,-1.2988281,31.34375,54.375,103.5625,0.0,0.0,0.0
1664567045724,-0.15234375,0.022460938,0.171875,22.5,292.90625,39.34375,0.0,0.0,0.0
1664567045764,-1.2851562,-0.17773438,0.8173828,-69.09375,152.34375,-33.15625,0.0,0.0,0.0
1664567045804,-0.4765625,0.33789062,-0.47070312,-106.9375,-13.25,27.875,0.0,0.0,0.0
1664567045844,0.37695312,0.09277344,-0.4560547,-15.46875,49.3125,-82.96875,0.0,0.0,0.0
1664567045884,-2.0,2.0,-0.4345703,-90.46875,-530.71875,255.46875,0.0,0.0,0.0
1664567045925,-0.15039062,-0.28710938,-0.78222656,-167.125,257.0,-17.96875,0.0,0.0,0.0
1664567045964,-2.0,0.5761719,1.1152344,167.53125,-63.625,287.53125,-61.8125,16.25,-116.0
1664567046004,-1.6494141,-0.041015625,1.3662109,136.59375,229.125,-21.9375,0.0,0.0,0.0
1664567046045,-2.0,0.07324219,0.51464844,74.15625,238.09375,-71.5625,0.0,0.0,0.0
1664567046084,0.33691406,0.9970703,0.1953125,-42.375,207.9375,54.0,0.0,0.0,0.0
1664567046124,-0.032226562,-0.890625,-0.50683594,-22.84375,71.8125,15.0625,0.0,0.0,0.0
1664567046165,0.20117188,0.28027344,0.2265625,152.9375,-9.28125,11.53125,0.0,0.0,0.0
1664567046204,-0.125,-0.52246094,-0.040039062,-54.21875,-43.40625,-38.21875,0.0,0.0,0.0
1664567046245,-0.16308594,0.05859375,-0.08496094,116.6875,-140.28125,-26.5625,0.0,0.0,0.0
1664567046284,-1.1445312,0.2734375,-0.37890625,9.09375,-197.21875,-27.34375,0.0,0.0,0.0
1664567046325,-2.0,1.0322266,0.95703125,-49.875,-225.53125,-40.90625,0.0,0.0,0.0
1664567046364,-2.0,0.78808594,1.40625,-60.5,-342.25,77.9375,0.0,0.0,0.0
1664567046408,-2.0,-0.44726562,0.56640625,-176.15625,-28.53125,-68.5625,0.0,0.0,0.0
1664567046444,-0.14160156,-0.17285156,-0.43554688,112.46875,-36.28125,-123.5625,-59.6875,17.125,-113.125
1664567046484,0.6542969,0.0107421875,-0.73535156,112.28125,-163.53125,34.65625,0.0,0.0,0.0
1664567046525,1.1679688,0.43554688,-0.7285156,89.53125,-27.84375,113.4375,0.0,0.0,0.0
1664567046564,0.28320312,-0.24804688,0.10449219,95.4375,329.5,-19.71875,0.0,0.0,0.0
1664567046604,-1.4882812,0.080078125,0.33398438,26.53125,56.625,-56.71875,0.0,0.0,0.0
1664567046646,-0.8232422,0.24316406,0.09082031,-203.5625,16.71875,8.84375,0.0,0.0,0.0
1664567046684,-0.07910156,0.97753906,-0.6669922,17.8125,-44.9375,25.0625,0.0,0.0,0.0
1664567046724,-0.14160156,-1.0419922,0.6171875,-393.21875,51.0625,-129.65625,0.0,0.0,0.0
1664567046766,-2.0,0.57421875,-0.9746094,-62.9375,243.625,97.75,0.0,0.0,0.0
1664567046804,-2.0,-0.29785156,2.0,289.21875,31.25,-9.0,0.0,0.0,0.0
1664567046844,-2.0,-0.01953125,0.91796875,-95.90625,326.03125,-83.28125,0.0,0.0,0.0
1664567046884,-1.3183594,-0.10253906,0.3623047,128.15625,198.40625,-45.5,0.0,0.0,0.0
1664567046925,0.84375,0.65722656,-0.00390625,-157.78125,197.125,25.1875,0.0,0.0,0.0
1664567046964,-0.49023438,-0.81640625,-0.4140625,31.96875,-6.84375,16.09375,-60.4375,23.3125,-139.375
1664567047005,0.53222656,0.09863281,-0.103515625,6.75,-16.375,-6.53125,0.0,0.0,0.0
1664567047044,-0.0087890625,-0.56347656,-0.17382812,6.75,-86.3125,-52.75,0.0,0.0,0.0
1664567047085,-0.56640625,0.25585938,-0.27539062,106.1875,-170.4375,-43.46875,0.0,0.0,0.0
1664567047124,-2.0,1.296875,0.2705078,-75.28125,-352.375,-37.4375,0.0,0.0,0.0
1664567047164,-2.0,0.30859375,0.8408203,-181.96875,-111.65625,-39.9375,0.0,0.0,0.0
1664567047206,-2.0,-0.2705078,1.1152344,3.15625,-190.6875,-7.03125,0.0,0.0,0.0
1664567047247,-1.0400391,-0.20214844,0.06933594,5.46875,47.28125,-189.53125,0.0,0.0,0.0
1664567047285,0.16796875,0.12792969,-0.64160156,147.4375,-107.875,2.1875,0.0,0.0,0.0
1664567047325,0.9423828,0.38671875,-0.91796875,87.6875,-95.84375,92.09375,0.0,0.0,0.0
1664567047364,1.125,0.020507812,-0.37597656,13.71875,61.5,-13.6875,0.0,0.0,0.0
1664567047404,-0.43164062,-0.013671875,0.42871094,65.46875,273.0,34.90625,0.0,0.0,0.0
1664567047444,-1.3554688,0.08691406,0.4970703,-150.28125,11.21875,-20.09375,-60.875,20.3125,-121.125
1664567047503,0.4111328,0.17773438,-0.93066406,-122.5625,60.09375,-50.1875,0.0,0.0,0.0
1664567047524,-2.0,2.0,-0.045898438,-69.15625,-649.5625,313.59375,0.0,0.0,0.0
1664567047564,-0.5283203,-0.32128906,-1.7060547,-250.875,307.71875,-54.34375,0.0,0.0,0.0
1664567047607,-2.0,-0.3232422,2.0,341.0625,-90.46875,155.9375,0.0,0.0,0.0
1664567047644,-1.2148438,0.4248047,0.859375,15.0,327.75,-50.625,0.0,0.0,0.0
1664567047684,-1.7324219,-0.3076172,0.2890625,51.75,134.6875,-59.03125,0.0,0.0,0.0
1664567047725,0.45996094,0.9082031,0.13085938,-56.53125,191.4375,63.59375,0.0,0.0,0.0
1664567047765,-0.5654297,-0.8798828,0.18847656,18.40625,41.4375,43.0625,0.0,0.0,0.0
1664567047804,0.30859375,0.21972656,-0.0107421875,31.90625,7.5,-8.875,0.0,0.0,0.0
1664567047845,0.059570312,-0.4580078,-0.2763672,-58.90625,-52.125,-31.625,0.0,0.0,0.0
1664567047884,-0.1640625,-0.4248047,-0.16113281,70.125,-126.40625,-66.53125,0.0,0.0,0.0
1664567047924,-1.6787109,0.11230469,-0.36328125,87.8125,-190.5625,-70.375,0.0,0.0,0.0
1664567047965,-2.0,1.6669922,0.038085938,91.46875,-176.84375,-56.46875,-58.5,18.8125,-126.0625
1664567048004,-2.0,0.484375,1.234375,-29.4375,-224.125,22.1875,0.0,0.0,0.0
1664567048044,-2.0,-0.140625,0.54785156,-86.1875,-83.875,-16.125,0.0,0.0,0.0
1664567048085,-0.75390625,-0.01953125,-0.2705078,104.90625,103.625,-143.5,0.0,0.0,0.0
1664567048124,0.2705078,0.13964844,-0.58691406,160.1875,-123.25,33.5625,0.0,0.0,0.0
1664567048165,0.81640625,0.068359375,-0.7519531,89.09375,-75.875,26.40625,0.0,0.0,0.0
1664567048206,0.8027344,0.095703125,-0.11328125,28.1875,178.4375,-82.84375,0.0,0.0,0.0
1664567048246,-0.7138672,0.48046875,0.44921875,65.65625,86.21875,90.3125,0.0,0.0,0.0
1664567048285,-0.74316406,-0.27734375,0.44140625,-325.9375,126.5,-147.65625,0.0,0.0,0.0
1664567048323,-1.5703125,1.4423828,-1.3964844,16.34375,129.1875,133.78125,0.0,0.0,0.0
1664567048364,0.109375,-0.7548828,1.0253906,-6.1875,-111.09375,-172.25,0.0,0.0,0.0
1664567048405,-2.0,1.0068359,0.5722656,125.78125,109.84375,241.875,0.0,0.0,0.0
1664567048444,-1.5976562,0.328125,0.5253906,52.71875,201.8125,-7.03125,-57.0,20.5625,-116.75
1664567048485,-2.0,0.17285156,0.9560547,-16.25,218.4375,4.5625,0.0,0.0,0.0
1664567048524,-0.31054688,0.12597656,0.6191406,85.3125,109.84375,24.09375,0.0,0.0,0.0
1664567048567,0.38476562,0.038085938,-0.19042969,-110.71875,150.75,20.8125,0.0,0.0,0.0
1664567048605,-0.0390625,-0.39257812,-0.3310547,-76.625,3.53125,26.84375,0.0,0.0,0.0
1664567048644,0.13671875,0.13964844,0.12207031,33.125,-27.53125,17.75,0.0,0.0,0.0
1664567048684,0.020507812,-0.34179688,-0.123046875,-5.25,-61.90625,-26.75,0.0,0.0,0.0
1664567048724,-0.33203125,-0.0029296875,-0.24511719,82.125,-92.3125,-53.65625,0.0,0.0,0.0
1664567048764,-2.0,-9.765625E-4,-0.7080078,69.625,-223.59375,-165.25,0.0,0.0,0.0
1664567048804,-1.9462891,1.3818359,-0.08496094,-63.5,-119.34375,-88.8125,0.0,0.0,0.0
1664567048845,-2.0,0.17089844,0.62597656,-144.71875,-131.0,-43.96875,0.0,0.0,0.0
1664567048883,-1.5820312,0.41503906,0.20019531,4.5,-42.25,24.65625,0.0,0.0,0.0
1664567048925,-0.7421875,-0.14550781,-0.025390625,63.59375,51.875,-87.59375,0.0,0.0,0.0
1664567048964,-0.046875,-0.22949219,-0.038085938,96.90625,-59.53125,4.9375,-63.625,14.125,-114.375
1664567049005,0.29785156,-0.35742188,-0.22949219,90.125,-94.25,7.0,0.0,0.0,0.0
1664567049046,0.4609375,-0.0068359375,-0.16796875,291.96875,23.375,-39.875,0.0,0.0,0.0
1664567049084,-0.29003906,0.33007812,0.111328125,183.875,74.25,15.5625,0.0,0.0,0.0
1664567049124,-1.3095703,0.017578125,2.0,-180.3125,-210.34375,-75.28125,0.0,0.0,0.0
1664567049164,-2.0,2.0,-0.3935547,-280.84375,4.8125,373.59375,0.0,0.0,0.0
1664567049205,0.24707031,-0.57128906,-0.11621094,-116.71875,-233.71875,-103.53125,0.0,0.0,0.0
1664567049246,-2.0,0.99316406,-0.15039062,187.125,-9.15625,138.46875,0.0,0.0,0.0
1664567049286,-1.3300781,0.44726562,-0.07714844,19.6875,151.09375,-9.15625,0.0,0.0,0.0
1664567049324,-0.8408203,0.4609375,0.11328125,-83.4375,156.28125,-25.53125,0.0,0.0,0.0
1664567049365,-0.8652344,0.14257812,0.18066406,-52.8125,109.84375,22.4375,0.0,0.0,0.0
1664567049405,-0.36621094,-0.29003906,0.2919922,-43.90625,116.375,10.59375,0.0,0.0,0.0
1664567049444,-0.65625,-0.3203125,0.10449219,-27.25,81.65625,18.53125,-66.875,20.3125,-122.75
1664567049484,-0.42578125,-0.10839844,0.00390625,-22.65625,103.5625,16.90625,0.0,0.0,0.0
1664567049525,-0.57714844,0.30273438,0.2939453,38.3125,94.15625,17.5,0.0,0.0,0.0
1664567049564,-1.0839844,-0.0078125,-0.05078125,-59.28125,51.5,23.90625,0.0,0.0,0.0
1664567049604,-1.3837891,-0.23925781,0.36621094,-45.1875,31.25,-6.3125,0.0,0.0,0.0
1664567049643,-1.5097656,-0.30664062,-0.23632812,-13.75,-25.28125,-41.9375,0.0,0.0,0.0
