# Sensor type: Thingy
# Activity type: Sitting
# Activity code: 0
# Subject id: s1800825
# Notes: 
timestamp,accel_x,accel_y,accel_z,gyro_x,gyro_y,gyro_z,mag_x,mag_y,mag_z
1664377573221,-0.040039062,0.20410156,0.9296875,0.125,-0.78125,-0.5,0.0,0.0,0.0
1664377573221,-0.040039062,0.20410156,0.9296875,0.125,-0.78125,-0.5,0.0,0.0,0.0
1664377573263,-0.0390625,0.20996094,0.9345703,0.4375,-0.03125,-0.375,0.0,0.0,0.0
1664377573265,-0.0390625,0.20996094,0.9345703,0.4375,-0.03125,-0.375,0.0,0.0,0.0
1664377573302,-0.028320312,0.2109375,0.92285156,0.125,-0.90625,-0.375,0.0,0.0,0.0
1664377573302,-0.028320312,0.2109375,0.92285156,0.125,-0.90625,-0.375,0.0,0.0,0.0
1664377573342,-0.029296875,0.20703125,0.9296875,0.25,-0.21875,-0.6875,0.0,0.0,0.0
1664377573342,-0.029296875,0.20703125,0.9296875,0.25,-0.21875,-0.6875,0.0,0.0,0.0
1664377573381,-0.02734375,0.20703125,0.9267578,-0.0625,-0.65625,-0.3125,0.0,0.0,0.0
1664377573381,-0.02734375,0.20703125,0.9267578,-0.0625,-0.65625,-0.3125,0.0,0.0,0.0
1664377573421,-0.033203125,0.20507812,0.94921875,0.125,-0.03125,-0.3125,0.0,0.0,0.0
1664377573422,-0.033203125,0.20507812,0.94921875,0.125,-0.03125,-0.3125,0.0,0.0,0.0
1664377573462,-0.03125,0.20703125,0.93652344,0.1875,-0.40625,-0.625,0.0,0.0,0.0
1664377573462,-0.03125,0.20703125,0.93652344,0.1875,-0.40625,-0.625,0.0,0.0,0.0
1664377573502,-0.034179688,0.21191406,0.9316406,0.1875,0.375,-0.6875,0.0,0.0,0.0
1664377573501,-0.034179688,0.21191406,0.9316406,0.1875,0.375,-0.6875,0.0,0.0,0.0
1664377573543,-0.029296875,0.22070312,0.92285156,-0.0625,-0.65625,0.0,0.0,0.0,0.0
1664377573544,-0.029296875,0.22070312,0.92285156,-0.0625,-0.65625,0.0,0.0,0.0,0.0
1664377573582,-0.029296875,0.21484375,0.921875,0.125,-0.09375,-0.375,0.0,0.0,0.0
1664377573582,-0.029296875,0.21484375,0.921875,0.125,-0.09375,-0.375,0.0,0.0,0.0
1664377573622,-0.034179688,0.203125,0.92285156,0.0,-0.65625,-0.1875,0.0,0.0,0.0
1664377573622,-0.034179688,0.203125,0.92285156,0.0,-0.65625,-0.1875,0.0,0.0,0.0
1664377573662,-0.032226562,0.21191406,0.9277344,0.0,0.0625,-0.625,-24.4375,11.75,-93.375
1664377573662,-0.032226562,0.21191406,0.9277344,0.0,0.0625,-0.625,-24.4375,11.75,-93.375
1664377573701,-0.026367188,0.2109375,0.9277344,-0.0625,-0.53125,0.0625,0.0,0.0,0.0
1664377573701,-0.026367188,0.2109375,0.9277344,-0.0625,-0.53125,0.0625,0.0,0.0,0.0
1664377573743,-0.03125,0.19921875,0.9326172,0.0625,0.03125,-0.3125,0.0,0.0,0.0
1664377573743,-0.03125,0.19921875,0.9326172,0.0625,0.03125,-0.3125,0.0,0.0,0.0
1664377573781,-0.03125,0.20410156,0.94140625,0.1875,-0.59375,-0.3125,0.0,0.0,0.0
1664377573782,-0.03125,0.20410156,0.94140625,0.1875,-0.59375,-0.3125,0.0,0.0,0.0
1664377573822,-0.028320312,0.20605469,0.9326172,0.3125,-0.65625,-0.0625,0.0,0.0,0.0
1664377573822,-0.028320312,0.20605469,0.9326172,0.3125,-0.65625,-0.0625,0.0,0.0,0.0
1664377573862,-0.030273438,0.20605469,0.93066406,0.0,-0.46875,0.0,0.0,0.0,0.0
1664377573864,-0.030273438,0.20605469,0.93066406,0.0,-0.46875,0.0,0.0,0.0,0.0
1664377573902,-0.04296875,0.21191406,0.93847656,0.25,-0.09375,-0.0625,0.0,0.0,0.0
1664377573902,-0.04296875,0.21191406,0.93847656,0.25,-0.09375,-0.0625,0.0,0.0,0.0
1664377573941,-0.040039062,0.20214844,0.9394531,0.5,-0.46875,0.1875,0.0,0.0,0.0
1664377573941,-0.040039062,0.20214844,0.9394531,0.5,-0.46875,0.1875,0.0,0.0,0.0
1664377573982,-0.032226562,0.21386719,0.92578125,0.0625,0.125,0.0,0.0,0.0,0.0
1664377573983,-0.032226562,0.21386719,0.92578125,0.0625,0.125,0.0,0.0,0.0,0.0
1664377574022,-0.025390625,0.21484375,0.93847656,0.125,-0.40625,0.0,0.0,0.0,0.0
1664377574022,-0.025390625,0.21484375,0.93847656,0.125,-0.40625,0.0,0.0,0.0,0.0
1664377574062,-0.036132812,0.20898438,0.91796875,-0.0625,-0.46875,0.125,0.0,0.0,0.0
1664377574062,-0.036132812,0.20898438,0.91796875,-0.0625,-0.46875,0.125,0.0,0.0,0.0
1664377574102,-0.03515625,0.20410156,0.9433594,0.0,0.4375,-0.125,0.0,0.0,0.0
1664377574103,-0.03515625,0.20410156,0.9433594,0.0,0.4375,-0.125,0.0,0.0,0.0
1664377574142,-0.045898438,0.2109375,0.9423828,0.1875,-0.09375,0.375,-24.75,12.0625,-94.375
1664377574143,-0.045898438,0.2109375,0.9423828,0.1875,-0.09375,0.375,-24.75,12.0625,-94.375
1664377574182,-0.032226562,0.20800781,0.92285156,-0.25,0.4375,-0.0625,0.0,0.0,0.0
1664377574185,-0.032226562,0.20800781,0.92285156,-0.25,0.4375,-0.0625,0.0,0.0,0.0
1664377574222,-0.02734375,0.21875,0.9316406,0.0,-0.03125,0.0625,0.0,0.0,0.0
1664377574222,-0.02734375,0.21875,0.9316406,0.0,-0.03125,0.0625,0.0,0.0,0.0
1664377574262,-0.026367188,0.2109375,0.9394531,0.0625,-0.21875,-0.0625,0.0,0.0,0.0
1664377574262,-0.026367188,0.2109375,0.9394531,0.0625,-0.21875,-0.0625,0.0,0.0,0.0
1664377574302,-0.0234375,0.20507812,0.9316406,-0.125,-0.34375,-0.1875,0.0,0.0,0.0
1664377574302,-0.0234375,0.20507812,0.9316406,-0.125,-0.34375,-0.1875,0.0,0.0,0.0
1664377574341,-0.032226562,0.21679688,0.9326172,0.125,0.125,-0.125,0.0,0.0,0.0
1664377574342,-0.032226562,0.21679688,0.9326172,0.125,0.125,-0.125,0.0,0.0,0.0
1664377574383,-0.02734375,0.21386719,0.92871094,0.125,-0.03125,0.125,0.0,0.0,0.0
1664377574383,-0.02734375,0.21386719,0.92871094,0.125,-0.03125,0.125,0.0,0.0,0.0
1664377574422,-0.02734375,0.22265625,0.9433594,-0.125,0.5,-0.25,0.0,0.0,0.0
1664377574422,-0.02734375,0.22265625,0.9433594,-0.125,0.5,-0.25,0.0,0.0,0.0
1664377574461,-0.033203125,0.20214844,0.9345703,-0.125,-0.53125,0.0,0.0,0.0,0.0
1664377574461,-0.033203125,0.20214844,0.9345703,-0.125,-0.53125,0.0,0.0,0.0,0.0
1664377574502,-0.026367188,0.20703125,0.9121094,0.0,-0.15625,-0.3125,0.0,0.0,0.0
1664377574502,-0.026367188,0.20703125,0.9121094,0.0,-0.15625,-0.3125,0.0,0.0,0.0
1664377574543,-0.036132812,0.21484375,0.9316406,-0.0625,-0.21875,-0.1875,0.0,0.0,0.0
1664377574543,-0.036132812,0.21484375,0.9316406,-0.0625,-0.21875,-0.1875,0.0,0.0,0.0
1664377574582,-0.029296875,0.2109375,0.94628906,0.0625,-0.28125,-0.0625,0.0,0.0,0.0
1664377574581,-0.029296875,0.2109375,0.94628906,0.0625,-0.28125,-0.0625,0.0,0.0,0.0
1664377574622,-0.02734375,0.20996094,0.9453125,0.25,0.03125,0.0,0.0,0.0,0.0
1664377574622,-0.02734375,0.20996094,0.9453125,0.25,0.03125,0.0,0.0,0.0,0.0
1664377574663,-0.02734375,0.21972656,0.9296875,-0.0625,-0.34375,-0.0625,-25.625,11.5625,-94.25
1664377574663,-0.02734375,0.21972656,0.9296875,-0.0625,-0.34375,-0.0625,-25.625,11.5625,-94.25
1664377574701,-0.030273438,0.21386719,0.9326172,0.0625,-0.15625,0.0,0.0,0.0,0.0
1664377574701,-0.030273438,0.21386719,0.9326172,0.0625,-0.15625,0.0,0.0,0.0,0.0
1664377574742,-0.033203125,0.20800781,0.9277344,0.125,-0.03125,0.0,0.0,0.0,0.0
1664377574742,-0.033203125,0.20800781,0.9277344,0.125,-0.03125,0.0,0.0,0.0,0.0
1664377574783,-0.034179688,0.21191406,0.9316406,-0.0625,0.0625,0.125,0.0,0.0,0.0
1664377574783,-0.034179688,0.21191406,0.9316406,-0.0625,0.0625,0.125,0.0,0.0,0.0
1664377574822,-0.025390625,0.2109375,0.93066406,-0.125,0.4375,-0.25,0.0,0.0,0.0
1664377574822,-0.025390625,0.2109375,0.93066406,-0.125,0.4375,-0.25,0.0,0.0,0.0
1664377574863,-0.033203125,0.21191406,0.9267578,-0.0625,-0.09375,0.125,0.0,0.0,0.0
1664377574863,-0.033203125,0.21191406,0.9267578,-0.0625,-0.09375,0.125,0.0,0.0,0.0
1664377574903,-0.029296875,0.20996094,0.93652344,-0.125,-0.28125,-0.1875,0.0,0.0,0.0
1664377574903,-0.029296875,0.20996094,0.93652344,-0.125,-0.28125,-0.1875,0.0,0.0,0.0
1664377574941,-0.04296875,0.21972656,0.9267578,0.1875,-0.09375,0.0,0.0,0.0,0.0
1664377574945,-0.04296875,0.21972656,0.9267578,0.1875,-0.09375,0.0,0.0,0.0,0.0
1664377574983,-0.029296875,0.20800781,0.92871094,-0.125,-0.28125,-0.25,0.0,0.0,0.0
1664377574983,-0.029296875,0.20800781,0.92871094,-0.125,-0.28125,-0.25,0.0,0.0,0.0
1664377575022,-0.024414062,0.21582031,0.93066406,0.0,0.03125,-0.0625,0.0,0.0,0.0
1664377575022,-0.024414062,0.21582031,0.93066406,0.0,0.03125,-0.0625,0.0,0.0,0.0
1664377575064,-0.025390625,0.203125,0.91796875,0.25,-0.21875,-0.125,0.0,0.0,0.0
1664377575064,-0.025390625,0.203125,0.91796875,0.25,-0.21875,-0.125,0.0,0.0,0.0
1664377575103,-0.026367188,0.20507812,0.9199219,0.1875,0.0625,-0.0625,0.0,0.0,0.0
1664377575105,-0.026367188,0.20507812,0.9199219,0.1875,0.0625,-0.0625,0.0,0.0,0.0
1664377575144,-0.03125,0.20605469,0.92871094,0.0,-0.40625,-0.125,-25.625,11.125,-93.9375
1664377575146,-0.03125,0.20605469,0.92871094,0.0,-0.40625,-0.125,-25.625,11.125,-93.9375
1664377575182,-0.021484375,0.21582031,0.94628906,0.1875,-0.03125,-0.125,0.0,0.0,0.0
1664377575182,-0.021484375,0.21582031,0.94628906,0.1875,-0.03125,-0.125,0.0,0.0,0.0
1664377575222,-0.040039062,0.20507812,0.9316406,0.0,-0.09375,-0.1875,0.0,0.0,0.0
1664377575222,-0.040039062,0.20507812,0.9316406,0.0,-0.09375,-0.1875,0.0,0.0,0.0
1664377575262,-0.033203125,0.21289062,0.92871094,0.0625,-0.03125,-0.0625,0.0,0.0,0.0
1664377575262,-0.033203125,0.21289062,0.92871094,0.0625,-0.03125,-0.0625,0.0,0.0,0.0
1664377575302,-0.033203125,0.21191406,0.93847656,0.125,-0.53125,-0.0625,0.0,0.0,0.0
1664377575302,-0.033203125,0.21191406,0.93847656,0.125,-0.53125,-0.0625,0.0,0.0,0.0
1664377575342,-0.021484375,0.21484375,0.91796875,-0.0625,-0.46875,-0.1875,0.0,0.0,0.0
1664377575342,-0.021484375,0.21484375,0.91796875,-0.0625,-0.46875,-0.1875,0.0,0.0,0.0
1664377575382,-0.033203125,0.21191406,0.93359375,-0.0625,-0.09375,-0.0625,0.0,0.0,0.0
1664377575382,-0.033203125,0.21191406,0.93359375,-0.0625,-0.09375,-0.0625,0.0,0.0,0.0
1664377575422,-0.037109375,0.20898438,0.94433594,0.0625,-0.28125,-0.125,0.0,0.0,0.0
1664377575422,-0.037109375,0.20898438,0.94433594,0.0625,-0.28125,-0.125,0.0,0.0,0.0
1664377575463,-0.03515625,0.21777344,0.9316406,-0.0625,0.4375,-0.375,0.0,0.0,0.0
1664377575463,-0.03515625,0.21777344,0.9316406,-0.0625,0.4375,-0.375,0.0,0.0,0.0
1664377575502,-0.032226562,0.20605469,0.9375,-0.125,-0.28125,-0.0625,0.0,0.0,0.0
1664377575503,-0.032226562,0.20605469,0.9375,-0.125,-0.28125,-0.0625,0.0,0.0,0.0
1664377575543,-0.0234375,0.22070312,0.9238281,0.0,-0.03125,-0.4375,0.0,0.0,0.0
1664377575543,-0.0234375,0.22070312,0.9238281,0.0,-0.03125,-0.4375,0.0,0.0,0.0
1664377575583,-0.02734375,0.20703125,0.9345703,-0.0625,-0.40625,-0.375,0.0,0.0,0.0
1664377575583,-0.02734375,0.20703125,0.9345703,-0.0625,-0.40625,-0.375,0.0,0.0,0.0
1664377575623,-0.032226562,0.21191406,0.9316406,0.0,0.125,-0.3125,0.0,0.0,0.0
1664377575623,-0.032226562,0.21191406,0.9316406,0.0,0.125,-0.3125,0.0,0.0,0.0
1664377575663,-0.037109375,0.20507812,0.93359375,0.125,-0.53125,0.1875,-25.8125,10.6875,-92.75
1664377575663,-0.037109375,0.20507812,0.93359375,0.125,-0.53125,0.1875,-25.8125,10.6875,-92.75
1664377575703,-0.0234375,0.2109375,0.9345703,0.0,0.125,-0.5,0.0,0.0,0.0
1664377575703,-0.0234375,0.2109375,0.9345703,0.0,0.125,-0.5,0.0,0.0,0.0
1664377575744,-0.02734375,0.20410156,0.921875,-0.0625,-0.34375,-0.25,0.0,0.0,0.0
1664377575746,-0.02734375,0.20410156,0.921875,-0.0625,-0.34375,-0.25,0.0,0.0,0.0
1664377575783,-0.037109375,0.21582031,0.93652344,0.0,-0.03125,-0.1875,0.0,0.0,0.0
1664377575783,-0.037109375,0.21582031,0.93652344,0.0,-0.03125,-0.1875,0.0,0.0,0.0
1664377575822,-0.028320312,0.20507812,0.9423828,-0.0625,-0.21875,-0.125,0.0,0.0,0.0
1664377575823,-0.028320312,0.20507812,0.9423828,-0.0625,-0.21875,-0.125,0.0,0.0,0.0
1664377575863,-0.022460938,0.20703125,0.9248047,0.0,-0.09375,-0.25,0.0,0.0,0.0
1664377575863,-0.022460938,0.20703125,0.9248047,0.0,-0.09375,-0.25,0.0,0.0,0.0
1664377575903,-0.03515625,0.20996094,0.93359375,0.0,-0.03125,-0.4375,0.0,0.0,0.0
1664377575903,-0.03515625,0.20996094,0.93359375,0.0,-0.03125,-0.4375,0.0,0.0,0.0
1664377575943,-0.034179688,0.20800781,0.93847656,0.0625,-0.03125,-0.4375,0.0,0.0,0.0
1664377575944,-0.034179688,0.20800781,0.93847656,0.0625,-0.03125,-0.4375,0.0,0.0,0.0
1664377575986,-0.024414062,0.20898438,0.9326172,-0.125,-0.46875,-0.1875,0.0,0.0,0.0
1664377575986,-0.024414062,0.20898438,0.9326172,-0.125,-0.46875,-0.1875,0.0,0.0,0.0
1664377576022,-0.029296875,0.20605469,0.92578125,0.0,0.25,-0.0625,0.0,0.0,0.0
1664377576023,-0.029296875,0.20605469,0.92578125,0.0,0.25,-0.0625,0.0,0.0,0.0
1664377576063,-0.026367188,0.20507812,0.9345703,0.0,0.0625,-0.375,0.0,0.0,0.0
1664377576063,-0.026367188,0.20507812,0.9345703,0.0,0.0625,-0.375,0.0,0.0,0.0
1664377576103,-0.028320312,0.21484375,0.93066406,-0.0625,0.1875,-0.5625,0.0,0.0,0.0
1664377576103,-0.028320312,0.21484375,0.93066406,-0.0625,0.1875,-0.5625,0.0,0.0,0.0
1664377576142,-0.033203125,0.21386719,0.92089844,-0.1875,-0.53125,-0.125,-26.5625,11.75,-92.75
1664377576142,-0.033203125,0.21386719,0.92089844,-0.1875,-0.53125,-0.125,-26.5625,11.75,-92.75
1664377576183,-0.03125,0.20800781,0.9277344,-0.0625,0.03125,-0.625,0.0,0.0,0.0
1664377576183,-0.03125,0.20800781,0.9277344,-0.0625,0.03125,-0.625,0.0,0.0,0.0
1664377576222,-0.032226562,0.20898438,0.9296875,0.0625,-0.15625,-0.3125,0.0,0.0,0.0
1664377576222,-0.032226562,0.20898438,0.9296875,0.0625,-0.15625,-0.3125,0.0,0.0,0.0
1664377576262,-0.02734375,0.21191406,0.9267578,-0.09375,-0.0625,0.03125,0.0,0.0,0.0
1664377576262,-0.02734375,0.21191406,0.9267578,-0.09375,-0.0625,0.03125,0.0,0.0,0.0
1664377576303,-0.034179688,0.2109375,0.9248047,-0.09375,-0.15625,0.09375,0.0,0.0,0.0
1664377576303,-0.034179688,0.2109375,0.9248047,-0.09375,-0.15625,0.09375,0.0,0.0,0.0
1664377576343,-0.02734375,0.21191406,0.9326172,-0.03125,0.25,-0.34375,0.0,0.0,0.0
1664377576345,-0.02734375,0.21191406,0.9326172,-0.03125,0.25,-0.34375,0.0,0.0,0.0
1664377576382,-0.029296875,0.21972656,0.93066406,-0.1875,-0.40625,0.15625,0.0,0.0,0.0
1664377576382,-0.029296875,0.21972656,0.93066406,-0.1875,-0.40625,0.15625,0.0,0.0,0.0
1664377576423,-0.025390625,0.21386719,0.9394531,-0.09375,0.1875,-0.34375,0.0,0.0,0.0
1664377576423,-0.025390625,0.21386719,0.9394531,-0.09375,0.1875,-0.34375,0.0,0.0,0.0
1664377576462,-0.02734375,0.21582031,0.92578125,-0.1875,-0.34375,-0.09375,0.0,0.0,0.0
1664377576462,-0.02734375,0.21582031,0.92578125,-0.1875,-0.34375,-0.09375,0.0,0.0,0.0
1664377576502,-0.033203125,0.21191406,0.91796875,-0.1875,-0.09375,-0.21875,0.0,0.0,0.0
1664377576503,-0.033203125,0.21191406,0.91796875,-0.1875,-0.09375,-0.21875,0.0,0.0,0.0
1664377576543,-0.028320312,0.21582031,0.93359375,-0.25,-0.28125,0.03125,0.0,0.0,0.0
1664377576543,-0.028320312,0.21582031,0.93359375,-0.25,-0.28125,0.03125,0.0,0.0,0.0
1664377576582,-0.028320312,0.20898438,0.9267578,-0.09375,0.125,-0.21875,0.0,0.0,0.0
1664377576582,-0.028320312,0.20898438,0.9267578,-0.09375,0.125,-0.21875,0.0,0.0,0.0
1664377576624,-0.036132812,0.20410156,0.93066406,-0.09375,-0.09375,0.03125,0.0,0.0,0.0
1664377576624,-0.036132812,0.20410156,0.93066406,-0.09375,-0.09375,0.03125,0.0,0.0,0.0
1664377576664,-0.029296875,0.21582031,0.93652344,-0.15625,-0.15625,0.21875,-25.0625,12.5,-92.75
1664377576663,-0.029296875,0.21582031,0.93652344,-0.15625,-0.15625,0.21875,-25.0625,12.5,-92.75
1664377576702,-0.033203125,0.203125,0.93652344,-0.15625,0.4375,0.25,0.0,0.0,0.0
1664377576702,-0.033203125,0.203125,0.93652344,-0.15625,0.4375,0.25,0.0,0.0,0.0
1664377576743,-0.021484375,0.20605469,0.93359375,-0.1875,0.3125,-0.09375,0.0,0.0,0.0
1664377576743,-0.021484375,0.20605469,0.93359375,-0.1875,0.3125,-0.09375,0.0,0.0,0.0
1664377576784,-0.036132812,0.21191406,0.9277344,0.15625,0.4375,0.03125,0.0,0.0,0.0
1664377576784,-0.036132812,0.21191406,0.9277344,0.15625,0.4375,0.03125,0.0,0.0,0.0
1664377576823,-0.02734375,0.20996094,0.93359375,-0.25,-0.09375,0.15625,0.0,0.0,0.0
1664377576822,-0.02734375,0.20996094,0.93359375,-0.25,-0.09375,0.15625,0.0,0.0,0.0
1664377576863,-0.029296875,0.21386719,0.94628906,-0.15625,0.0625,0.15625,0.0,0.0,0.0
1664377576863,-0.029296875,0.21386719,0.94628906,-0.15625,0.0625,0.15625,0.0,0.0,0.0
1664377576902,-0.034179688,0.21289062,0.9316406,0.03125,-0.15625,-0.15625,0.0,0.0,0.0
1664377576903,-0.034179688,0.21289062,0.9316406,0.03125,-0.15625,-0.15625,0.0,0.0,0.0
1664377576942,-0.033203125,0.21875,0.93066406,0.03125,0.1875,0.15625,0.0,0.0,0.0
1664377576942,-0.033203125,0.21875,0.93066406,0.03125,0.1875,0.15625,0.0,0.0,0.0
1664377576982,-0.024414062,0.20800781,0.93847656,-0.03125,-0.0625,0.21875,0.0,0.0,0.0
1664377576982,-0.024414062,0.20800781,0.93847656,-0.03125,-0.0625,0.21875,0.0,0.0,0.0
1664377577023,-0.033203125,0.21191406,0.9472656,-0.09375,0.0,0.15625,0.0,0.0,0.0
1664377577023,-0.033203125,0.21191406,0.9472656,-0.09375,0.0,0.15625,0.0,0.0,0.0
1664377577062,-0.033203125,0.20800781,0.91796875,-0.03125,0.0625,0.03125,0.0,0.0,0.0
1664377577062,-0.033203125,0.20800781,0.91796875,-0.03125,0.0625,0.03125,0.0,0.0,0.0
1664377577102,-0.024414062,0.21972656,0.9248047,-0.03125,0.1875,-0.03125,0.0,0.0,0.0
1664377577105,-0.024414062,0.21972656,0.9248047,-0.03125,0.1875,-0.03125,0.0,0.0,0.0
1664377577142,-0.028320312,0.21191406,0.9345703,0.03125,0.125,0.09375,-26.25,12.0625,-92.3125
1664377577142,-0.028320312,0.21191406,0.9345703,0.03125,0.125,0.09375,-26.25,12.0625,-92.3125
1664377577183,-0.021484375,0.20605469,0.9404297,-0.1875,-0.15625,0.03125,0.0,0.0,0.0
1664377577183,-0.021484375,0.20605469,0.9404297,-0.1875,-0.15625,0.03125,0.0,0.0,0.0
1664377577223,-0.028320312,0.20605469,0.9345703,0.03125,-0.0625,-0.03125,0.0,0.0,0.0
1664377577222,-0.028320312,0.20605469,0.9345703,0.03125,-0.0625,-0.03125,0.0,0.0,0.0
1664377577263,-0.029296875,0.2109375,0.93359375,-0.03125,0.0625,-0.09375,0.0,0.0,0.0
1664377577263,-0.029296875,0.2109375,0.93359375,-0.03125,0.0625,-0.09375,0.0,0.0,0.0
1664377577302,-0.026367188,0.20410156,0.93847656,-0.09375,0.1875,0.15625,0.0,0.0,0.0
1664377577302,-0.026367188,0.20410156,0.93847656,-0.09375,0.1875,0.15625,0.0,0.0,0.0
1664377577341,-0.025390625,0.20898438,0.9121094,-0.09375,0.0,0.09375,0.0,0.0,0.0
1664377577342,-0.025390625,0.20898438,0.9121094,-0.09375,0.0,0.09375,0.0,0.0,0.0
1664377577382,-0.036132812,0.21582031,0.94140625,-0.03125,0.0625,0.15625,0.0,0.0,0.0
1664377577382,-0.036132812,0.21582031,0.94140625,-0.03125,0.0625,0.15625,0.0,0.0,0.0
1664377577423,-0.03125,0.21191406,0.9345703,-0.09375,0.0,0.3125,0.0,0.0,0.0
1664377577423,-0.03125,0.21191406,0.9345703,-0.09375,0.0,0.3125,0.0,0.0,0.0
1664377577463,-0.03125,0.20898438,0.92089844,0.03125,0.6875,0.15625,0.0,0.0,0.0
1664377577463,-0.03125,0.20898438,0.92089844,0.03125,0.6875,0.15625,0.0,0.0,0.0
1664377577501,-0.02734375,0.21582031,0.9394531,-0.15625,0.625,-0.03125,0.0,0.0,0.0
1664377577501,-0.02734375,0.21582031,0.9394531,-0.15625,0.625,-0.03125,0.0,0.0,0.0
1664377577545,-0.026367188,0.21777344,0.9375,-0.03125,0.125,0.375,0.0,0.0,0.0
1664377577545,-0.026367188,0.21777344,0.9375,-0.03125,0.125,0.375,0.0,0.0,0.0
1664377577582,-0.0390625,0.20800781,0.93847656,-0.09375,-0.09375,0.25,0.0,0.0,0.0
1664377577584,-0.0390625,0.20800781,0.93847656,-0.09375,-0.09375,0.25,0.0,0.0,0.0
1664377577622,-0.02734375,0.20605469,0.9248047,-0.03125,0.125,0.21875,0.0,0.0,0.0
1664377577623,-0.02734375,0.20605469,0.9248047,-0.03125,0.125,0.21875,0.0,0.0,0.0
1664377577663,-0.028320312,0.20898438,0.92578125,-0.03125,0.125,0.15625,-24.625,11.5625,-93.5
1664377577663,-0.028320312,0.20898438,0.92578125,-0.03125,0.125,0.15625,-24.625,11.5625,-93.5
1664377577702,-0.03515625,0.20507812,0.9404297,-0.03125,-0.09375,0.4375,0.0,0.0,0.0
1664377577702,-0.03515625,0.20507812,0.9404297,-0.03125,-0.09375,0.4375,0.0,0.0,0.0
1664377577742,-0.03125,0.21191406,0.921875,-0.03125,0.4375,0.03125,0.0,0.0,0.0
1664377577742,-0.03125,0.21191406,0.921875,-0.03125,0.4375,0.03125,0.0,0.0,0.0
1664377577783,-0.030273438,0.2109375,0.9248047,-0.09375,-0.0625,0.15625,0.0,0.0,0.0
1664377577782,-0.030273438,0.2109375,0.9248047,-0.09375,-0.0625,0.15625,0.0,0.0,0.0
1664377577824,-0.022460938,0.20605469,0.92578125,-0.09375,-0.09375,0.21875,0.0,0.0,0.0
1664377577824,-0.022460938,0.20605469,0.92578125,-0.09375,-0.09375,0.21875,0.0,0.0,0.0
1664377577864,-0.037109375,0.21386719,0.9326172,0.03125,0.0625,0.25,0.0,0.0,0.0
1664377577864,-0.037109375,0.21386719,0.9326172,0.03125,0.0625,0.25,0.0,0.0,0.0
1664377577903,-0.041015625,0.2109375,0.92578125,0.03125,-0.0625,0.15625,0.0,0.0,0.0
1664377577905,-0.041015625,0.2109375,0.92578125,0.03125,-0.0625,0.15625,0.0,0.0,0.0
1664377577943,-0.028320312,0.21582031,0.9296875,0.21875,0.25,0.21875,0.0,0.0,0.0
1664377577943,-0.028320312,0.21582031,0.9296875,0.21875,0.25,0.21875,0.0,0.0,0.0
1664377577983,-0.033203125,0.20117188,0.93359375,-0.03125,0.3125,0.09375,0.0,0.0,0.0
1664377577983,-0.033203125,0.20117188,0.93359375,-0.03125,0.3125,0.09375,0.0,0.0,0.0
1664377578022,-0.028320312,0.20996094,0.9404297,-0.09375,-0.21875,0.4375,0.0,0.0,0.0
1664377578022,-0.028320312,0.20996094,0.9404297,-0.09375,-0.21875,0.4375,0.0,0.0,0.0
1664377578062,-0.030273438,0.2109375,0.9423828,0.09375,0.1875,0.15625,0.0,0.0,0.0
1664377578062,-0.030273438,0.2109375,0.9423828,0.09375,0.1875,0.15625,0.0,0.0,0.0
1664377578103,-0.02734375,0.20898438,0.9375,0.03125,0.0,0.21875,0.0,0.0,0.0
1664377578103,-0.02734375,0.20898438,0.9375,0.03125,0.0,0.21875,0.0,0.0,0.0
1664377578143,-0.029296875,0.21386719,0.9394531,0.09375,0.1875,0.21875,-24.0,10.6875,-93.625
1664377578143,-0.029296875,0.21386719,0.9394531,0.09375,0.1875,0.21875,-24.0,10.6875,-93.625
1664377578182,-0.034179688,0.21386719,0.93359375,-0.03125,0.1875,0.25,0.0,0.0,0.0
1664377578182,-0.034179688,0.21386719,0.93359375,-0.03125,0.1875,0.25,0.0,0.0,0.0
1664377578223,-0.03125,0.20898438,0.9345703,-0.1875,-0.0625,0.5,0.0,0.0,0.0
1664377578225,-0.03125,0.20898438,0.9345703,-0.1875,-0.0625,0.5,0.0,0.0,0.0
1664377578263,-0.032226562,0.20703125,0.93359375,-0.09375,0.375,0.625,0.0,0.0,0.0
1664377578263,-0.032226562,0.20703125,0.93359375,-0.09375,0.375,0.625,0.0,0.0,0.0
1664377578303,-0.028320312,0.21191406,0.92578125,-0.03125,0.5625,0.25,0.0,0.0,0.0
1664377578303,-0.028320312,0.21191406,0.92578125,-0.03125,0.5625,0.25,0.0,0.0,0.0
1664377578342,-0.028320312,0.21386719,0.9189453,-0.09375,0.0,0.5,0.0,0.0,0.0
1664377578342,-0.028320312,0.21386719,0.9189453,-0.09375,0.0,0.5,0.0,0.0,0.0
1664377578383,-0.026367188,0.21191406,0.92578125,-0.03125,0.125,0.15625,0.0,0.0,0.0
1664377578383,-0.026367188,0.21191406,0.92578125,-0.03125,0.125,0.15625,0.0,0.0,0.0
1664377578423,-0.03125,0.21972656,0.9453125,-0.03125,0.25,0.25,0.0,0.0,0.0
1664377578423,-0.03125,0.21972656,0.9453125,-0.03125,0.25,0.25,0.0,0.0,0.0
1664377578464,-0.03515625,0.20996094,0.91796875,-0.09375,-0.78125,0.375,0.0,0.0,0.0
1664377578464,-0.03515625,0.20996094,0.91796875,-0.09375,-0.78125,0.375,0.0,0.0,0.0
1664377578502,-0.03125,0.20507812,0.9375,0.03125,0.1875,0.25,0.0,0.0,0.0
1664377578503,-0.03125,0.20507812,0.9375,0.03125,0.1875,0.25,0.0,0.0,0.0
1664377578543,-0.03125,0.20898438,0.9423828,-0.03125,-0.46875,0.6875,0.0,0.0,0.0
1664377578545,-0.03125,0.20898438,0.9423828,-0.03125,-0.46875,0.6875,0.0,0.0,0.0
1664377578583,-0.03125,0.20996094,0.9345703,-0.03125,0.25,0.15625,0.0,0.0,0.0
1664377578583,-0.03125,0.20996094,0.9345703,-0.03125,0.25,0.15625,0.0,0.0,0.0
1664377578622,-0.033203125,0.21484375,0.93066406,-0.03125,-0.09375,0.21875,0.0,0.0,0.0
1664377578622,-0.033203125,0.21484375,0.93066406,-0.03125,-0.09375,0.21875,0.0,0.0,0.0
1664377578663,-0.02734375,0.20898438,0.9345703,-0.03125,-0.21875,0.21875,-25.9375,12.625,-93.5
1664377578663,-0.02734375,0.20898438,0.9345703,-0.03125,-0.21875,0.21875,-25.9375,12.625,-93.5
1664377578703,-0.028320312,0.21484375,0.92578125,-0.03125,-0.0625,0.15625,0.0,0.0,0.0
1664377578703,-0.028320312,0.21484375,0.92578125,-0.03125,-0.0625,0.15625,0.0,0.0,0.0
1664377578743,-0.033203125,0.20800781,0.9326172,0.09375,-0.28125,0.21875,0.0,0.0,0.0
1664377578743,-0.033203125,0.20800781,0.9326172,0.09375,-0.28125,0.21875,0.0,0.0,0.0
1664377578783,-0.026367188,0.20605469,0.9238281,0.03125,0.125,-0.03125,0.0,0.0,0.0
1664377578783,-0.026367188,0.20605469,0.9238281,0.03125,0.125,-0.03125,0.0,0.0,0.0
1664377578823,-0.038085938,0.2109375,0.93847656,0.03125,-0.09375,0.21875,0.0,0.0,0.0
1664377578825,-0.038085938,0.2109375,0.93847656,0.03125,-0.09375,0.21875,0.0,0.0,0.0
1664377578863,-0.029296875,0.20703125,0.9316406,0.09375,-0.0625,0.21875,0.0,0.0,0.0
1664377578863,-0.029296875,0.20703125,0.9316406,0.09375,-0.0625,0.21875,0.0,0.0,0.0
1664377578901,-0.033203125,0.21679688,0.9277344,0.09375,-0.15625,0.3125,0.0,0.0,0.0
1664377578902,-0.033203125,0.21679688,0.9277344,0.09375,-0.15625,0.3125,0.0,0.0,0.0
1664377578942,-0.03125,0.20996094,0.9199219,-0.15625,0.125,0.03125,0.0,0.0,0.0
1664377578943,-0.03125,0.20996094,0.9199219,-0.15625,0.125,0.03125,0.0,0.0,0.0
1664377578983,-0.025390625,0.21679688,0.9423828,-0.09375,-0.40625,0.03125,0.0,0.0,0.0
1664377578983,-0.025390625,0.21679688,0.9423828,-0.09375,-0.40625,0.03125,0.0,0.0,0.0
1664377579022,-0.0234375,0.21386719,0.9326172,-0.03125,0.1875,0.15625,0.0,0.0,0.0
1664377579022,-0.0234375,0.21386719,0.9326172,-0.03125,0.1875,0.15625,0.0,0.0,0.0
1664377579064,-0.026367188,0.20507812,0.9394531,-0.03125,0.0625,0.09375,0.0,0.0,0.0
1664377579064,-0.026367188,0.20507812,0.9394531,-0.03125,0.0625,0.09375,0.0,0.0,0.0
1664377579103,-0.02734375,0.21875,0.9394531,-0.15625,0.3125,0.03125,0.0,0.0,0.0
1664377579103,-0.02734375,0.21875,0.9394531,-0.15625,0.3125,0.03125,0.0,0.0,0.0
1664377579143,-0.02734375,0.20703125,0.92871094,0.03125,0.0,0.09375,-25.9375,12.9375,-93.1875
1664377579143,-0.02734375,0.20703125,0.92871094,0.03125,0.0,0.09375,-25.9375,12.9375,-93.1875
1664377579183,-0.038085938,0.21386719,0.92089844,-0.03125,-0.09375,-0.15625,0.0,0.0,0.0
1664377579183,-0.038085938,0.21386719,0.92089844,-0.03125,-0.09375,-0.15625,0.0,0.0,0.0
1664377579222,-0.026367188,0.21289062,0.9296875,-0.09375,-0.40625,-0.09375,0.0,0.0,0.0
1664377579222,-0.026367188,0.21289062,0.9296875,-0.09375,-0.40625,-0.09375,0.0,0.0,0.0
1664377579263,-0.0234375,0.20996094,0.9345703,-0.09375,-0.0625,-0.21875,0.0,0.0,0.0
1664377579263,-0.0234375,0.20996094,0.9345703,-0.09375,-0.0625,-0.21875,0.0,0.0,0.0
1664377579304,-0.02734375,0.21484375,0.9316406,-0.15625,-0.34375,0.21875,0.0,0.0,0.0
1664377579304,-0.02734375,0.21484375,0.9316406,-0.15625,-0.34375,0.21875,0.0,0.0,0.0
1664377579342,-0.021484375,0.20800781,0.9199219,0.15625,0.0625,-0.15625,0.0,0.0,0.0
1664377579342,-0.021484375,0.20800781,0.9199219,0.15625,0.0625,-0.15625,0.0,0.0,0.0
1664377579384,-0.041015625,0.21289062,0.9326172,0.03125,0.0,-0.03125,0.0,0.0,0.0
1664377579384,-0.041015625,0.21289062,0.9326172,0.03125,0.0,-0.03125,0.0,0.0,0.0
1664377579425,-0.03515625,0.2109375,0.93066406,-0.15625,-0.15625,-0.09375,0.0,0.0,0.0
1664377579425,-0.03515625,0.2109375,0.93066406,-0.15625,-0.15625,-0.09375,0.0,0.0,0.0
1664377579463,-0.025390625,0.21191406,0.93652344,-0.03125,0.0,-0.09375,0.0,0.0,0.0
1664377579463,-0.025390625,0.21191406,0.93652344,-0.03125,0.0,-0.09375,0.0,0.0,0.0
1664377579502,-0.029296875,0.21289062,0.9433594,-0.09375,0.0,-0.09375,0.0,0.0,0.0
1664377579503,-0.029296875,0.21289062,0.9433594,-0.09375,0.0,-0.09375,0.0,0.0,0.0
1664377579543,-0.025390625,0.21484375,0.9277344,-0.03125,-0.0625,-0.21875,0.0,0.0,0.0
1664377579543,-0.025390625,0.21484375,0.9277344,-0.03125,-0.0625,-0.21875,0.0,0.0,0.0
1664377579582,-0.024414062,0.2109375,0.9316406,-0.03125,0.125,-0.15625,0.0,0.0,0.0
1664377579582,-0.024414062,0.2109375,0.9316406,-0.03125,0.125,-0.15625,0.0,0.0,0.0
1664377579622,-0.030273438,0.21582031,0.9433594,-0.09375,-0.15625,-0.21875,0.0,0.0,0.0
1664377579622,-0.030273438,0.21582031,0.9433594,-0.09375,-0.15625,-0.21875,0.0,0.0,0.0
1664377579665,-0.034179688,0.20996094,0.9296875,-0.03125,0.1875,-0.09375,-24.4375,10.6875,-93.0625
1664377579665,-0.034179688,0.20996094,0.9296875,-0.03125,0.1875,-0.09375,-24.4375,10.6875,-93.0625
1664377579705,-0.029296875,0.2109375,0.93066406,0.03125,0.0,-0.09375,0.0,0.0,0.0
1664377579705,-0.029296875,0.2109375,0.93066406,0.03125,0.0,-0.09375,0.0,0.0,0.0
1664377579742,-0.024414062,0.21875,0.93652344,0.09375,0.1875,-0.15625,0.0,0.0,0.0
1664377579742,-0.024414062,0.21875,0.93652344,0.09375,0.1875,-0.15625,0.0,0.0,0.0
1664377579782,-0.025390625,0.21972656,0.9248047,-0.09375,-0.0625,0.03125,0.0,0.0,0.0
1664377579782,-0.025390625,0.21972656,0.9248047,-0.09375,-0.0625,0.03125,0.0,0.0,0.0
1664377579822,-0.03125,0.21484375,0.9267578,-0.03125,0.4375,-0.09375,0.0,0.0,0.0
1664377579822,-0.03125,0.21484375,0.9267578,-0.03125,0.4375,-0.09375,0.0,0.0,0.0
1664377579862,-0.020507812,0.20898438,0.9404297,0.09375,0.9375,-0.34375,0.0,0.0,0.0
1664377579862,-0.020507812,0.20898438,0.9404297,0.09375,0.9375,-0.34375,0.0,0.0,0.0
1664377579902,-0.033203125,0.20605469,0.9248047,0.09375,0.625,-0.09375,0.0,0.0,0.0
1664377579903,-0.033203125,0.20605469,0.9248047,0.09375,0.625,-0.09375,0.0,0.0,0.0
1664377579943,-0.038085938,0.20800781,0.93359375,-0.09375,-0.28125,-0.09375,0.0,0.0,0.0
1664377579943,-0.038085938,0.20800781,0.93359375,-0.09375,-0.28125,-0.09375,0.0,0.0,0.0
1664377579982,-0.034179688,0.21972656,0.93066406,0.03125,0.1875,-0.15625,0.0,0.0,0.0
1664377579982,-0.034179688,0.21972656,0.93066406,0.03125,0.1875,-0.15625,0.0,0.0,0.0
1664377580022,-0.0234375,0.20410156,0.93652344,0.09375,-0.34375,-0.15625,0.0,0.0,0.0
1664377580022,-0.0234375,0.20410156,0.93652344,0.09375,-0.34375,-0.15625,0.0,0.0,0.0
1664377580064,-0.032226562,0.20996094,0.93847656,-0.15625,0.1875,-0.21875,0.0,0.0,0.0
1664377580063,-0.032226562,0.20996094,0.93847656,-0.15625,0.1875,-0.21875,0.0,0.0,0.0
1664377580103,-0.022460938,0.20996094,0.94628906,-0.09375,-0.34375,0.09375,0.0,0.0,0.0
1664377580103,-0.022460938,0.20996094,0.94628906,-0.09375,-0.34375,0.09375,0.0,0.0,0.0
1664377580142,-0.029296875,0.21582031,0.94140625,-0.03125,0.375,-0.09375,-24.125,10.5625,-92.4375
1664377580142,-0.029296875,0.21582031,0.94140625,-0.03125,0.375,-0.09375,-24.125,10.5625,-92.4375
1664377580182,-0.032226562,0.20898438,0.9160156,-0.15625,-0.40625,-0.03125,0.0,0.0,0.0
1664377580183,-0.032226562,0.20898438,0.9160156,-0.15625,-0.40625,-0.03125,0.0,0.0,0.0
1664377580222,-0.02734375,0.21484375,0.93359375,-0.15625,-0.09375,-0.09375,0.0,0.0,0.0
1664377580222,-0.02734375,0.21484375,0.93359375,-0.15625,-0.09375,-0.09375,0.0,0.0,0.0
1664377580262,-0.03515625,0.20996094,0.93359375,-0.09375,-0.09375,-0.15625,0.0,0.0,0.0
1664377580262,-0.03515625,0.20996094,0.93359375,-0.09375,-0.09375,-0.15625,0.0,0.0,0.0
1664377580303,-0.0390625,0.21386719,0.9316406,-0.03125,0.0625,-0.21875,0.0,0.0,0.0
1664377580302,-0.0390625,0.21386719,0.9316406,-0.03125,0.0625,-0.21875,0.0,0.0,0.0
1664377580342,-0.033203125,0.21191406,0.93359375,-0.09375,-0.09375,-0.15625,0.0,0.0,0.0
1664377580342,-0.033203125,0.21191406,0.93359375,-0.09375,-0.09375,-0.15625,0.0,0.0,0.0
1664377580382,-0.0234375,0.20703125,0.93359375,-0.03125,0.0625,-0.09375,0.0,0.0,0.0
1664377580382,-0.0234375,0.20703125,0.93359375,-0.03125,0.0625,-0.09375,0.0,0.0,0.0
1664377580422,-0.028320312,0.22167969,0.93359375,-0.3125,0.3125,-0.03125,0.0,0.0,0.0
1664377580422,-0.028320312,0.22167969,0.93359375,-0.3125,0.3125,-0.03125,0.0,0.0,0.0
1664377580462,-0.03125,0.21191406,0.9355469,-0.09375,-0.0625,0.15625,0.0,0.0,0.0
1664377580462,-0.03125,0.21191406,0.9355469,-0.09375,-0.0625,0.15625,0.0,0.0,0.0
1664377580503,-0.018554688,0.21289062,0.9238281,-0.375,0.125,-0.15625,0.0,0.0,0.0
1664377580503,-0.018554688,0.21289062,0.9238281,-0.375,0.125,-0.15625,0.0,0.0,0.0
1664377580542,-0.036132812,0.21679688,0.9423828,0.03125,-0.09375,0.15625,0.0,0.0,0.0
1664377580542,-0.036132812,0.21679688,0.9423828,0.03125,-0.09375,0.15625,0.0,0.0,0.0
1664377580582,-0.02734375,0.2109375,0.92871094,-0.1875,0.125,0.21875,0.0,0.0,0.0
1664377580582,-0.02734375,0.2109375,0.92871094,-0.1875,0.125,0.21875,0.0,0.0,0.0
1664377580624,-0.028320312,0.22167969,0.92871094,-0.03125,0.625,-0.21875,0.0,0.0,0.0
1664377580624,-0.028320312,0.22167969,0.92871094,-0.03125,0.625,-0.21875,0.0,0.0,0.0
1664377580663,-0.029296875,0.21484375,0.9316406,0.03125,-0.28125,0.375,-24.875,10.8125,-93.1875
1664377580663,-0.029296875,0.21484375,0.9316406,0.03125,-0.28125,0.375,-24.875,10.8125,-93.1875
1664377580702,-0.038085938,0.21679688,0.92578125,-0.25,0.25,0.21875,0.0,0.0,0.0
1664377580702,-0.038085938,0.21679688,0.92578125,-0.25,0.25,0.21875,0.0,0.0,0.0
1664377580742,-0.030273438,0.2109375,0.9316406,-0.03125,0.0625,0.375,0.0,0.0,0.0
1664377580742,-0.030273438,0.2109375,0.9316406,-0.03125,0.0625,0.375,0.0,0.0,0.0
1664377580784,-0.026367188,0.20996094,0.93066406,0.03125,0.0,0.375,0.0,0.0,0.0
1664377580784,-0.026367188,0.20996094,0.93066406,0.03125,0.0,0.375,0.0,0.0,0.0
1664377580821,-0.03125,0.20996094,0.9394531,-0.15625,-0.0625,0.5625,0.0,0.0,0.0
1664377580822,-0.03125,0.20996094,0.9394531,-0.15625,-0.0625,0.5625,0.0,0.0,0.0
1664377580863,-0.032226562,0.2109375,0.93847656,-0.09375,-0.0625,0.3125,0.0,0.0,0.0
1664377580863,-0.032226562,0.2109375,0.93847656,-0.09375,-0.0625,0.3125,0.0,0.0,0.0
1664377580903,-0.024414062,0.20800781,0.9296875,-0.03125,0.3125,0.21875,0.0,0.0,0.0
1664377580903,-0.024414062,0.20800781,0.9296875,-0.03125,0.3125,0.21875,0.0,0.0,0.0
1664377580944,-0.037109375,0.21191406,0.93847656,-0.09375,-0.34375,0.4375,0.0,0.0,0.0
1664377580944,-0.037109375,0.21191406,0.93847656,-0.09375,-0.34375,0.4375,0.0,0.0,0.0
1664377580986,-0.030273438,0.21777344,0.9345703,-0.25,0.25,0.25,0.0,0.0,0.0
1664377580986,-0.030273438,0.21777344,0.9345703,-0.25,0.25,0.25,0.0,0.0,0.0
1664377581023,-0.032226562,0.20800781,0.92871094,-0.03125,0.1875,0.3125,0.0,0.0,0.0
1664377581022,-0.032226562,0.20800781,0.92871094,-0.03125,0.1875,0.3125,0.0,0.0,0.0
1664377581062,-0.025390625,0.20800781,0.93652344,0.03125,0.125,0.21875,0.0,0.0,0.0
1664377581062,-0.025390625,0.20800781,0.93652344,0.03125,0.125,0.21875,0.0,0.0,0.0
1664377581103,-0.024414062,0.21582031,0.92871094,0.03125,0.0625,0.09375,0.0,0.0,0.0
1664377581103,-0.024414062,0.21582031,0.92871094,0.03125,0.0625,0.09375,0.0,0.0,0.0
1664377581143,-0.038085938,0.21191406,0.9248047,-0.09375,0.0625,0.375,-25.5,11.75,-93.0625
1664377581144,-0.038085938,0.21191406,0.9248047,-0.09375,0.0625,0.375,-25.5,11.75,-93.0625
1664377581182,-0.033203125,0.19921875,0.91796875,-0.03125,0.0625,0.4375,0.0,0.0,0.0
1664377581183,-0.033203125,0.19921875,0.91796875,-0.03125,0.0625,0.4375,0.0,0.0,0.0
1664377581225,-0.032226562,0.20996094,0.9248047,0.09375,0.4375,0.15625,0.0,0.0,0.0
1664377581225,-0.032226562,0.20996094,0.9248047,0.09375,0.4375,0.15625,0.0,0.0,0.0
1664377581264,-0.029296875,0.21289062,0.9326172,-0.09375,-0.46875,0.3125,0.0,0.0,0.0
1664377581265,-0.029296875,0.21289062,0.9326172,-0.09375,-0.46875,0.3125,0.0,0.0,0.0
1664377581303,-0.033203125,0.20703125,0.9355469,-0.09375,0.375,0.25,0.0,0.0,0.0
1664377581303,-0.033203125,0.20703125,0.9355469,-0.09375,0.375,0.25,0.0,0.0,0.0
1664377581342,-0.03515625,0.2109375,0.91796875,-0.15625,0.0625,0.09375,0.0,0.0,0.0
1664377581342,-0.03515625,0.2109375,0.91796875,-0.15625,0.0625,0.09375,0.0,0.0,0.0
1664377581384,-0.03125,0.21289062,0.91015625,-0.03125,0.6875,0.25,0.0,0.0,0.0
1664377581383,-0.03125,0.21289062,0.91015625,-0.03125,0.6875,0.25,0.0,0.0,0.0
1664377581423,-0.032226562,0.21582031,0.9345703,-0.15625,0.0,0.375,0.0,0.0,0.0
1664377581423,-0.032226562,0.21582031,0.9345703,-0.15625,0.0,0.375,0.0,0.0,0.0
1664377581463,-0.034179688,0.21679688,0.9199219,-0.09375,-0.09375,0.3125,0.0,0.0,0.0
1664377581463,-0.034179688,0.21679688,0.9199219,-0.09375,-0.09375,0.3125,0.0,0.0,0.0
1664377581503,-0.029296875,0.21679688,0.9238281,0.21875,-0.0625,0.25,0.0,0.0,0.0
1664377581503,-0.029296875,0.21679688,0.9238281,0.21875,-0.0625,0.25,0.0,0.0,0.0
1664377581543,-0.0390625,0.2109375,0.92285156,-0.1875,0.1875,0.3125,0.0,0.0,0.0
1664377581543,-0.0390625,0.2109375,0.92285156,-0.1875,0.1875,0.3125,0.0,0.0,0.0
1664377581584,-0.029296875,0.21191406,0.9345703,0.15625,-0.21875,0.625,0.0,0.0,0.0
1664377581584,-0.029296875,0.21191406,0.9345703,0.15625,-0.21875,0.625,0.0,0.0,0.0
1664377581624,-0.036132812,0.203125,0.9326172,-0.15625,0.4375,0.03125,0.0,0.0,0.0
1664377581625,-0.036132812,0.203125,0.9326172,-0.15625,0.4375,0.03125,0.0,0.0,0.0
1664377581663,-0.026367188,0.21777344,0.9423828,0.15625,-0.15625,0.25,-24.0,12.5,-92.75
1664377581663,-0.026367188,0.21777344,0.9423828,0.15625,-0.15625,0.25,-24.0,12.5,-92.75
1664377581703,-0.022460938,0.21679688,0.9296875,-0.1875,0.0,0.09375,0.0,0.0,0.0
1664377581703,-0.022460938,0.21679688,0.9296875,-0.1875,0.0,0.09375,0.0,0.0,0.0
1664377581743,-0.03125,0.21289062,0.9453125,-0.03125,0.5625,0.03125,0.0,0.0,0.0
1664377581743,-0.03125,0.21289062,0.9453125,-0.03125,0.5625,0.03125,0.0,0.0,0.0
1664377581783,-0.033203125,0.21191406,0.92089844,0.03125,-0.09375,0.3125,0.0,0.0,0.0
1664377581783,-0.033203125,0.21191406,0.92089844,0.03125,-0.09375,0.3125,0.0,0.0,0.0
1664377581823,-0.038085938,0.21679688,0.921875,-0.15625,0.125,0.3125,0.0,0.0,0.0
1664377581823,-0.038085938,0.21679688,0.921875,-0.15625,0.125,0.3125,0.0,0.0,0.0
1664377581863,-0.02734375,0.20703125,0.9423828,-0.03125,-0.09375,0.21875,0.0,0.0,0.0
1664377581863,-0.02734375,0.20703125,0.9423828,-0.03125,-0.09375,0.21875,0.0,0.0,0.0
1664377581902,-0.030273438,0.21386719,0.9248047,-0.15625,-0.15625,0.25,0.0,0.0,0.0
1664377581902,-0.030273438,0.21386719,0.9248047,-0.15625,-0.15625,0.25,0.0,0.0,0.0
1664377581943,-0.029296875,0.20410156,0.9267578,-0.1875,0.0,0.3125,0.0,0.0,0.0
1664377581943,-0.029296875,0.20410156,0.9267578,-0.1875,0.0,0.3125,0.0,0.0,0.0
1664377581983,-0.022460938,0.21386719,0.92871094,-0.09375,-0.0625,0.4375,0.0,0.0,0.0
1664377581983,-0.022460938,0.21386719,0.92871094,-0.09375,-0.0625,0.4375,0.0,0.0,0.0
1664377582022,-0.034179688,0.20996094,0.93847656,-0.09375,-0.15625,0.625,0.0,0.0,0.0
1664377582022,-0.034179688,0.20996094,0.93847656,-0.09375,-0.15625,0.625,0.0,0.0,0.0
1664377582063,-0.018554688,0.20507812,0.9375,-0.15625,0.1875,0.25,0.0,0.0,0.0
1664377582063,-0.018554688,0.20507812,0.9375,-0.15625,0.1875,0.25,0.0,0.0,0.0
1664377582102,-0.038085938,0.20996094,0.93847656,-0.09375,0.1875,0.5625,0.0,0.0,0.0
1664377582102,-0.038085938,0.20996094,0.93847656,-0.09375,0.1875,0.5625,0.0,0.0,0.0
1664377582142,-0.026367188,0.21191406,0.93066406,-0.03125,-0.40625,0.3125,-24.0,12.0625,-93.375
1664377582142,-0.026367188,0.21191406,0.93066406,-0.03125,-0.40625,0.3125,-24.0,12.0625,-93.375
1664377582183,-0.034179688,0.20800781,0.94433594,-0.03125,0.375,-0.09375,0.0,0.0,0.0
1664377582183,-0.034179688,0.20800781,0.94433594,-0.03125,0.375,-0.09375,0.0,0.0,0.0
1664377582223,-0.034179688,0.2109375,0.9267578,0.03125,-0.90625,0.25,0.0,0.0,0.0
1664377582225,-0.034179688,0.2109375,0.9267578,0.03125,-0.90625,0.25,0.0,0.0,0.0
1664377582262,-0.03125,0.20996094,0.9296875,0.09375,0.4375,0.03125,0.0,0.0,0.0
1664377582264,-0.03125,0.20996094,0.9296875,0.09375,0.4375,0.03125,0.0,0.0,0.0
1664377582303,-0.026367188,0.20996094,0.9472656,-0.09375,-0.28125,0.25,0.0,0.0,0.0
1664377582303,-0.026367188,0.20996094,0.9472656,-0.09375,-0.28125,0.25,0.0,0.0,0.0
1664377582342,-0.0234375,0.20410156,0.9277344,-0.15625,0.0,0.15625,0.0,0.0,0.0
1664377582342,-0.0234375,0.20410156,0.9277344,-0.15625,0.0,0.15625,0.0,0.0,0.0
1664377582382,-0.028320312,0.20898438,0.9433594,-0.09375,-0.28125,-0.09375,0.0,0.0,0.0
1664377582382,-0.028320312,0.20898438,0.9433594,-0.09375,-0.28125,-0.09375,0.0,0.0,0.0
1664377582423,-0.0234375,0.21484375,0.9248047,-0.1875,-0.21875,0.09375,0.0,0.0,0.0
1664377582423,-0.0234375,0.21484375,0.9248047,-0.1875,-0.21875,0.09375,0.0,0.0,0.0
1664377582463,-0.02734375,0.21386719,0.92089844,-0.03125,0.0,-0.21875,0.0,0.0,0.0
1664377582463,-0.02734375,0.21386719,0.92089844,-0.03125,0.0,-0.21875,0.0,0.0,0.0
1664377582503,-0.026367188,0.20898438,0.9248047,-0.09375,-0.09375,0.21875,0.0,0.0,0.0
1664377582504,-0.026367188,0.20898438,0.9248047,-0.09375,-0.09375,0.21875,0.0,0.0,0.0
1664377582543,-0.03125,0.21191406,0.9121094,-0.3125,-0.21875,0.21875,0.0,0.0,0.0
1664377582543,-0.03125,0.21191406,0.9121094,-0.3125,-0.21875,0.21875,0.0,0.0,0.0
1664377582603,-0.026367188,0.21582031,0.92285156,0.03125,0.125,-0.03125,0.0,0.0,0.0
1664377582604,-0.026367188,0.21582031,0.92285156,0.03125,0.125,-0.03125,0.0,0.0,0.0
1664377582622,-0.0234375,0.20605469,0.9296875,-0.03125,-0.15625,-0.03125,0.0,0.0,0.0
1664377582622,-0.0234375,0.20605469,0.9296875,-0.03125,-0.15625,-0.03125,0.0,0.0,0.0
1664377582663,-0.02734375,0.21386719,0.93359375,-0.09375,-0.09375,0.09375,-25.0625,11.75,-92.75
1664377582662,-0.02734375,0.21386719,0.93359375,-0.09375,-0.09375,0.09375,-25.0625,11.75,-92.75
1664377582702,-0.03515625,0.21582031,0.9296875,-0.09375,-0.09375,0.15625,0.0,0.0,0.0
1664377582702,-0.03515625,0.21582031,0.9296875,-0.09375,-0.09375,0.15625,0.0,0.0,0.0
1664377582742,-0.028320312,0.20898438,0.9404297,0.03125,0.25,0.09375,0.0,0.0,0.0
1664377582742,-0.028320312,0.20898438,0.9404297,0.03125,0.25,0.09375,0.0,0.0,0.0
1664377582782,-0.02734375,0.21875,0.9394531,-0.15625,0.5625,0.03125,0.0,0.0,0.0
1664377582782,-0.02734375,0.21875,0.9394531,-0.15625,0.5625,0.03125,0.0,0.0,0.0
1664377582822,-0.03125,0.20703125,0.9169922,-0.03125,0.25,0.09375,0.0,0.0,0.0
1664377582822,-0.03125,0.20703125,0.9169922,-0.03125,0.25,0.09375,0.0,0.0,0.0
1664377582862,-0.037109375,0.20703125,0.9453125,-0.09375,0.0,0.09375,0.0,0.0,0.0
1664377582864,-0.037109375,0.20703125,0.9453125,-0.09375,0.0,0.09375,0.0,0.0,0.0
1664377582902,-0.02734375,0.2109375,0.93066406,-0.09375,-0.40625,0.15625,0.0,0.0,0.0
1664377582902,-0.02734375,0.2109375,0.93066406,-0.09375,-0.40625,0.15625,0.0,0.0,0.0
1664377582942,-0.029296875,0.20605469,0.93652344,-0.09375,0.0,-0.09375,0.0,0.0,0.0
1664377582942,-0.029296875,0.20605469,0.93652344,-0.09375,0.0,-0.09375,0.0,0.0,0.0
1664377582983,-0.034179688,0.20996094,0.92578125,-0.03125,0.0625,0.3125,0.0,0.0,0.0
1664377582983,-0.034179688,0.20996094,0.92578125,-0.03125,0.0625,0.3125,0.0,0.0,0.0
1664377583022,-0.028320312,0.2109375,0.92871094,-0.09375,0.0,0.09375,0.0,0.0,0.0
1664377583023,-0.028320312,0.2109375,0.92871094,-0.09375,0.0,0.09375,0.0,0.0,0.0
1664377583062,-0.028320312,0.2109375,0.93359375,-0.1875,-0.15625,0.09375,0.0,0.0,0.0
1664377583062,-0.028320312,0.2109375,0.93359375,-0.1875,-0.15625,0.09375,0.0,0.0,0.0
1664377583102,-0.0390625,0.21386719,0.9345703,0.03125,-0.0625,0.03125,0.0,0.0,0.0
1664377583103,-0.0390625,0.21386719,0.9345703,0.03125,-0.0625,0.03125,0.0,0.0,0.0
1664377583143,-0.02734375,0.21875,0.92089844,-0.1875,0.0,-0.03125,-24.625,12.3125,-92.125
1664377583145,-0.02734375,0.21875,0.92089844,-0.1875,0.0,-0.03125,-24.625,12.3125,-92.125
1664377583183,-0.022460938,0.20507812,0.9345703,-0.03125,-0.0625,0.03125,0.0,0.0,0.0
1664377583185,-0.022460938,0.20507812,0.9345703,-0.03125,-0.0625,0.03125,0.0,0.0,0.0
1664377583223,-0.028320312,0.20898438,0.93847656,-0.09375,-0.21875,0.09375,0.0,0.0,0.0
1664377583223,-0.028320312,0.20898438,0.93847656,-0.09375,-0.21875,0.09375,0.0,0.0,0.0
1664377583263,-0.0234375,0.20605469,0.9345703,0.15625,0.5,-0.15625,0.0,0.0,0.0
1664377583262,-0.0234375,0.20605469,0.9345703,0.15625,0.5,-0.15625,0.0,0.0,0.0
1664377583303,-0.030273438,0.21875,0.91503906,-0.09375,-0.15625,0.09375,0.0,0.0,0.0
1664377583303,-0.030273438,0.21875,0.91503906,-0.09375,-0.15625,0.09375,0.0,0.0,0.0
1664377583342,-0.03515625,0.21582031,0.9316406,-0.03125,0.1875,-0.15625,0.0,0.0,0.0
1664377583345,-0.03515625,0.21582031,0.9316406,-0.03125,0.1875,-0.15625,0.0,0.0,0.0
1664377583382,-0.025390625,0.2109375,0.9326172,-0.09375,0.0,0.09375,0.0,0.0,0.0
1664377583382,-0.025390625,0.2109375,0.9326172,-0.09375,0.0,0.09375,0.0,0.0,0.0
1664377583422,-0.03125,0.2109375,0.9404297,-0.5,-0.15625,0.5625,0.0,0.0,0.0
1664377583423,-0.03125,0.2109375,0.9404297,-0.5,-0.15625,0.5625,0.0,0.0,0.0
1664377583462,-0.0390625,0.20507812,0.9296875,-0.03125,0.25,0.21875,0.0,0.0,0.0
1664377583463,-0.0390625,0.20507812,0.9296875,-0.03125,0.25,0.21875,0.0,0.0,0.0
1664377583502,-0.033203125,0.20898438,0.9394531,-0.15625,0.5625,-0.03125,0.0,0.0,0.0
1664377583502,-0.033203125,0.20898438,0.9394531,-0.15625,0.5625,-0.03125,0.0,0.0,0.0
1664377583543,-0.02734375,0.21484375,0.9277344,-0.09375,0.0625,0.09375,0.0,0.0,0.0
1664377583543,-0.02734375,0.21484375,0.9277344,-0.09375,0.0625,0.09375,0.0,0.0,0.0
1664377583582,-0.026367188,0.20996094,0.93359375,-0.09375,-0.28125,0.3125,0.0,0.0,0.0
1664377583582,-0.026367188,0.20996094,0.93359375,-0.09375,-0.28125,0.3125,0.0,0.0,0.0
1664377583623,-0.032226562,0.20800781,0.93066406,-0.03125,0.0,-0.03125,0.0,0.0,0.0
1664377583623,-0.032226562,0.20800781,0.93066406,-0.03125,0.0,-0.03125,0.0,0.0,0.0
1664377583663,-0.02734375,0.20898438,0.9238281,-0.09375,0.1875,0.15625,-24.4375,12.0625,-93.0625
1664377583664,-0.02734375,0.20898438,0.9238281,-0.09375,0.1875,0.15625,-24.4375,12.0625,-93.0625
1664377583702,-0.02734375,0.21777344,0.9248047,-0.09375,-0.28125,0.4375,0.0,0.0,0.0
1664377583703,-0.02734375,0.21777344,0.9248047,-0.09375,-0.28125,0.4375,0.0,0.0,0.0
1664377583742,-0.03125,0.21289062,0.93066406,-0.03125,0.4375,0.09375,0.0,0.0,0.0
1664377583743,-0.03125,0.21289062,0.93066406,-0.03125,0.4375,0.09375,0.0,0.0,0.0
1664377583784,-0.041015625,0.21484375,0.9189453,-0.09375,-0.09375,0.15625,0.0,0.0,0.0
1664377583784,-0.041015625,0.21484375,0.9189453,-0.09375,-0.09375,0.15625,0.0,0.0,0.0
1664377583822,-0.037109375,0.2109375,0.93066406,-0.25,-0.21875,0.25,0.0,0.0,0.0
1664377583822,-0.037109375,0.2109375,0.93066406,-0.25,-0.21875,0.25,0.0,0.0,0.0
1664377583864,-0.02734375,0.20800781,0.9375,-0.03125,0.25,0.03125,0.0,0.0,0.0
1664377583864,-0.02734375,0.20800781,0.9375,-0.03125,0.25,0.03125,0.0,0.0,0.0
1664377583903,-0.029296875,0.20703125,0.93652344,0.15625,0.0,0.03125,0.0,0.0,0.0
1664377583903,-0.029296875,0.20703125,0.93652344,0.15625,0.0,0.03125,0.0,0.0,0.0
1664377583942,-0.034179688,0.21679688,0.93652344,-0.09375,-0.15625,0.15625,0.0,0.0,0.0
1664377583942,-0.034179688,0.21679688,0.93652344,-0.09375,-0.15625,0.15625,0.0,0.0,0.0
1664377583983,-0.036132812,0.20800781,0.9355469,0.03125,0.0625,0.15625,0.0,0.0,0.0
1664377583983,-0.036132812,0.20800781,0.9355469,0.03125,0.0625,0.15625,0.0,0.0,0.0
1664377584023,-0.026367188,0.20507812,0.93066406,0.03125,-0.15625,-0.09375,0.0,0.0,0.0
1664377584023,-0.026367188,0.20507812,0.93066406,0.03125,-0.15625,-0.09375,0.0,0.0,0.0
1664377584062,-0.029296875,0.20703125,0.9326172,0.03125,-0.15625,0.09375,0.0,0.0,0.0
1664377584062,-0.029296875,0.20703125,0.9326172,0.03125,-0.15625,0.09375,0.0,0.0,0.0
1664377584104,-0.026367188,0.21582031,0.9296875,-0.09375,-0.15625,0.09375,0.0,0.0,0.0
1664377584105,-0.026367188,0.21582031,0.9296875,-0.09375,-0.15625,0.09375,0.0,0.0,0.0
1664377584143,-0.028320312,0.20703125,0.93066406,0.03125,0.34375,0.15625,-23.875,12.625,-95.0
1664377584143,-0.028320312,0.20703125,0.93066406,0.03125,0.34375,0.15625,-23.875,12.625,-95.0
1664377584182,-0.026367188,0.21386719,0.9277344,0.09375,0.15625,0.21875,0.0,0.0,0.0
1664377584182,-0.026367188,0.21386719,0.9277344,0.09375,0.15625,0.21875,0.0,0.0,0.0
1664377584223,-0.033203125,0.20996094,0.9248047,0.03125,0.8125,0.09375,0.0,0.0,0.0
1664377584223,-0.033203125,0.20996094,0.9248047,0.03125,0.8125,0.09375,0.0,0.0,0.0
1664377584263,-0.030273438,0.20800781,0.92089844,0.15625,0.21875,0.15625,0.0,0.0,0.0
1664377584264,-0.030273438,0.20800781,0.92089844,0.15625,0.21875,0.15625,0.0,0.0,0.0
1664377584303,-0.03515625,0.21777344,0.94433594,0.21875,-0.03125,0.09375,0.0,0.0,0.0
1664377584303,-0.03515625,0.21777344,0.94433594,0.21875,-0.03125,0.09375,0.0,0.0,0.0
1664377584343,-0.038085938,0.2109375,0.9267578,-0.09375,-0.03125,0.15625,0.0,0.0,0.0
1664377584343,-0.038085938,0.2109375,0.9267578,-0.09375,-0.03125,0.15625,0.0,0.0,0.0
1664377584386,-0.036132812,0.21582031,0.9296875,0.09375,0.09375,0.28125,0.0,0.0,0.0
1664377584386,-0.036132812,0.21582031,0.9296875,0.09375,0.09375,0.28125,0.0,0.0,0.0
1664377584423,-0.028320312,0.20800781,0.92871094,0.09375,0.03125,0.40625,0.0,0.0,0.0
1664377584423,-0.028320312,0.20800781,0.92871094,0.09375,0.03125,0.40625,0.0,0.0,0.0
1664377584463,-0.028320312,0.20996094,0.9394531,0.28125,0.34375,0.21875,0.0,0.0,0.0
1664377584463,-0.028320312,0.20996094,0.9394531,0.28125,0.34375,0.21875,0.0,0.0,0.0
1664377584503,-0.036132812,0.22070312,0.9296875,0.03125,0.28125,0.09375,0.0,0.0,0.0
1664377584503,-0.036132812,0.22070312,0.9296875,0.03125,0.28125,0.09375,0.0,0.0,0.0
1664377584543,-0.020507812,0.20898438,0.9238281,-0.03125,-0.34375,0.46875,0.0,0.0,0.0
1664377584543,-0.020507812,0.20898438,0.9238281,-0.03125,-0.34375,0.46875,0.0,0.0,0.0
1664377584583,-0.0390625,0.21484375,0.9199219,0.03125,0.40625,0.15625,0.0,0.0,0.0
1664377584583,-0.0390625,0.21484375,0.9199219,0.03125,0.40625,0.15625,0.0,0.0,0.0
1664377584623,-0.032226562,0.20898438,0.94628906,0.21875,0.15625,0.03125,0.0,0.0,0.0
1664377584623,-0.032226562,0.20898438,0.94628906,0.21875,0.15625,0.03125,0.0,0.0,0.0
1664377584665,-0.03125,0.20605469,0.93066406,-0.03125,-0.09375,0.09375,-25.0625,11.4375,-93.625
1664377584665,-0.03125,0.20605469,0.93066406,-0.03125,-0.09375,0.09375,-25.0625,11.4375,-93.625
1664377584703,-0.028320312,0.20507812,0.9326172,0.03125,-0.34375,0.21875,0.0,0.0,0.0
1664377584703,-0.028320312,0.20507812,0.9326172,0.03125,-0.34375,0.21875,0.0,0.0,0.0
1664377584744,-0.036132812,0.21484375,0.92578125,0.28125,0.34375,0.03125,0.0,0.0,0.0
1664377584744,-0.036132812,0.21484375,0.92578125,0.28125,0.34375,0.03125,0.0,0.0,0.0
1664377584783,-0.02734375,0.20898438,0.9326172,-0.03125,-0.21875,0.21875,0.0,0.0,0.0
1664377584783,-0.02734375,0.20898438,0.9326172,-0.03125,-0.21875,0.21875,0.0,0.0,0.0
1664377584823,-0.03125,0.21582031,0.9375,0.03125,0.15625,0.21875,0.0,0.0,0.0
1664377584823,-0.03125,0.21582031,0.9375,0.03125,0.15625,0.21875,0.0,0.0,0.0
1664377584863,-0.024414062,0.21289062,0.9326172,-0.03125,-0.21875,0.34375,0.0,0.0,0.0
1664377584863,-0.024414062,0.21289062,0.9326172,-0.03125,-0.21875,0.34375,0.0,0.0,0.0
1664377584901,-0.03125,0.20800781,0.93359375,0.03125,0.5,0.40625,0.0,0.0,0.0
1664377584902,-0.03125,0.20800781,0.93359375,0.03125,0.5,0.40625,0.0,0.0,0.0
1664377584945,-0.03125,0.20507812,0.92578125,0.03125,0.4375,0.15625,0.0,0.0,0.0
1664377584944,-0.03125,0.20507812,0.92578125,0.03125,0.4375,0.15625,0.0,0.0,0.0
1664377584986,-0.037109375,0.22070312,0.9316406,0.15625,0.5,0.03125,0.0,0.0,0.0
1664377584986,-0.037109375,0.22070312,0.9316406,0.15625,0.5,0.03125,0.0,0.0,0.0
1664377585022,-0.032226562,0.20605469,0.9277344,-0.03125,-0.21875,0.15625,0.0,0.0,0.0
1664377585022,-0.032226562,0.20605469,0.9277344,-0.03125,-0.21875,0.15625,0.0,0.0,0.0
1664377585064,-0.036132812,0.21191406,0.93066406,0.28125,0.15625,0.15625,0.0,0.0,0.0
1664377585064,-0.036132812,0.21191406,0.93066406,0.28125,0.15625,0.15625,0.0,0.0,0.0
1664377585102,-0.02734375,0.203125,0.93847656,-0.15625,-0.46875,0.34375,0.0,0.0,0.0
1664377585102,-0.02734375,0.203125,0.93847656,-0.15625,-0.46875,0.34375,0.0,0.0,0.0
1664377585142,-0.026367188,0.21582031,0.94140625,0.03125,0.03125,0.46875,-25.375,10.8125,-91.875
1664377585141,-0.026367188,0.21582031,0.94140625,0.03125,0.03125,0.46875,-25.375,10.8125,-91.875
1664377585183,-0.037109375,0.2109375,0.9267578,0.09375,-0.21875,0.46875,0.0,0.0,0.0
1664377585183,-0.037109375,0.2109375,0.9267578,0.09375,-0.21875,0.46875,0.0,0.0,0.0
1664377585223,-0.038085938,0.20996094,0.921875,0.03125,0.15625,0.21875,0.0,0.0,0.0
1664377585223,-0.038085938,0.20996094,0.921875,0.03125,0.15625,0.21875,0.0,0.0,0.0
1664377585263,-0.022460938,0.21484375,0.9345703,0.03125,-0.15625,0.21875,0.0,0.0,0.0
1664377585263,-0.022460938,0.21484375,0.9345703,0.03125,-0.15625,0.21875,0.0,0.0,0.0
1664377585306,-0.038085938,0.21289062,0.921875,0.03125,0.34375,0.09375,0.0,0.0,0.0
1664377585306,-0.038085938,0.21289062,0.921875,0.03125,0.34375,0.09375,0.0,0.0,0.0
1664377585342,-0.037109375,0.21679688,0.9326172,0.09375,-0.34375,0.09375,0.0,0.0,0.0
1664377585342,-0.037109375,0.21679688,0.9326172,0.09375,-0.34375,0.09375,0.0,0.0,0.0
1664377585383,-0.018554688,0.21972656,0.9296875,-0.03125,0.09375,0.03125,0.0,0.0,0.0
1664377585382,-0.018554688,0.21972656,0.9296875,-0.03125,0.09375,0.03125,0.0,0.0,0.0
1664377585423,-0.03125,0.21191406,0.93066406,0.09375,-0.15625,0.15625,0.0,0.0,0.0
1664377585423,-0.03125,0.21191406,0.93066406,0.09375,-0.15625,0.15625,0.0,0.0,0.0
1664377585463,-0.02734375,0.21582031,0.9267578,0.28125,0.5,-0.03125,0.0,0.0,0.0
1664377585463,-0.02734375,0.21582031,0.9267578,0.28125,0.5,-0.03125,0.0,0.0,0.0
1664377585503,-0.024414062,0.21777344,0.9345703,0.21875,-0.15625,-0.15625,0.0,0.0,0.0
1664377585503,-0.024414062,0.21777344,0.9345703,0.21875,-0.15625,-0.15625,0.0,0.0,0.0
1664377585545,-0.025390625,0.22070312,0.92871094,-0.03125,0.03125,-0.09375,0.0,0.0,0.0
1664377585545,-0.025390625,0.22070312,0.92871094,-0.03125,0.03125,-0.09375,0.0,0.0,0.0
1664377585583,-0.029296875,0.20507812,0.92871094,-0.09375,-0.03125,0.15625,0.0,0.0,0.0
1664377585583,-0.029296875,0.20507812,0.92871094,-0.09375,-0.03125,0.15625,0.0,0.0,0.0
1664377585623,-0.036132812,0.2109375,0.9404297,0.15625,-0.15625,0.40625,0.0,0.0,0.0
1664377585624,-0.036132812,0.2109375,0.9404297,0.15625,-0.15625,0.40625,0.0,0.0,0.0
1664377585662,-0.02734375,0.20996094,0.92871094,-0.21875,0.75,0.03125,-24.625,11.5625,-93.1875
1664377585662,-0.02734375,0.20996094,0.92871094,-0.21875,0.75,0.03125,-24.625,11.5625,-93.1875
1664377585702,-0.028320312,0.21484375,0.9355469,0.03125,-0.09375,0.28125,0.0,0.0,0.0
1664377585702,-0.028320312,0.21484375,0.9355469,0.03125,-0.09375,0.28125,0.0,0.0,0.0
1664377585742,-0.0390625,0.21191406,0.9296875,0.15625,0.03125,-0.09375,0.0,0.0,0.0
1664377585742,-0.0390625,0.21191406,0.9296875,0.15625,0.03125,-0.09375,0.0,0.0,0.0
1664377585783,-0.034179688,0.21679688,0.94433594,0.03125,-0.28125,0.09375,0.0,0.0,0.0
1664377585783,-0.034179688,0.21679688,0.94433594,0.03125,-0.28125,0.09375,0.0,0.0,0.0
1664377585823,-0.026367188,0.21386719,0.9423828,-0.03125,-0.09375,-0.09375,0.0,0.0,0.0
1664377585823,-0.026367188,0.21386719,0.9423828,-0.03125,-0.09375,-0.09375,0.0,0.0,0.0
1664377585862,-0.036132812,0.2109375,0.9433594,-0.03125,-0.28125,0.5625,0.0,0.0,0.0
1664377585863,-0.036132812,0.2109375,0.9433594,-0.03125,-0.28125,0.5625,0.0,0.0,0.0
1664377585903,-0.03125,0.21777344,0.93066406,0.03125,0.09375,0.09375,0.0,0.0,0.0
1664377585903,-0.03125,0.21777344,0.93066406,0.03125,0.09375,0.09375,0.0,0.0,0.0
1664377585943,-0.03125,0.21972656,0.9375,0.21875,0.15625,0.09375,0.0,0.0,0.0
1664377585943,-0.03125,0.21972656,0.9375,0.21875,0.15625,0.09375,0.0,0.0,0.0
1664377585983,-0.0390625,0.2109375,0.92871094,0.03125,-0.15625,0.15625,0.0,0.0,0.0
1664377585984,-0.0390625,0.2109375,0.92871094,0.03125,-0.15625,0.15625,0.0,0.0,0.0
1664377586022,-0.028320312,0.21191406,0.9326172,-0.21875,-0.34375,0.09375,0.0,0.0,0.0
1664377586023,-0.028320312,0.21191406,0.9326172,-0.21875,-0.34375,0.09375,0.0,0.0,0.0
1664377586063,-0.032226562,0.21191406,0.9375,0.09375,-0.03125,-0.21875,0.0,0.0,0.0
1664377586063,-0.032226562,0.21191406,0.9375,0.09375,-0.03125,-0.21875,0.0,0.0,0.0
1664377586102,-0.028320312,0.21191406,0.92871094,0.09375,-0.21875,0.28125,0.0,0.0,0.0
1664377586101,-0.028320312,0.21191406,0.92871094,0.09375,-0.21875,0.28125,0.0,0.0,0.0
1664377586142,-0.030273438,0.22265625,0.92871094,0.21875,0.21875,-0.09375,-25.8125,9.1875,-93.0625
1664377586142,-0.030273438,0.22265625,0.92871094,0.21875,0.21875,-0.09375,-25.8125,9.1875,-93.0625
1664377586182,-0.02734375,0.20898438,0.9394531,-0.03125,-0.21875,0.15625,0.0,0.0,0.0
1664377586182,-0.02734375,0.20898438,0.9394531,-0.03125,-0.21875,0.15625,0.0,0.0,0.0
1664377586222,-0.030273438,0.21191406,0.9394531,-0.09375,0.03125,0.03125,0.0,0.0,0.0
1664377586223,-0.030273438,0.21191406,0.9394531,-0.09375,0.03125,0.03125,0.0,0.0,0.0
1664377586262,-0.030273438,0.20898438,0.921875,0.03125,-0.28125,-0.09375,0.0,0.0,0.0
1664377586262,-0.030273438,0.20898438,0.921875,0.03125,-0.28125,-0.09375,0.0,0.0,0.0
1664377586302,-0.037109375,0.20996094,0.94140625,-0.03125,0.03125,0.15625,0.0,0.0,0.0
1664377586302,-0.037109375,0.20996094,0.94140625,-0.03125,0.03125,0.15625,0.0,0.0,0.0
1664377586342,-0.033203125,0.21582031,0.94140625,0.03125,0.09375,-0.03125,0.0,0.0,0.0
1664377586342,-0.033203125,0.21582031,0.94140625,0.03125,0.09375,-0.03125,0.0,0.0,0.0
1664377586382,-0.036132812,0.20410156,0.9238281,-0.21875,0.5,-0.28125,0.0,0.0,0.0
1664377586382,-0.036132812,0.20410156,0.9238281,-0.21875,0.5,-0.28125,0.0,0.0,0.0
1664377586423,-0.033203125,0.21191406,0.9326172,-0.03125,-0.09375,0.03125,0.0,0.0,0.0
1664377586423,-0.033203125,0.21191406,0.9326172,-0.03125,-0.09375,0.03125,0.0,0.0,0.0
1664377586462,-0.033203125,0.21679688,0.9189453,-0.4375,-0.65625,0.15625,0.0,0.0,0.0
1664377586462,-0.033203125,0.21679688,0.9189453,-0.4375,-0.65625,0.15625,0.0,0.0,0.0
1664377586503,-0.038085938,0.21484375,0.92285156,-0.09375,-0.15625,-0.40625,0.0,0.0,0.0
1664377586503,-0.038085938,0.21484375,0.92285156,-0.09375,-0.15625,-0.40625,0.0,0.0,0.0
1664377586542,-0.028320312,0.21582031,0.93066406,0.03125,0.28125,-0.28125,0.0,0.0,0.0
1664377586542,-0.028320312,0.21582031,0.93066406,0.03125,0.28125,-0.28125,0.0,0.0,0.0
1664377586582,-0.028320312,0.21386719,0.92285156,0.03125,-0.34375,0.21875,0.0,0.0,0.0
1664377586582,-0.028320312,0.21386719,0.92285156,0.03125,-0.34375,0.21875,0.0,0.0,0.0
1664377586622,-0.034179688,0.21679688,0.92089844,0.09375,0.09375,-0.03125,0.0,0.0,0.0
1664377586622,-0.034179688,0.21679688,0.92089844,0.09375,0.09375,-0.03125,0.0,0.0,0.0
1664377586663,-0.037109375,0.20800781,0.9199219,-0.15625,-0.15625,-0.09375,-25.8125,9.625,-92.75
1664377586663,-0.037109375,0.20800781,0.9199219,-0.15625,-0.15625,-0.09375,-25.8125,9.625,-92.75
1664377586702,-0.032226562,0.20507812,0.9326172,-0.03125,0.03125,-0.34375,0.0,0.0,0.0
1664377586702,-0.032226562,0.20507812,0.9326172,-0.03125,0.03125,-0.34375,0.0,0.0,0.0
1664377586742,-0.0390625,0.21289062,0.9169922,-0.21875,-0.53125,0.21875,0.0,0.0,0.0
1664377586742,-0.0390625,0.21289062,0.9169922,-0.21875,-0.53125,0.21875,0.0,0.0,0.0
1664377586783,-0.0390625,0.21484375,0.92578125,-0.34375,-0.09375,-0.34375,0.0,0.0,0.0
1664377586783,-0.0390625,0.21484375,0.92578125,-0.34375,-0.09375,-0.34375,0.0,0.0,0.0
1664377586822,-0.028320312,0.20996094,0.95214844,-0.09375,-0.21875,-0.09375,0.0,0.0,0.0
1664377586822,-0.028320312,0.20996094,0.95214844,-0.09375,-0.21875,-0.09375,0.0,0.0,0.0
1664377586866,-0.028320312,0.21484375,0.9326172,0.15625,0.09375,-0.21875,0.0,0.0,0.0
1664377586866,-0.028320312,0.21484375,0.9326172,0.15625,0.09375,-0.21875,0.0,0.0,0.0
1664377586903,-0.034179688,0.21289062,0.9199219,-0.40625,-0.40625,0.03125,0.0,0.0,0.0
1664377586906,-0.034179688,0.21289062,0.9199219,-0.40625,-0.40625,0.03125,0.0,0.0,0.0
1664377586942,-0.032226562,0.21289062,0.92871094,0.09375,0.03125,-0.15625,0.0,0.0,0.0
1664377586943,-0.032226562,0.21289062,0.92871094,0.09375,0.03125,-0.15625,0.0,0.0,0.0
1664377586983,-0.030273438,0.21679688,0.93359375,-0.03125,-0.03125,-0.03125,0.0,0.0,0.0
1664377586983,-0.030273438,0.21679688,0.93359375,-0.03125,-0.03125,-0.03125,0.0,0.0,0.0
1664377587022,-0.026367188,0.21679688,0.9277344,-0.15625,0.03125,0.34375,0.0,0.0,0.0
1664377587022,-0.026367188,0.21679688,0.9277344,-0.15625,0.03125,0.34375,0.0,0.0,0.0
1664377587062,-0.02734375,0.22460938,0.9238281,-0.09375,0.75,-0.34375,0.0,0.0,0.0
1664377587062,-0.02734375,0.22460938,0.9238281,-0.09375,0.75,-0.34375,0.0,0.0,0.0
1664377587103,-0.040039062,0.21191406,0.93847656,0.09375,0.4375,0.03125,0.0,0.0,0.0
1664377587104,-0.040039062,0.21191406,0.93847656,0.09375,0.4375,0.03125,0.0,0.0,0.0
1664377587143,-0.03515625,0.21484375,0.93847656,-0.09375,-0.15625,0.03125,-25.5,10.6875,-93.375
1664377587143,-0.03515625,0.21484375,0.93847656,-0.09375,-0.15625,0.03125,-25.5,10.6875,-93.375
1664377587184,-0.02734375,0.21191406,0.9238281,-0.15625,-0.03125,-0.09375,0.0,0.0,0.0
1664377587185,-0.02734375,0.21191406,0.9238281,-0.15625,-0.03125,-0.09375,0.0,0.0,0.0
1664377587222,-0.0390625,0.2109375,0.9326172,-0.09375,-0.15625,-0.28125,0.0,0.0,0.0
1664377587223,-0.0390625,0.2109375,0.9326172,-0.09375,-0.15625,-0.28125,0.0,0.0,0.0
1664377587263,-0.025390625,0.21191406,0.93359375,-0.09375,-0.03125,-0.03125,0.0,0.0,0.0
1664377587263,-0.025390625,0.21191406,0.93359375,-0.09375,-0.03125,-0.03125,0.0,0.0,0.0
1664377587303,-0.036132812,0.20800781,0.92285156,-0.15625,-0.21875,0.15625,0.0,0.0,0.0
1664377587303,-0.036132812,0.20800781,0.92285156,-0.15625,-0.21875,0.15625,0.0,0.0,0.0
1664377587343,-0.028320312,0.21777344,0.93847656,0.03125,0.34375,-0.28125,0.0,0.0,0.0
1664377587343,-0.028320312,0.21777344,0.93847656,0.03125,0.34375,-0.28125,0.0,0.0,0.0
1664377587382,-0.0390625,0.2109375,0.95703125,-0.09375,-0.21875,0.03125,0.0,0.0,0.0
1664377587382,-0.0390625,0.2109375,0.95703125,-0.09375,-0.21875,0.03125,0.0,0.0,0.0
1664377587423,-0.028320312,0.21484375,0.92285156,0.03125,0.09375,-0.28125,0.0,0.0,0.0
1664377587423,-0.028320312,0.21484375,0.92285156,0.03125,0.09375,-0.28125,0.0,0.0,0.0
1664377587463,-0.033203125,0.20996094,0.9238281,-0.03125,-0.15625,-0.03125,0.0,0.0,0.0
1664377587463,-0.033203125,0.20996094,0.9238281,-0.03125,-0.15625,-0.03125,0.0,0.0,0.0
1664377587504,-0.033203125,0.21289062,0.9189453,-0.09375,-0.21875,0.03125,0.0,0.0,0.0
1664377587505,-0.033203125,0.21289062,0.9189453,-0.09375,-0.21875,0.03125,0.0,0.0,0.0
1664377587543,-0.033203125,0.20605469,0.9316406,0.09375,0.625,-0.15625,0.0,0.0,0.0
1664377587543,-0.033203125,0.20605469,0.9316406,0.09375,0.625,-0.15625,0.0,0.0,0.0
1664377587583,-0.030273438,0.2109375,0.9248047,0.03125,-0.21875,0.03125,0.0,0.0,0.0
1664377587583,-0.030273438,0.2109375,0.9248047,0.03125,-0.21875,0.03125,0.0,0.0,0.0
1664377587624,-0.036132812,0.19921875,0.92871094,-0.09375,-0.15625,0.03125,0.0,0.0,0.0
1664377587624,-0.036132812,0.19921875,0.92871094,-0.09375,-0.15625,0.03125,0.0,0.0,0.0
1664377587663,-0.041992188,0.21191406,0.93066406,0.03125,0.09375,-0.28125,-24.625,10.0625,-92.875
1664377587662,-0.041992188,0.21191406,0.93066406,0.03125,0.09375,-0.28125,-24.625,10.0625,-92.875
1664377587703,-0.0234375,0.21386719,0.9296875,0.03125,-0.09375,0.03125,0.0,0.0,0.0
1664377587703,-0.0234375,0.21386719,0.9296875,0.03125,-0.09375,0.03125,0.0,0.0,0.0
1664377587745,-0.029296875,0.21289062,0.94140625,0.09375,0.09375,0.21875,0.0,0.0,0.0
1664377587745,-0.029296875,0.21289062,0.94140625,0.09375,0.09375,0.21875,0.0,0.0,0.0
1664377587783,-0.03125,0.20800781,0.92871094,-0.15625,-0.03125,0.15625,0.0,0.0,0.0
1664377587783,-0.03125,0.20800781,0.92871094,-0.15625,-0.03125,0.15625,0.0,0.0,0.0
1664377587823,-0.028320312,0.21582031,0.9160156,0.21875,0.4375,-0.21875,0.0,0.0,0.0
1664377587823,-0.028320312,0.21582031,0.9160156,0.21875,0.4375,-0.21875,0.0,0.0,0.0
1664377587863,-0.021484375,0.20996094,0.9267578,-0.03125,0.21875,0.03125,0.0,0.0,0.0
1664377587863,-0.021484375,0.20996094,0.9267578,-0.03125,0.21875,0.03125,0.0,0.0,0.0
1664377587902,-0.034179688,0.21191406,0.93652344,-0.03125,-0.03125,0.03125,0.0,0.0,0.0
1664377587902,-0.034179688,0.21191406,0.93652344,-0.03125,-0.03125,0.03125,0.0,0.0,0.0
1664377587943,-0.032226562,0.21484375,0.9394531,-0.03125,-0.34375,0.09375,0.0,0.0,0.0
1664377587943,-0.032226562,0.21484375,0.9394531,-0.03125,-0.34375,0.09375,0.0,0.0,0.0
1664377587982,-0.03515625,0.2109375,0.93066406,-0.15625,0.03125,0.03125,0.0,0.0,0.0
1664377587983,-0.03515625,0.2109375,0.93066406,-0.15625,0.03125,0.03125,0.0,0.0,0.0
1664377588022,-0.028320312,0.21289062,0.92285156,0.28125,-0.15625,0.34375,0.0,0.0,0.0
1664377588023,-0.028320312,0.21289062,0.92285156,0.28125,-0.15625,0.34375,0.0,0.0,0.0
1664377588063,-0.030273438,0.20507812,0.9296875,0.03125,0.28125,-0.09375,0.0,0.0,0.0
1664377588063,-0.030273438,0.20507812,0.9296875,0.03125,0.28125,-0.09375,0.0,0.0,0.0
1664377588104,-0.032226562,0.21386719,0.9355469,0.03125,0.15625,0.03125,0.0,0.0,0.0
1664377588104,-0.032226562,0.21386719,0.9355469,0.03125,0.15625,0.03125,0.0,0.0,0.0
1664377588142,-0.03515625,0.20410156,0.9394531,-0.15625,-0.09375,0.21875,-26.375,11.125,-92.875
1664377588143,-0.03515625,0.20410156,0.9394531,-0.15625,-0.09375,0.21875,-26.375,11.125,-92.875
1664377588183,-0.029296875,0.21386719,0.93066406,0.15625,0.15625,0.03125,0.0,0.0,0.0
1664377588183,-0.029296875,0.21386719,0.93066406,0.15625,0.15625,0.03125,0.0,0.0,0.0
1664377588223,-0.02734375,0.20996094,0.93652344,0.03125,-0.03125,0.03125,0.0,0.0,0.0
1664377588224,-0.02734375,0.20996094,0.93652344,0.03125,-0.03125,0.03125,0.0,0.0,0.0
1664377588263,-0.0234375,0.20996094,0.9277344,0.03125,-0.03125,0.09375,0.0,0.0,0.0
1664377588263,-0.0234375,0.20996094,0.9277344,0.03125,-0.03125,0.09375,0.0,0.0,0.0
1664377588304,-0.03125,0.21484375,0.9472656,-0.03125,-0.03125,0.09375,0.0,0.0,0.0
1664377588304,-0.03125,0.21484375,0.9472656,-0.03125,-0.03125,0.09375,0.0,0.0,0.0
1664377588342,-0.024414062,0.20703125,0.9423828,-0.03125,0.03125,0.09375,0.0,0.0,0.0
1664377588342,-0.024414062,0.20703125,0.9423828,-0.03125,0.03125,0.09375,0.0,0.0,0.0
1664377588382,-0.030273438,0.21875,0.9267578,0.03125,0.21875,0.34375,0.0,0.0,0.0
1664377588387,-0.030273438,0.21875,0.9267578,0.03125,0.21875,0.34375,0.0,0.0,0.0
1664377588423,-0.03125,0.20605469,0.9375,0.03125,0.03125,0.34375,0.0,0.0,0.0
1664377588423,-0.03125,0.20605469,0.9375,0.03125,0.03125,0.34375,0.0,0.0,0.0
1664377588462,-0.03515625,0.20507812,0.9326172,-0.09375,-0.21875,0.21875,0.0,0.0,0.0
1664377588462,-0.03515625,0.20507812,0.9326172,-0.09375,-0.21875,0.21875,0.0,0.0,0.0
1664377588502,-0.026367188,0.20996094,0.9326172,0.03125,0.09375,0.28125,0.0,0.0,0.0
1664377588504,-0.026367188,0.20996094,0.9326172,0.03125,0.09375,0.28125,0.0,0.0,0.0
1664377588563,-0.030273438,0.20703125,0.9423828,0.03125,0.09375,0.28125,0.0,0.0,0.0
1664377588563,-0.030273438,0.20703125,0.9423828,0.03125,0.09375,0.28125,0.0,0.0,0.0
1664377588582,-0.02734375,0.20605469,0.9423828,0.03125,0.6875,-0.09375,0.0,0.0,0.0
1664377588582,-0.02734375,0.20605469,0.9423828,0.03125,0.6875,-0.09375,0.0,0.0,0.0
1664377588623,-0.0390625,0.21191406,0.94140625,-0.03125,0.03125,0.46875,0.0,0.0,0.0
1664377588625,-0.0390625,0.21191406,0.94140625,-0.03125,0.03125,0.46875,0.0,0.0,0.0
1664377588663,-0.037109375,0.21582031,0.94140625,-0.09375,-0.15625,0.34375,-24.625,11.5625,-93.1875
1664377588663,-0.037109375,0.21582031,0.94140625,-0.09375,-0.15625,0.34375,-24.625,11.5625,-93.1875
1664377588703,-0.028320312,0.21191406,0.93359375,-0.21875,-0.09375,0.15625,0.0,0.0,0.0
1664377588702,-0.028320312,0.21191406,0.93359375,-0.21875,-0.09375,0.15625,0.0,0.0,0.0
1664377588742,-0.032226562,0.20703125,0.92578125,0.09375,0.21875,0.28125,0.0,0.0,0.0
1664377588743,-0.032226562,0.20703125,0.92578125,0.09375,0.21875,0.28125,0.0,0.0,0.0
1664377588782,-0.029296875,0.20605469,0.93066406,-0.03125,-0.28125,0.34375,0.0,0.0,0.0
1664377588783,-0.029296875,0.20605469,0.93066406,-0.03125,-0.28125,0.34375,0.0,0.0,0.0
1664377588822,-0.04296875,0.21191406,0.9375,0.03125,0.4375,0.09375,0.0,0.0,0.0
1664377588823,-0.04296875,0.21191406,0.9375,0.03125,0.4375,0.09375,0.0,0.0,0.0
1664377588862,-0.029296875,0.21191406,0.94433594,0.03125,-0.15625,0.40625,0.0,0.0,0.0
1664377588864,-0.029296875,0.21191406,0.94433594,0.03125,-0.15625,0.40625,0.0,0.0,0.0
1664377588903,-0.029296875,0.21679688,0.93066406,0.03125,0.28125,0.21875,0.0,0.0,0.0
1664377588903,-0.029296875,0.21679688,0.93066406,0.03125,0.28125,0.21875,0.0,0.0,0.0
1664377588943,-0.028320312,0.21289062,0.9316406,0.15625,-0.03125,0.21875,0.0,0.0,0.0
1664377588943,-0.028320312,0.21289062,0.9316406,0.15625,-0.03125,0.21875,0.0,0.0,0.0
1664377588982,-0.02734375,0.20507812,0.92578125,0.03125,-0.03125,0.34375,0.0,0.0,0.0
1664377588982,-0.02734375,0.20507812,0.92578125,0.03125,-0.03125,0.34375,0.0,0.0,0.0
1664377589023,-0.033203125,0.20898438,0.92578125,0.03125,0.09375,0.03125,0.0,0.0,0.0
1664377589023,-0.033203125,0.20898438,0.92578125,0.03125,0.09375,0.03125,0.0,0.0,0.0
1664377589062,-0.04296875,0.2109375,0.92089844,0.03125,0.34375,0.09375,0.0,0.0,0.0
1664377589062,-0.04296875,0.2109375,0.92089844,0.03125,0.34375,0.09375,0.0,0.0,0.0
1664377589102,-0.0390625,0.20410156,0.92871094,-0.15625,-0.03125,-0.28125,0.0,0.0,0.0
1664377589102,-0.0390625,0.20410156,0.92871094,-0.15625,-0.03125,-0.28125,0.0,0.0,0.0
1664377589142,-0.02734375,0.21191406,0.9394531,0.21875,-0.03125,0.03125,-25.5,11.75,-93.375
1664377589142,-0.02734375,0.21191406,0.9394531,0.21875,-0.03125,0.03125,-25.5,11.75,-93.375
1664377589184,-0.026367188,0.21289062,0.9140625,0.09375,-0.15625,0.34375,0.0,0.0,0.0
1664377589184,-0.026367188,0.21289062,0.9140625,0.09375,-0.15625,0.34375,0.0,0.0,0.0
1664377589222,-0.033203125,0.2109375,0.94140625,0.03125,0.5,0.28125,0.0,0.0,0.0
1664377589222,-0.033203125,0.2109375,0.94140625,0.03125,0.5,0.28125,0.0,0.0,0.0
1664377589263,-0.043945312,0.21191406,0.9375,0.15625,0.09375,0.5625,0.0,0.0,0.0
1664377589263,-0.043945312,0.21191406,0.9375,0.15625,0.09375,0.5625,0.0,0.0,0.0
1664377589304,-0.038085938,0.21386719,0.93066406,0.21875,0.09375,0.53125,0.0,0.0,0.0
1664377589304,-0.038085938,0.21386719,0.93066406,0.21875,0.09375,0.53125,0.0,0.0,0.0
1664377589343,-0.037109375,0.20507812,0.9267578,0.15625,0.875,0.03125,0.0,0.0,0.0
1664377589346,-0.037109375,0.20507812,0.9267578,0.15625,0.875,0.03125,0.0,0.0,0.0
1664377589382,-0.041992188,0.21289062,0.93652344,0.03125,0.03125,0.28125,0.0,0.0,0.0
1664377589382,-0.041992188,0.21289062,0.93652344,0.03125,0.03125,0.28125,0.0,0.0,0.0
1664377589423,-0.028320312,0.21386719,0.9375,0.53125,-0.28125,0.21875,0.0,0.0,0.0
1664377589423,-0.028320312,0.21386719,0.9375,0.53125,-0.28125,0.21875,0.0,0.0,0.0
1664377589462,-0.038085938,0.21582031,0.92578125,-0.03125,0.21875,-0.15625,0.0,0.0,0.0
1664377589462,-0.038085938,0.21582031,0.92578125,-0.03125,0.21875,-0.15625,0.0,0.0,0.0
1664377589503,-0.028320312,0.21582031,0.92871094,0.03125,-0.34375,0.34375,0.0,0.0,0.0
1664377589503,-0.028320312,0.21582031,0.92871094,0.03125,-0.34375,0.34375,0.0,0.0,0.0
1664377589543,-0.02734375,0.21484375,0.9238281,0.09375,0.15625,0.34375,0.0,0.0,0.0
1664377589543,-0.02734375,0.21484375,0.9238281,0.09375,0.15625,0.34375,0.0,0.0,0.0
1664377589582,-0.032226562,0.20800781,0.9189453,0.03125,0.03125,0.34375,0.0,0.0,0.0
1664377589582,-0.032226562,0.20800781,0.9189453,0.03125,0.03125,0.34375,0.0,0.0,0.0
1664377589623,-0.03515625,0.21191406,0.91796875,-0.03125,-0.03125,0.09375,0.0,0.0,0.0
1664377589623,-0.03515625,0.21191406,0.91796875,-0.03125,-0.03125,0.09375,0.0,0.0,0.0
1664377589664,-0.040039062,0.20800781,0.9277344,0.15625,-0.21875,0.03125,-26.6875,11.125,-92.125
1664377589665,-0.040039062,0.20800781,0.9277344,0.15625,-0.21875,0.03125,-26.6875,11.125,-92.125
1664377589702,-0.038085938,0.2109375,0.94140625,0.09375,-0.15625,-0.03125,0.0,0.0,0.0
1664377589702,-0.038085938,0.2109375,0.94140625,0.09375,-0.15625,-0.03125,0.0,0.0,0.0
1664377589742,-0.026367188,0.20996094,0.9404297,0.09375,0.28125,-0.28125,0.0,0.0,0.0
1664377589742,-0.026367188,0.20996094,0.9404297,0.09375,0.28125,-0.28125,0.0,0.0,0.0
1664377589783,-0.032226562,0.20605469,0.9316406,0.03125,-0.53125,0.28125,0.0,0.0,0.0
1664377589783,-0.032226562,0.20605469,0.9316406,0.03125,-0.53125,0.28125,0.0,0.0,0.0
1664377589823,-0.024414062,0.21484375,0.93066406,0.09375,0.21875,-0.15625,0.0,0.0,0.0
1664377589824,-0.024414062,0.21484375,0.93066406,0.09375,0.21875,-0.15625,0.0,0.0,0.0
1664377589863,-0.028320312,0.21484375,0.9316406,0.34375,-0.03125,-0.21875,0.0,0.0,0.0
1664377589863,-0.028320312,0.21484375,0.9316406,0.34375,-0.03125,-0.21875,0.0,0.0,0.0
1664377589902,-0.033203125,0.20996094,0.9326172,0.15625,0.15625,-0.15625,0.0,0.0,0.0
1664377589902,-0.033203125,0.20996094,0.9326172,0.15625,0.15625,-0.15625,0.0,0.0,0.0
1664377589945,-0.03515625,0.21386719,0.94140625,-0.09375,-0.03125,-0.03125,0.0,0.0,0.0
1664377589945,-0.03515625,0.21386719,0.94140625,-0.09375,-0.03125,-0.03125,0.0,0.0,0.0
1664377589984,-0.03515625,0.21386719,0.9199219,-0.03125,-0.15625,-0.03125,0.0,0.0,0.0
1664377589986,-0.03515625,0.21386719,0.9199219,-0.03125,-0.15625,-0.03125,0.0,0.0,0.0
1664377590024,-0.028320312,0.20703125,0.94140625,0.03125,0.28125,0.21875,0.0,0.0,0.0
1664377590026,-0.028320312,0.20703125,0.94140625,0.03125,0.28125,0.21875,0.0,0.0,0.0
1664377590062,-0.034179688,0.21191406,0.93359375,-0.28125,0.15625,-0.03125,0.0,0.0,0.0
1664377590063,-0.034179688,0.21191406,0.93359375,-0.28125,0.15625,-0.03125,0.0,0.0,0.0
1664377590104,-0.043945312,0.21289062,0.9248047,-0.03125,0.5625,-0.21875,0.0,0.0,0.0
1664377590104,-0.043945312,0.21289062,0.9248047,-0.03125,0.5625,-0.21875,0.0,0.0,0.0
1664377590142,-0.03125,0.21289062,0.93359375,-0.03125,-0.46875,0.09375,-25.625,13.375,-93.5
1664377590142,-0.03125,0.21289062,0.93359375,-0.03125,-0.46875,0.09375,-25.625,13.375,-93.5
1664377590182,-0.03515625,0.2109375,0.9296875,-0.09375,0.40625,-0.40625,0.0,0.0,0.0
1664377590182,-0.03515625,0.2109375,0.9296875,-0.09375,0.40625,-0.40625,0.0,0.0,0.0
1664377590223,-0.041015625,0.20605469,0.93066406,0.03125,-0.78125,0.09375,0.0,0.0,0.0
1664377590223,-0.041015625,0.20605469,0.93066406,0.03125,-0.78125,0.09375,0.0,0.0,0.0
1664377590265,-0.03515625,0.2109375,0.9199219,-0.03125,0.03125,-0.15625,0.0,0.0,0.0
1664377590265,-0.03515625,0.2109375,0.9199219,-0.03125,0.03125,-0.15625,0.0,0.0,0.0
1664377590303,-0.030273438,0.21582031,0.92871094,-0.15625,-0.65625,0.21875,0.0,0.0,0.0
1664377590305,-0.030273438,0.21582031,0.92871094,-0.15625,-0.65625,0.21875,0.0,0.0,0.0
1664377590343,-0.022460938,0.20898438,0.9277344,-0.34375,-0.34375,-0.09375,0.0,0.0,0.0
1664377590343,-0.022460938,0.20898438,0.9277344,-0.34375,-0.34375,-0.09375,0.0,0.0,0.0
1664377590383,-0.02734375,0.21289062,0.94921875,-0.09375,-0.28125,-0.03125,0.0,0.0,0.0
1664377590383,-0.02734375,0.21289062,0.94921875,-0.09375,-0.28125,-0.03125,0.0,0.0,0.0
1664377590423,-0.033203125,0.21386719,0.93847656,0.03125,-0.03125,-0.15625,0.0,0.0,0.0
1664377590423,-0.033203125,0.21386719,0.93847656,0.03125,-0.03125,-0.15625,0.0,0.0,0.0
1664377590462,-0.036132812,0.21875,0.92871094,-0.09375,-0.21875,-0.03125,0.0,0.0,0.0
1664377590462,-0.036132812,0.21875,0.92871094,-0.09375,-0.21875,-0.03125,0.0,0.0,0.0
1664377590503,-0.029296875,0.20703125,0.9277344,0.21875,0.15625,-0.21875,0.0,0.0,0.0
1664377590503,-0.029296875,0.20703125,0.9277344,0.21875,0.15625,-0.21875,0.0,0.0,0.0
1664377590545,-0.028320312,0.20898438,0.93359375,-0.03125,-0.28125,-0.09375,0.0,0.0,0.0
1664377590545,-0.028320312,0.20898438,0.93359375,-0.03125,-0.28125,-0.09375,0.0,0.0,0.0
1664377590583,-0.025390625,0.21777344,0.9316406,0.03125,-0.09375,-0.03125,0.0,0.0,0.0
1664377590585,-0.025390625,0.21777344,0.9316406,0.03125,-0.09375,-0.03125,0.0,0.0,0.0
1664377590623,-0.029296875,0.20800781,0.9404297,0.15625,0.15625,-0.21875,0.0,0.0,0.0
1664377590625,-0.029296875,0.20800781,0.9404297,0.15625,0.15625,-0.21875,0.0,0.0,0.0
1664377590663,-0.034179688,0.20898438,0.93359375,-0.09375,0.09375,-0.21875,-25.0625,12.0625,-92.3125
1664377590663,-0.034179688,0.20898438,0.93359375,-0.09375,0.09375,-0.21875,-25.0625,12.0625,-92.3125
1664377590703,-0.0390625,0.203125,0.9238281,-0.15625,-0.59375,0.15625,0.0,0.0,0.0
1664377590703,-0.0390625,0.203125,0.9238281,-0.15625,-0.59375,0.15625,0.0,0.0,0.0
1664377590742,-0.038085938,0.21582031,0.94140625,-0.09375,0.4375,-0.15625,0.0,0.0,0.0
1664377590742,-0.038085938,0.21582031,0.94140625,-0.09375,0.4375,-0.15625,0.0,0.0,0.0
1664377590783,-0.03515625,0.20800781,0.9248047,0.03125,-0.09375,0.28125,0.0,0.0,0.0
1664377590783,-0.03515625,0.20800781,0.9248047,0.03125,-0.09375,0.28125,0.0,0.0,0.0
1664377590823,-0.025390625,0.21875,0.9277344,-0.15625,0.9375,-0.28125,0.0,0.0,0.0
1664377590823,-0.025390625,0.21875,0.9277344,-0.15625,0.9375,-0.28125,0.0,0.0,0.0
1664377590864,-0.028320312,0.22167969,0.92578125,-0.15625,-0.09375,0.03125,0.0,0.0,0.0
1664377590864,-0.028320312,0.22167969,0.92578125,-0.15625,-0.09375,0.03125,0.0,0.0,0.0
1664377590903,-0.036132812,0.21386719,0.94140625,0.09375,-0.03125,-0.15625,0.0,0.0,0.0
1664377590904,-0.036132812,0.21386719,0.94140625,0.09375,-0.03125,-0.15625,0.0,0.0,0.0
1664377590942,-0.032226562,0.21484375,0.9267578,-0.03125,-0.15625,0.03125,0.0,0.0,0.0
1664377590943,-0.032226562,0.21484375,0.9267578,-0.03125,-0.15625,0.03125,0.0,0.0,0.0
1664377590983,-0.024414062,0.21484375,0.92285156,-0.03125,-0.15625,-0.15625,0.0,0.0,0.0
1664377590983,-0.024414062,0.21484375,0.92285156,-0.03125,-0.15625,-0.15625,0.0,0.0,0.0
1664377591022,-0.032226562,0.21289062,0.93066406,-0.03125,-0.28125,0.21875,0.0,0.0,0.0
1664377591023,-0.032226562,0.21289062,0.93066406,-0.03125,-0.28125,0.21875,0.0,0.0,0.0
1664377591063,-0.037109375,0.20996094,0.9296875,0.03125,0.28125,-0.28125,0.0,0.0,0.0
1664377591063,-0.037109375,0.20996094,0.9296875,0.03125,0.28125,-0.28125,0.0,0.0,0.0
1664377591103,-0.032226562,0.20996094,0.9160156,0.34375,0.09375,-0.09375,0.0,0.0,0.0
1664377591103,-0.032226562,0.20996094,0.9160156,0.34375,0.09375,-0.09375,0.0,0.0,0.0
1664377591144,-0.033203125,0.21191406,0.92089844,-0.09375,-0.09375,-0.03125,-25.5,12.0625,-93.375
1664377591144,-0.033203125,0.21191406,0.92089844,-0.09375,-0.09375,-0.03125,-25.5,12.0625,-93.375
1664377591186,-0.033203125,0.21484375,0.94628906,0.03125,0.09375,-0.03125,0.0,0.0,0.0
1664377591186,-0.033203125,0.21484375,0.94628906,0.03125,0.09375,-0.03125,0.0,0.0,0.0
1664377591222,-0.025390625,0.21484375,0.9355469,-0.03125,-0.40625,0.21875,0.0,0.0,0.0
1664377591222,-0.025390625,0.21484375,0.9355469,-0.03125,-0.40625,0.21875,0.0,0.0,0.0
1664377591262,-0.03515625,0.21289062,0.9277344,-0.09375,-0.03125,-0.09375,0.0,0.0,0.0
1664377591263,-0.03515625,0.21289062,0.9277344,-0.09375,-0.03125,-0.09375,0.0,0.0,0.0
1664377591303,-0.029296875,0.21289062,0.93847656,-0.03125,-0.34375,0.03125,0.0,0.0,0.0
1664377591303,-0.029296875,0.21289062,0.93847656,-0.03125,-0.34375,0.03125,0.0,0.0,0.0
1664377591343,-0.029296875,0.20507812,0.92871094,0.09375,-0.09375,0.03125,0.0,0.0,0.0
1664377591343,-0.029296875,0.20507812,0.92871094,0.09375,-0.09375,0.03125,0.0,0.0,0.0
1664377591383,-0.036132812,0.21582031,0.9316406,-0.09375,-0.09375,-0.09375,0.0,0.0,0.0
1664377591385,-0.036132812,0.21582031,0.9316406,-0.09375,-0.09375,-0.09375,0.0,0.0,0.0
1664377591424,-0.045898438,0.20898438,0.9326172,-0.34375,-0.21875,0.09375,0.0,0.0,0.0
1664377591424,-0.045898438,0.20898438,0.9326172,-0.34375,-0.21875,0.09375,0.0,0.0,0.0
1664377591465,-0.034179688,0.21191406,0.93652344,-0.15625,-0.03125,0.21875,0.0,0.0,0.0
1664377591465,-0.034179688,0.21191406,0.93652344,-0.15625,-0.03125,0.21875,0.0,0.0,0.0
1664377591502,-0.03515625,0.20605469,0.9394531,0.03125,0.40625,0.09375,0.0,0.0,0.0
1664377591502,-0.03515625,0.20605469,0.9394531,0.03125,0.40625,0.09375,0.0,0.0,0.0
1664377591543,-0.02734375,0.20410156,0.9238281,-0.09375,0.09375,0.09375,0.0,0.0,0.0
1664377591543,-0.02734375,0.20410156,0.9238281,-0.09375,0.09375,0.09375,0.0,0.0,0.0
1664377591582,-0.038085938,0.21386719,0.9326172,-0.03125,0.03125,0.09375,0.0,0.0,0.0
1664377591583,-0.038085938,0.21386719,0.9326172,-0.03125,0.03125,0.09375,0.0,0.0,0.0
1664377591623,-0.033203125,0.21972656,0.9248047,-0.21875,-0.15625,0.09375,0.0,0.0,0.0
1664377591623,-0.033203125,0.21972656,0.9248047,-0.21875,-0.15625,0.09375,0.0,0.0,0.0
1664377591663,-0.036132812,0.20898438,0.9296875,0.09375,0.03125,0.09375,-24.75,12.0625,-92.0
1664377591662,-0.036132812,0.20898438,0.9296875,0.09375,0.03125,0.09375,-24.75,12.0625,-92.0
1664377591703,-0.036132812,0.20800781,0.93652344,0.21875,-0.40625,0.03125,0.0,0.0,0.0
1664377591703,-0.036132812,0.20800781,0.93652344,0.21875,-0.40625,0.03125,0.0,0.0,0.0
1664377591742,-0.036132812,0.20898438,0.94140625,-0.03125,0.34375,-0.03125,0.0,0.0,0.0
1664377591742,-0.036132812,0.20898438,0.94140625,-0.03125,0.34375,-0.03125,0.0,0.0,0.0
1664377591823,-0.032226562,0.20996094,0.9238281,0.15625,0.09375,0.0625,0.0,0.0,0.0
1664377591823,-0.032226562,0.20996094,0.9238281,0.15625,0.09375,0.0625,0.0,0.0,0.0
1664377591824,-0.028320312,0.20507812,0.9189453,-0.09375,-0.09375,0.25,0.0,0.0,0.0
1664377591825,-0.028320312,0.20507812,0.9189453,-0.09375,-0.09375,0.25,0.0,0.0,0.0
1664377591862,-0.03515625,0.20898438,0.9267578,-0.03125,-0.15625,0.03125,0.0,0.0,0.0
1664377591862,-0.03515625,0.20898438,0.9267578,-0.03125,-0.15625,0.03125,0.0,0.0,0.0
1664377591902,-0.029296875,0.20019531,0.92578125,0.03125,0.03125,-0.09375,0.0,0.0,0.0
1664377591902,-0.029296875,0.20019531,0.92578125,0.03125,0.03125,-0.09375,0.0,0.0,0.0
1664377591943,-0.026367188,0.21386719,0.9238281,-0.09375,-0.15625,0.03125,0.0,0.0,0.0
1664377591943,-0.026367188,0.21386719,0.9238281,-0.09375,-0.15625,0.03125,0.0,0.0,0.0
1664377591982,-0.028320312,0.2109375,0.9267578,0.21875,0.03125,-0.03125,0.0,0.0,0.0
1664377591983,-0.028320312,0.2109375,0.9267578,0.21875,0.03125,-0.03125,0.0,0.0,0.0
1664377592023,-0.034179688,0.20800781,0.9375,-0.03125,-0.03125,0.0625,0.0,0.0,0.0
1664377592023,-0.034179688,0.20800781,0.9375,-0.03125,-0.03125,0.0625,0.0,0.0,0.0
1664377592063,-0.04296875,0.20996094,0.9267578,-0.09375,-0.09375,0.3125,0.0,0.0,0.0
1664377592062,-0.04296875,0.20996094,0.9267578,-0.09375,-0.09375,0.3125,0.0,0.0,0.0
1664377592103,-0.036132812,0.20898438,0.9277344,0.21875,0.53125,0.125,0.0,0.0,0.0
1664377592103,-0.036132812,0.20898438,0.9277344,0.21875,0.53125,0.125,0.0,0.0,0.0
1664377592143,-0.037109375,0.21777344,0.92871094,-0.03125,-0.21875,0.125,-26.5625,9.9375,-94.6875
1664377592145,-0.037109375,0.21777344,0.92871094,-0.03125,-0.21875,0.125,-26.5625,9.9375,-94.6875
1664377592182,-0.021484375,0.21386719,0.9404297,-0.09375,-0.15625,0.3125,0.0,0.0,0.0
1664377592182,-0.021484375,0.21386719,0.9404297,-0.09375,-0.15625,0.3125,0.0,0.0,0.0
1664377592223,-0.037109375,0.21289062,0.9316406,-0.03125,0.40625,0.4375,0.0,0.0,0.0
1664377592223,-0.037109375,0.21289062,0.9316406,-0.03125,0.40625,0.4375,0.0,0.0,0.0
1664377592263,-0.024414062,0.20703125,0.9248047,0.15625,0.21875,0.3125,0.0,0.0,0.0
1664377592263,-0.024414062,0.20703125,0.9248047,0.15625,0.21875,0.3125,0.0,0.0,0.0
1664377592303,-0.034179688,0.20898438,0.9375,-0.03125,0.40625,0.125,0.0,0.0,0.0
1664377592303,-0.034179688,0.20898438,0.9375,-0.03125,0.40625,0.125,0.0,0.0,0.0
1664377592342,-0.02734375,0.20898438,0.9404297,-0.03125,-0.28125,0.375,0.0,0.0,0.0
1664377592342,-0.02734375,0.20898438,0.9404297,-0.03125,-0.28125,0.375,0.0,0.0,0.0
1664377592383,-0.03125,0.21582031,0.9375,0.21875,0.21875,0.0625,0.0,0.0,0.0
1664377592383,-0.03125,0.21582031,0.9375,0.21875,0.21875,0.0625,0.0,0.0,0.0
1664377592424,-0.034179688,0.20410156,0.93066406,-0.09375,-0.59375,0.1875,0.0,0.0,0.0
1664377592423,-0.034179688,0.20410156,0.93066406,-0.09375,-0.59375,0.1875,0.0,0.0,0.0
1664377592462,-0.026367188,0.21777344,0.92871094,0.15625,0.625,0.0625,0.0,0.0,0.0
1664377592462,-0.026367188,0.21777344,0.92871094,0.15625,0.625,0.0625,0.0,0.0,0.0
1664377592523,-0.0234375,0.20507812,0.9394531,0.09375,-0.46875,0.5625,0.0,0.0,0.0
1664377592524,-0.0234375,0.20507812,0.9394531,0.09375,-0.46875,0.5625,0.0,0.0,0.0
1664377592543,-0.033203125,0.21582031,0.9326172,-0.21875,0.28125,0.125,0.0,0.0,0.0
1664377592542,-0.033203125,0.21582031,0.9326172,-0.21875,0.28125,0.125,0.0,0.0,0.0
1664377592583,-0.034179688,0.20800781,0.9375,0.09375,-0.03125,0.3125,0.0,0.0,0.0
1664377592585,-0.034179688,0.20800781,0.9375,0.09375,-0.03125,0.3125,0.0,0.0,0.0
1664377592623,-0.032226562,0.20703125,0.9277344,0.03125,0.09375,0.1875,0.0,0.0,0.0
1664377592623,-0.032226562,0.20703125,0.9277344,0.03125,0.09375,0.1875,0.0,0.0,0.0
1664377592663,-0.037109375,0.20605469,0.93066406,0.03125,-0.21875,0.25,-25.8125,11.0,-93.0625
1664377592663,-0.037109375,0.20605469,0.93066406,0.03125,-0.21875,0.25,-25.8125,11.0,-93.0625
1664377592703,-0.033203125,0.21191406,0.93359375,0.03125,0.21875,0.125,0.0,0.0,0.0
1664377592703,-0.033203125,0.21191406,0.93359375,0.03125,0.21875,0.125,0.0,0.0,0.0
1664377592743,-0.03125,0.2109375,0.9238281,-0.03125,-0.09375,0.375,0.0,0.0,0.0
1664377592743,-0.03125,0.2109375,0.9238281,-0.03125,-0.09375,0.375,0.0,0.0,0.0
1664377592784,-0.034179688,0.21289062,0.9326172,0.21875,0.15625,0.1875,0.0,0.0,0.0
1664377592784,-0.034179688,0.21289062,0.9326172,0.21875,0.15625,0.1875,0.0,0.0,0.0
1664377592822,-0.026367188,0.21386719,0.9316406,-0.03125,-0.34375,0.1875,0.0,0.0,0.0
1664377592822,-0.026367188,0.21386719,0.9316406,-0.03125,-0.34375,0.1875,0.0,0.0,0.0
1664377592864,-0.036132812,0.2109375,0.9296875,-0.03125,-0.09375,0.1875,0.0,0.0,0.0
1664377592864,-0.036132812,0.2109375,0.9296875,-0.03125,-0.09375,0.1875,0.0,0.0,0.0
1664377592903,-0.03515625,0.21191406,0.93847656,0.03125,0.15625,0.1875,0.0,0.0,0.0
1664377592903,-0.03515625,0.21191406,0.93847656,0.03125,0.15625,0.1875,0.0,0.0,0.0
1664377592942,-0.03515625,0.21484375,0.9248047,0.03125,0.15625,0.3125,0.0,0.0,0.0
1664377592942,-0.03515625,0.21484375,0.9248047,0.03125,0.15625,0.3125,0.0,0.0,0.0
1664377592984,-0.03515625,0.203125,0.9394531,0.03125,0.625,0.125,0.0,0.0,0.0
1664377592984,-0.03515625,0.203125,0.9394531,0.03125,0.625,0.125,0.0,0.0,0.0
1664377593025,-0.036132812,0.2109375,0.9238281,-0.03125,0.03125,0.4375,0.0,0.0,0.0
1664377593025,-0.036132812,0.2109375,0.9238281,-0.03125,0.03125,0.4375,0.0,0.0,0.0
1664377593063,-0.037109375,0.20898438,0.9238281,0.28125,-0.21875,0.3125,0.0,0.0,0.0
1664377593064,-0.037109375,0.20898438,0.9238281,0.28125,-0.21875,0.3125,0.0,0.0,0.0
1664377593104,-0.033203125,0.20996094,0.921875,0.03125,0.15625,0.0625,0.0,0.0,0.0
1664377593104,-0.033203125,0.20996094,0.921875,0.03125,0.15625,0.0625,0.0,0.0,0.0
1664377593143,-0.02734375,0.2109375,0.9296875,0.03125,0.03125,-0.03125,-24.625,9.8125,-92.875
1664377593143,-0.02734375,0.2109375,0.9296875,0.03125,0.03125,-0.03125,-24.625,9.8125,-92.875
1664377593183,-0.036132812,0.20703125,0.92871094,-0.15625,-0.03125,0.0625,0.0,0.0,0.0
1664377593183,-0.036132812,0.20703125,0.92871094,-0.15625,-0.03125,0.0625,0.0,0.0,0.0
1664377593223,-0.033203125,0.21679688,0.9355469,-0.21875,0.46875,-0.15625,0.0,0.0,0.0
1664377593223,-0.033203125,0.21679688,0.9355469,-0.21875,0.46875,-0.15625,0.0,0.0,0.0
1664377593263,-0.033203125,0.21191406,0.9316406,-0.09375,-0.03125,0.125,0.0,0.0,0.0
1664377593263,-0.033203125,0.21191406,0.9316406,-0.09375,-0.03125,0.125,0.0,0.0,0.0
1664377593304,-0.034179688,0.21484375,0.94433594,0.03125,-0.28125,0.3125,0.0,0.0,0.0
1664377593303,-0.034179688,0.21484375,0.94433594,0.03125,-0.28125,0.3125,0.0,0.0,0.0
1664377593344,-0.03515625,0.2109375,0.9296875,0.03125,0.21875,-0.15625,0.0,0.0,0.0
1664377593344,-0.03515625,0.2109375,0.9296875,0.03125,0.21875,-0.15625,0.0,0.0,0.0
1664377593383,-0.03125,0.20800781,0.9345703,0.09375,-0.03125,0.03125,0.0,0.0,0.0
1664377593385,-0.03125,0.20800781,0.9345703,0.09375,-0.03125,0.03125,0.0,0.0,0.0
1664377593423,-0.034179688,0.21191406,0.9375,-0.09375,-0.09375,0.03125,0.0,0.0,0.0
1664377593423,-0.034179688,0.21191406,0.9375,-0.09375,-0.09375,0.03125,0.0,0.0,0.0
1664377593463,-0.032226562,0.20800781,0.9160156,0.03125,0.15625,0.0625,0.0,0.0,0.0
1664377593463,-0.032226562,0.20800781,0.9160156,0.03125,0.15625,0.0625,0.0,0.0,0.0
1664377593503,-0.04296875,0.20703125,0.9296875,-0.03125,-0.15625,0.25,0.0,0.0,0.0
1664377593503,-0.04296875,0.20703125,0.9296875,-0.03125,-0.15625,0.25,0.0,0.0,0.0
1664377593543,-0.03125,0.20996094,0.9277344,-0.09375,-0.15625,0.125,0.0,0.0,0.0
1664377593543,-0.03125,0.20996094,0.9277344,-0.09375,-0.15625,0.125,0.0,0.0,0.0
1664377593583,-0.03515625,0.20703125,0.94921875,-0.09375,-0.03125,0.125,0.0,0.0,0.0
1664377593583,-0.03515625,0.20703125,0.94921875,-0.09375,-0.03125,0.125,0.0,0.0,0.0
1664377593623,-0.029296875,0.203125,0.94140625,-0.15625,-0.21875,0.4375,0.0,0.0,0.0
1664377593623,-0.029296875,0.203125,0.94140625,-0.15625,-0.21875,0.4375,0.0,0.0,0.0
1664377593664,-0.041015625,0.20800781,0.9121094,0.03125,1.0,-0.34375,-26.5625,11.4375,-93.375
1664377593664,-0.041015625,0.20800781,0.9121094,0.03125,1.0,-0.34375,-26.5625,11.4375,-93.375
1664377593704,-0.036132812,0.21191406,0.9296875,-0.09375,-0.40625,0.25,0.0,0.0,0.0
1664377593705,-0.036132812,0.21191406,0.9296875,-0.09375,-0.40625,0.25,0.0,0.0,0.0
1664377593744,-0.034179688,0.2109375,0.9453125,0.09375,-0.15625,0.0625,0.0,0.0,0.0
1664377593746,-0.034179688,0.2109375,0.9453125,0.09375,-0.15625,0.0625,0.0,0.0,0.0
1664377593783,-0.03515625,0.2109375,0.9277344,-0.03125,-0.40625,0.0625,0.0,0.0,0.0
1664377593783,-0.03515625,0.2109375,0.9277344,-0.03125,-0.40625,0.0625,0.0,0.0,0.0
1664377593824,-0.036132812,0.21679688,0.9277344,-0.03125,-0.15625,0.03125,0.0,0.0,0.0
1664377593824,-0.036132812,0.21679688,0.9277344,-0.03125,-0.15625,0.03125,0.0,0.0,0.0
1664377593862,-0.03125,0.20605469,0.93359375,0.03125,-0.46875,0.0625,0.0,0.0,0.0
1664377593862,-0.03125,0.20605469,0.93359375,0.03125,-0.46875,0.0625,0.0,0.0,0.0
1664377593903,-0.028320312,0.20898438,0.93066406,0.09375,0.15625,-0.09375,0.0,0.0,0.0
1664377593903,-0.028320312,0.20898438,0.93066406,0.09375,0.15625,-0.09375,0.0,0.0,0.0
1664377593946,-0.04296875,0.20703125,0.93847656,0.09375,0.03125,-0.15625,0.0,0.0,0.0
1664377593946,-0.04296875,0.20703125,0.93847656,0.09375,0.03125,-0.15625,0.0,0.0,0.0
1664377593984,-0.026367188,0.20800781,0.93847656,0.15625,-0.03125,-0.15625,0.0,0.0,0.0
1664377593984,-0.026367188,0.20800781,0.93847656,0.15625,-0.03125,-0.15625,0.0,0.0,0.0
1664377594023,-0.033203125,0.21289062,0.9326172,-0.15625,-0.34375,0.0625,0.0,0.0,0.0
1664377594023,-0.033203125,0.21289062,0.9326172,-0.15625,-0.34375,0.0625,0.0,0.0,0.0
1664377594064,-0.036132812,0.21191406,0.93847656,0.15625,0.15625,-0.28125,0.0,0.0,0.0
1664377594064,-0.036132812,0.21191406,0.93847656,0.15625,0.15625,-0.28125,0.0,0.0,0.0
1664377594103,-0.03125,0.20703125,0.9277344,0.09375,0.03125,-0.03125,0.0,0.0,0.0
1664377594103,-0.03125,0.20703125,0.9277344,0.09375,0.03125,-0.03125,0.0,0.0,0.0
1664377594142,-0.03125,0.21191406,0.9433594,-0.03125,-0.09375,-0.15625,-24.875,11.125,-93.5
1664377594142,-0.03125,0.21191406,0.9433594,-0.03125,-0.09375,-0.15625,-24.875,11.125,-93.5
1664377594183,-0.033203125,0.21289062,0.92285156,0.03125,-0.21875,-0.15625,0.0,0.0,0.0
1664377594183,-0.033203125,0.21289062,0.92285156,0.03125,-0.21875,-0.15625,0.0,0.0,0.0
1664377594223,-0.038085938,0.21289062,0.921875,0.03125,-0.03125,-0.28125,0.0,0.0,0.0
1664377594223,-0.038085938,0.21289062,0.921875,0.03125,-0.03125,-0.28125,0.0,0.0,0.0
1664377594263,-0.028320312,0.21484375,0.9189453,0.03125,0.03125,-0.09375,0.0,0.0,0.0
1664377594263,-0.028320312,0.21484375,0.9189453,0.03125,0.03125,-0.09375,0.0,0.0,0.0
1664377594304,-0.033203125,0.20019531,0.9326172,-0.03125,0.15625,0.375,0.0,0.0,0.0
1664377594304,-0.033203125,0.20019531,0.9326172,-0.03125,0.15625,0.375,0.0,0.0,0.0
1664377594343,-0.033203125,0.21289062,0.92578125,-0.34375,0.59375,-0.15625,0.0,0.0,0.0
1664377594345,-0.033203125,0.21289062,0.92578125,-0.34375,0.59375,-0.15625,0.0,0.0,0.0
1664377594384,-0.03125,0.21679688,0.9199219,-0.09375,0.09375,0.0625,0.0,0.0,0.0
1664377594383,-0.03125,0.21679688,0.9199219,-0.09375,0.09375,0.0625,0.0,0.0,0.0
1664377594423,-0.033203125,0.21386719,0.921875,-0.03125,-0.09375,-0.1875,0.0,0.0,0.0
1664377594423,-0.033203125,0.21386719,0.921875,-0.03125,-0.09375,-0.1875,0.0,0.0,0.0
1664377594481,-0.018554688,0.21484375,0.9267578,0.15625,0.09375,-0.3125,0.0,0.0,0.0
1664377594482,-0.018554688,0.21484375,0.9267578,0.15625,0.09375,-0.3125,0.0,0.0,0.0
1664377594502,-0.03125,0.21289062,0.9375,-0.09375,-0.34375,-0.25,0.0,0.0,0.0
1664377594502,-0.03125,0.21289062,0.9375,-0.09375,-0.34375,-0.25,0.0,0.0,0.0
1664377594544,-0.030273438,0.20703125,0.9404297,-0.09375,-0.15625,0.0625,0.0,0.0,0.0
1664377594544,-0.030273438,0.20703125,0.9404297,-0.09375,-0.15625,0.0625,0.0,0.0,0.0
1664377594583,-0.038085938,0.20996094,0.9296875,0.03125,-0.03125,0.125,0.0,0.0,0.0
1664377594583,-0.038085938,0.20996094,0.9296875,0.03125,-0.03125,0.125,0.0,0.0,0.0
1664377594624,-0.03515625,0.203125,0.9296875,0.03125,-0.03125,0.0,0.0,0.0,0.0
1664377594625,-0.03515625,0.203125,0.9296875,0.03125,-0.03125,0.0,0.0,0.0,0.0
1664377594662,-0.032226562,0.203125,0.9394531,-0.21875,-0.15625,0.0,-25.5,12.0625,-93.0625
1664377594662,-0.032226562,0.203125,0.9394531,-0.21875,-0.15625,0.0,-25.5,12.0625,-93.0625
1664377594702,-0.037109375,0.21679688,0.9326172,0.09375,0.09375,-0.0625,0.0,0.0,0.0
1664377594703,-0.037109375,0.21679688,0.9326172,0.09375,0.09375,-0.0625,0.0,0.0,0.0
1664377594742,-0.038085938,0.2109375,0.9238281,0.09375,0.09375,-0.0625,0.0,0.0,0.0
1664377594742,-0.038085938,0.2109375,0.9238281,0.09375,0.09375,-0.0625,0.0,0.0,0.0
1664377594783,-0.033203125,0.21484375,0.93652344,-0.09375,-0.15625,-0.0625,0.0,0.0,0.0
1664377594783,-0.033203125,0.21484375,0.93652344,-0.09375,-0.15625,-0.0625,0.0,0.0,0.0
1664377594823,-0.034179688,0.2109375,0.92871094,-0.09375,-0.03125,-0.1875,0.0,0.0,0.0
1664377594823,-0.034179688,0.2109375,0.92871094,-0.09375,-0.03125,-0.1875,0.0,0.0,0.0
1664377594863,-0.034179688,0.2109375,0.9345703,0.03125,0.15625,-0.0625,0.0,0.0,0.0
1664377594863,-0.034179688,0.2109375,0.9345703,0.03125,0.15625,-0.0625,0.0,0.0,0.0
1664377594903,-0.036132812,0.21484375,0.9404297,0.15625,-0.28125,0.0625,0.0,0.0,0.0
1664377594902,-0.036132812,0.21484375,0.9404297,0.15625,-0.28125,0.0625,0.0,0.0,0.0
1664377594943,-0.029296875,0.21972656,0.9345703,-0.09375,-0.34375,-0.0625,0.0,0.0,0.0
1664377594945,-0.029296875,0.21972656,0.9345703,-0.09375,-0.34375,-0.0625,0.0,0.0,0.0
1664377594984,-0.033203125,0.21191406,0.9316406,0.03125,0.03125,0.0625,0.0,0.0,0.0
1664377594982,-0.033203125,0.21191406,0.9316406,0.03125,0.03125,0.0625,0.0,0.0,0.0
1664377595023,-0.041015625,0.21289062,0.921875,-0.03125,-0.15625,0.1875,0.0,0.0,0.0
1664377595023,-0.041015625,0.21289062,0.921875,-0.03125,-0.15625,0.1875,0.0,0.0,0.0
1664377595063,-0.032226562,0.20703125,0.93066406,-0.15625,0.8125,-0.4375,0.0,0.0,0.0
1664377595063,-0.032226562,0.20703125,0.93066406,-0.15625,0.8125,-0.4375,0.0,0.0,0.0
1664377595103,-0.041015625,0.21679688,0.9248047,-0.03125,-0.09375,0.0,0.0,0.0,0.0
1664377595103,-0.041015625,0.21679688,0.9248047,-0.03125,-0.09375,0.0,0.0,0.0,0.0
1664377595142,-0.037109375,0.21484375,0.9248047,0.03125,-0.09375,-0.25,-26.25,11.4375,-92.0
1664377595142,-0.037109375,0.21484375,0.9248047,0.03125,-0.09375,-0.25,-26.25,11.4375,-92.0
1664377595185,-0.0390625,0.20996094,0.9277344,0.21875,-0.28125,0.1875,0.0,0.0,0.0
1664377595185,-0.0390625,0.20996094,0.9277344,0.21875,-0.28125,0.1875,0.0,0.0,0.0
1664377595222,-0.036132812,0.20507812,0.92578125,-0.09375,-0.15625,-0.125,0.0,0.0,0.0
1664377595222,-0.036132812,0.20507812,0.92578125,-0.09375,-0.15625,-0.125,0.0,0.0,0.0
1664377595262,-0.036132812,0.20605469,0.9267578,0.09375,-0.21875,0.125,0.0,0.0,0.0
1664377595263,-0.036132812,0.20605469,0.9267578,0.09375,-0.21875,0.125,0.0,0.0,0.0
1664377595303,-0.03515625,0.21191406,0.9199219,-0.03125,-0.03125,0.0,0.0,0.0,0.0
1664377595303,-0.03515625,0.21191406,0.9199219,-0.03125,-0.03125,0.0,0.0,0.0,0.0
1664377595343,-0.03125,0.2109375,0.9296875,-0.03125,0.15625,-0.0625,0.0,0.0,0.0
1664377595343,-0.03125,0.2109375,0.9296875,-0.03125,0.15625,-0.0625,0.0,0.0,0.0
1664377595383,-0.034179688,0.21582031,0.93652344,-0.03125,-0.21875,0.125,0.0,0.0,0.0
1664377595383,-0.034179688,0.21582031,0.93652344,-0.03125,-0.21875,0.125,0.0,0.0,0.0
1664377595424,-0.037109375,0.21972656,0.93359375,-0.03125,0.21875,-0.125,0.0,0.0,0.0
1664377595424,-0.037109375,0.21972656,0.93359375,-0.03125,0.21875,-0.125,0.0,0.0,0.0
1664377595464,-0.034179688,0.203125,0.9501953,-0.03125,-0.21875,0.0,0.0,0.0,0.0
1664377595464,-0.034179688,0.203125,0.9501953,-0.03125,-0.21875,0.0,0.0,0.0,0.0
1664377595503,-0.034179688,0.20410156,0.92578125,-0.03125,-0.09375,-0.125,0.0,0.0,0.0
1664377595503,-0.034179688,0.20410156,0.92578125,-0.03125,-0.09375,-0.125,0.0,0.0,0.0
1664377595544,-0.032226562,0.21777344,0.94140625,0.21875,-0.28125,-0.1875,0.0,0.0,0.0
1664377595544,-0.032226562,0.21777344,0.94140625,0.21875,-0.28125,-0.1875,0.0,0.0,0.0
1664377595582,-0.032226562,0.21777344,0.93359375,-0.03125,-0.15625,-0.0625,0.0,0.0,0.0
1664377595582,-0.032226562,0.21777344,0.93359375,-0.03125,-0.15625,-0.0625,0.0,0.0,0.0
1664377595622,-0.036132812,0.21386719,0.9267578,0.09375,-0.03125,0.125,0.0,0.0,0.0
1664377595622,-0.036132812,0.21386719,0.9267578,0.09375,-0.03125,0.125,0.0,0.0,0.0
1664377595663,-0.018554688,0.21484375,0.94433594,0.15625,0.34375,-0.0625,-25.9375,10.5625,-93.9375
1664377595663,-0.018554688,0.21484375,0.94433594,0.15625,0.34375,-0.0625,-25.9375,10.5625,-93.9375
1664377595702,-0.034179688,0.22070312,0.9248047,-0.03125,-0.15625,-0.0625,0.0,0.0,0.0
1664377595702,-0.034179688,0.22070312,0.9248047,-0.03125,-0.15625,-0.0625,0.0,0.0,0.0
1664377595743,-0.025390625,0.21777344,0.9423828,0.03125,0.40625,0.0,0.0,0.0,0.0
1664377595743,-0.025390625,0.21777344,0.9423828,0.03125,0.40625,0.0,0.0,0.0,0.0
1664377595783,-0.033203125,0.20410156,0.9326172,0.03125,0.03125,0.1875,0.0,0.0,0.0
1664377595783,-0.033203125,0.20410156,0.9326172,0.03125,0.03125,0.1875,0.0,0.0,0.0
1664377595822,-0.037109375,0.20898438,0.9248047,-0.09375,0.4375,-0.125,0.0,0.0,0.0
1664377595822,-0.037109375,0.20898438,0.9248047,-0.09375,0.4375,-0.125,0.0,0.0,0.0
1664377595864,-0.04296875,0.2109375,0.93359375,-0.09375,-0.15625,0.125,0.0,0.0,0.0
1664377595865,-0.04296875,0.2109375,0.93359375,-0.09375,-0.15625,0.125,0.0,0.0,0.0
1664377595903,-0.037109375,0.20117188,0.9404297,-0.03125,-0.09375,-0.3125,0.0,0.0,0.0
1664377595903,-0.037109375,0.20117188,0.9404297,-0.03125,-0.09375,-0.3125,0.0,0.0,0.0
1664377595942,-0.033203125,0.20605469,0.93066406,-0.03125,-0.21875,-0.25,0.0,0.0,0.0
1664377595944,-0.033203125,0.20605469,0.93066406,-0.03125,-0.21875,-0.25,0.0,0.0,0.0
1664377595983,-0.03515625,0.2109375,0.9404297,0.15625,0.03125,-0.0625,0.0,0.0,0.0
1664377595983,-0.03515625,0.2109375,0.9404297,0.15625,0.03125,-0.0625,0.0,0.0,0.0
1664377596023,-0.037109375,0.20410156,0.9296875,0.15625,0.09375,0.25,0.0,0.0,0.0
1664377596023,-0.037109375,0.20410156,0.9296875,0.15625,0.09375,0.25,0.0,0.0,0.0
1664377596062,-0.037109375,0.21972656,0.9375,0.09375,0.40625,0.0,0.0,0.0,0.0
1664377596062,-0.037109375,0.21972656,0.9375,0.09375,0.40625,0.0,0.0,0.0,0.0
1664377596105,-0.029296875,0.20996094,0.9345703,0.15625,0.15625,0.0625,0.0,0.0,0.0
1664377596105,-0.029296875,0.20996094,0.9345703,0.15625,0.15625,0.0625,0.0,0.0,0.0
1664377596142,-0.037109375,0.21582031,0.9277344,-0.09375,-0.03125,0.1875,-25.375,11.875,-93.5
1664377596143,-0.037109375,0.21582031,0.9277344,-0.09375,-0.03125,0.1875,-25.375,11.875,-93.5
1664377596184,-0.021484375,0.21191406,0.9326172,-0.03125,-0.15625,0.1875,0.0,0.0,0.0
1664377596186,-0.021484375,0.21191406,0.9326172,-0.03125,-0.15625,0.1875,0.0,0.0,0.0
1664377596224,-0.029296875,0.203125,0.9404297,0.03125,0.15625,0.125,0.0,0.0,0.0
1664377596224,-0.029296875,0.203125,0.9404297,0.03125,0.15625,0.125,0.0,0.0,0.0
1664377596262,-0.038085938,0.21289062,0.9404297,-0.15625,-0.09375,0.3125,0.0,0.0,0.0
1664377596262,-0.038085938,0.21289062,0.9404297,-0.15625,-0.09375,0.3125,0.0,0.0,0.0
1664377596304,-0.032226562,0.21289062,0.91503906,-0.03125,-0.09375,0.375,0.0,0.0,0.0
1664377596303,-0.032226562,0.21289062,0.91503906,-0.03125,-0.09375,0.375,0.0,0.0,0.0
1664377596343,-0.036132812,0.21679688,0.9394531,0.03125,0.28125,0.0,0.0,0.0,0.0
1664377596343,-0.036132812,0.21679688,0.9394531,0.03125,0.28125,0.0,0.0,0.0,0.0
1664377596383,-0.0390625,0.21191406,0.93652344,0.09375,-0.09375,0.3125,0.0,0.0,0.0
1664377596383,-0.0390625,0.21191406,0.93652344,0.09375,-0.09375,0.3125,0.0,0.0,0.0
1664377596423,-0.026367188,0.20800781,0.9238281,0.03125,0.03125,0.25,0.0,0.0,0.0
1664377596423,-0.026367188,0.20800781,0.9238281,0.03125,0.03125,0.25,0.0,0.0,0.0
1664377596463,-0.040039062,0.21484375,0.91796875,0.09375,0.34375,0.125,0.0,0.0,0.0
1664377596464,-0.040039062,0.21484375,0.91796875,0.09375,0.34375,0.125,0.0,0.0,0.0
1664377596504,-0.029296875,0.20703125,0.9394531,-0.15625,-0.03125,0.375,0.0,0.0,0.0
1664377596504,-0.029296875,0.20703125,0.9394531,-0.15625,-0.03125,0.375,0.0,0.0,0.0
1664377596543,-0.029296875,0.20214844,0.92089844,-0.09375,0.4375,0.375,0.0,0.0,0.0
1664377596543,-0.029296875,0.20214844,0.92089844,-0.09375,0.4375,0.375,0.0,0.0,0.0
1664377596583,-0.03515625,0.2109375,0.9316406,-0.09375,0.8125,0.0625,0.0,0.0,0.0
1664377596583,-0.03515625,0.2109375,0.9316406,-0.09375,0.8125,0.0625,0.0,0.0,0.0
1664377596624,-0.037109375,0.21582031,0.9345703,-0.03125,-0.03125,0.4375,0.0,0.0,0.0
1664377596623,-0.037109375,0.21582031,0.9345703,-0.03125,-0.03125,0.4375,0.0,0.0,0.0
1664377596663,-0.038085938,0.20703125,0.93847656,-0.09375,-0.09375,0.1875,-26.25,11.4375,-94.6875
1664377596663,-0.038085938,0.20703125,0.93847656,-0.09375,-0.09375,0.1875,-26.25,11.4375,-94.6875
1664377596704,-0.036132812,0.20703125,0.9394531,-0.03125,-0.28125,0.0625,0.0,0.0,0.0
1664377596704,-0.036132812,0.20703125,0.9394531,-0.03125,-0.28125,0.0625,0.0,0.0,0.0
1664377596746,-0.033203125,0.21191406,0.9375,0.15625,0.28125,-0.0625,0.0,0.0,0.0
1664377596746,-0.033203125,0.21191406,0.9375,0.15625,0.28125,-0.0625,0.0,0.0,0.0
1664377596783,-0.037109375,0.21582031,0.9267578,0.03125,-0.15625,0.46875,0.0,0.0,0.0
1664377596783,-0.037109375,0.21582031,0.9267578,0.03125,-0.15625,0.46875,0.0,0.0,0.0
1664377596823,-0.04296875,0.21289062,0.9296875,0.09375,0.21875,0.0625,0.0,0.0,0.0
1664377596823,-0.04296875,0.21289062,0.9296875,0.09375,0.21875,0.0625,0.0,0.0,0.0
1664377596864,-0.043945312,0.21582031,0.92871094,0.21875,0.15625,0.3125,0.0,0.0,0.0
1664377596864,-0.043945312,0.21582031,0.92871094,0.21875,0.15625,0.3125,0.0,0.0,0.0
1664377596903,-0.028320312,0.20898438,0.9248047,-0.03125,-0.28125,0.0625,0.0,0.0,0.0
1664377596905,-0.028320312,0.20898438,0.9248047,-0.03125,-0.28125,0.0625,0.0,0.0,0.0
1664377596943,-0.030273438,0.21484375,0.9316406,0.09375,0.15625,0.125,0.0,0.0,0.0
1664377596943,-0.030273438,0.21484375,0.9316406,0.09375,0.15625,0.125,0.0,0.0,0.0
1664377596982,-0.032226562,0.21386719,0.9355469,0.21875,-0.03125,0.25,0.0,0.0,0.0
1664377596982,-0.032226562,0.21386719,0.9355469,0.21875,-0.03125,0.25,0.0,0.0,0.0
1664377597023,-0.033203125,0.21484375,0.9140625,-0.03125,-0.40625,0.1875,0.0,0.0,0.0
1664377597022,-0.033203125,0.21484375,0.9140625,-0.03125,-0.40625,0.1875,0.0,0.0,0.0
1664377597064,-0.032226562,0.20800781,0.9326172,0.125,0.1875,-0.15625,0.0,0.0,0.0
1664377597064,-0.032226562,0.20800781,0.9326172,0.125,0.1875,-0.15625,0.0,0.0,0.0
1664377597106,-0.036132812,0.21289062,0.9189453,0.3125,-0.40625,0.34375,0.0,0.0,0.0
1664377597106,-0.036132812,0.21289062,0.9189453,0.3125,-0.40625,0.34375,0.0,0.0,0.0
1664377597143,-0.034179688,0.22070312,0.9189453,0.0,0.1875,0.03125,-24.625,11.5625,-93.1875
1664377597143,-0.034179688,0.22070312,0.9189453,0.0,0.1875,0.03125,-24.625,11.5625,-93.1875
1664377597184,-0.03515625,0.21386719,0.9326172,0.0625,-0.53125,0.15625,0.0,0.0,0.0
1664377597184,-0.03515625,0.21386719,0.9326172,0.0625,-0.53125,0.15625,0.0,0.0,0.0
1664377597223,-0.030273438,0.21386719,0.9238281,-0.0625,-0.21875,-0.03125,0.0,0.0,0.0
1664377597223,-0.030273438,0.21386719,0.9238281,-0.0625,-0.21875,-0.03125,0.0,0.0,0.0
1664377597263,-0.041015625,0.21582031,0.93066406,0.0,0.3125,-0.09375,0.0,0.0,0.0
1664377597263,-0.041015625,0.21582031,0.93066406,0.0,0.3125,-0.09375,0.0,0.0,0.0
1664377597303,-0.045898438,0.20507812,0.9316406,0.0,0.25,0.09375,0.0,0.0,0.0
1664377597303,-0.045898438,0.20507812,0.9316406,0.0,0.25,0.09375,0.0,0.0,0.0
1664377597344,-0.033203125,0.21679688,0.9472656,-0.125,0.5625,0.03125,0.0,0.0,0.0
1664377597344,-0.033203125,0.21679688,0.9472656,-0.125,0.5625,0.03125,0.0,0.0,0.0
1664377597384,-0.037109375,0.2109375,0.91503906,0.0625,-0.1875,0.28125,0.0,0.0,0.0
1664377597384,-0.037109375,0.2109375,0.91503906,0.0625,-0.1875,0.28125,0.0,0.0,0.0
1664377597423,-0.040039062,0.21679688,0.9345703,0.1875,0.3125,-0.28125,0.0,0.0,0.0
1664377597425,-0.040039062,0.21679688,0.9345703,0.1875,0.3125,-0.28125,0.0,0.0,0.0
1664377597463,-0.034179688,0.20703125,0.9326172,-0.0625,-0.65625,0.15625,0.0,0.0,0.0
1664377597463,-0.034179688,0.20703125,0.9326172,-0.0625,-0.65625,0.15625,0.0,0.0,0.0
1664377597503,-0.036132812,0.21484375,0.93847656,0.0,0.0,-0.15625,0.0,0.0,0.0
1664377597504,-0.036132812,0.21484375,0.93847656,0.0,0.0,-0.15625,0.0,0.0,0.0
1664377597543,-0.032226562,0.21679688,0.9433594,0.125,-0.34375,0.34375,0.0,0.0,0.0
1664377597543,-0.032226562,0.21679688,0.9433594,0.125,-0.34375,0.34375,0.0,0.0,0.0
1664377597582,-0.037109375,0.20898438,0.92871094,0.125,0.0,0.09375,0.0,0.0,0.0
1664377597582,-0.037109375,0.20898438,0.92871094,0.125,0.0,0.09375,0.0,0.0,0.0
1664377597623,-0.038085938,0.20605469,0.9375,0.125,0.0,0.09375,0.0,0.0,0.0
1664377597623,-0.038085938,0.20605469,0.9375,0.125,0.0,0.09375,0.0,0.0,0.0
1664377597662,-0.02734375,0.20996094,0.9267578,-0.0625,-0.125,-0.03125,-26.375,11.5625,-94.25
1664377597662,-0.02734375,0.20996094,0.9267578,-0.0625,-0.125,-0.03125,-26.375,11.5625,-94.25
1664377597705,-0.02734375,0.21191406,0.93847656,-0.0625,-0.34375,0.03125,0.0,0.0,0.0
1664377597705,-0.02734375,0.21191406,0.93847656,-0.0625,-0.34375,0.03125,0.0,0.0,0.0
1664377597744,-0.03515625,0.22363281,0.9296875,-0.0625,-0.28125,-0.34375,0.0,0.0,0.0
1664377597743,-0.03515625,0.22363281,0.9296875,-0.0625,-0.28125,-0.34375,0.0,0.0,0.0
1664377597783,-0.033203125,0.20605469,0.9326172,0.0,-0.125,-0.15625,0.0,0.0,0.0
1664377597783,-0.033203125,0.20605469,0.9326172,0.0,-0.125,-0.15625,0.0,0.0,0.0
1664377597823,-0.03515625,0.21289062,0.9277344,-0.0625,-0.53125,-0.15625,0.0,0.0,0.0
1664377597823,-0.03515625,0.21289062,0.9277344,-0.0625,-0.53125,-0.15625,0.0,0.0,0.0
1664377597862,-0.043945312,0.20898438,0.9394531,0.0625,-0.1875,-0.34375,0.0,0.0,0.0
1664377597863,-0.043945312,0.20898438,0.9394531,0.0625,-0.1875,-0.34375,0.0,0.0,0.0
1664377597903,-0.0390625,0.2109375,0.9248047,-0.0625,-0.125,-0.28125,0.0,0.0,0.0
1664377597903,-0.0390625,0.2109375,0.9248047,-0.0625,-0.125,-0.28125,0.0,0.0,0.0
1664377597943,-0.03515625,0.20898438,0.93359375,-0.0625,-0.1875,-0.28125,0.0,0.0,0.0
1664377597942,-0.03515625,0.20898438,0.93359375,-0.0625,-0.1875,-0.28125,0.0,0.0,0.0
1664377597984,-0.038085938,0.203125,0.9316406,0.125,-0.1875,0.15625,0.0,0.0,0.0
1664377597984,-0.038085938,0.203125,0.9316406,0.125,-0.1875,0.15625,0.0,0.0,0.0
1664377598024,-0.029296875,0.21289062,0.9316406,-0.1875,0.3125,-0.28125,0.0,0.0,0.0
1664377598024,-0.029296875,0.21289062,0.9316406,-0.1875,0.3125,-0.28125,0.0,0.0,0.0
1664377598062,-0.037109375,0.21777344,0.9189453,0.0,0.0,-0.09375,0.0,0.0,0.0
1664377598062,-0.037109375,0.21777344,0.9189453,0.0,0.0,-0.09375,0.0,0.0,0.0
1664377598103,-0.03515625,0.21582031,0.92871094,0.0,-0.21875,-0.21875,0.0,0.0,0.0
1664377598103,-0.03515625,0.21582031,0.92871094,0.0,-0.21875,-0.21875,0.0,0.0,0.0
1664377598143,-0.0390625,0.2109375,0.9248047,-0.1875,-0.125,-0.53125,-25.5,11.75,-93.0625
1664377598143,-0.0390625,0.2109375,0.9248047,-0.1875,-0.125,-0.53125,-25.5,11.75,-93.0625
1664377598183,-0.029296875,0.21289062,0.94140625,-0.0625,-0.84375,-0.34375,0.0,0.0,0.0
1664377598183,-0.029296875,0.21289062,0.94140625,-0.0625,-0.84375,-0.34375,0.0,0.0,0.0
1664377598223,-0.026367188,0.20605469,0.9199219,0.1875,0.0,-0.46875,0.0,0.0,0.0
1664377598225,-0.026367188,0.20605469,0.9199219,0.1875,0.0,-0.46875,0.0,0.0,0.0
1664377598262,-0.04296875,0.21777344,0.9375,0.0,-0.21875,-0.21875,0.0,0.0,0.0
1664377598263,-0.04296875,0.21777344,0.9375,0.0,-0.21875,-0.21875,0.0,0.0,0.0
1664377598302,-0.026367188,0.21386719,0.9345703,-0.125,-0.40625,-0.46875,0.0,0.0,0.0
1664377598303,-0.026367188,0.21386719,0.9345703,-0.125,-0.40625,-0.46875,0.0,0.0,0.0
1664377598342,-0.028320312,0.21191406,0.9345703,-0.0625,-0.125,-0.40625,0.0,0.0,0.0
1664377598343,-0.028320312,0.21191406,0.9345703,-0.0625,-0.125,-0.40625,0.0,0.0,0.0
1664377598383,-0.03125,0.20410156,0.9316406,-0.0625,-0.40625,-0.21875,0.0,0.0,0.0
1664377598383,-0.03125,0.20410156,0.9316406,-0.0625,-0.40625,-0.21875,0.0,0.0,0.0
1664377598424,-0.02734375,0.20996094,0.92871094,-0.0625,-0.28125,-0.34375,0.0,0.0,0.0
1664377598424,-0.02734375,0.20996094,0.92871094,-0.0625,-0.28125,-0.34375,0.0,0.0,0.0
1664377598463,-0.028320312,0.2109375,0.9277344,0.0625,-0.1875,-0.53125,0.0,0.0,0.0
1664377598463,-0.028320312,0.2109375,0.9277344,0.0625,-0.1875,-0.53125,0.0,0.0,0.0
1664377598503,-0.037109375,0.21484375,0.9326172,-0.0625,-0.125,-0.46875,0.0,0.0,0.0
1664377598503,-0.037109375,0.21484375,0.9326172,-0.0625,-0.125,-0.46875,0.0,0.0,0.0
1664377598544,-0.03125,0.21484375,0.93847656,0.125,-0.46875,-0.34375,0.0,0.0,0.0
1664377598544,-0.03125,0.21484375,0.93847656,0.125,-0.46875,-0.34375,0.0,0.0,0.0
1664377598582,-0.029296875,0.20996094,0.92285156,-0.1875,-0.1875,-0.40625,0.0,0.0,0.0
1664377598583,-0.029296875,0.20996094,0.92285156,-0.1875,-0.1875,-0.40625,0.0,0.0,0.0
1664377598623,-0.032226562,0.2109375,0.9345703,0.0,-0.46875,0.03125,0.0,0.0,0.0
1664377598623,-0.032226562,0.2109375,0.9345703,0.0,-0.46875,0.03125,0.0,0.0,0.0
1664377598664,-0.02734375,0.21582031,0.9277344,0.0,0.25,-0.40625,-24.75,11.75,-93.0625
1664377598665,-0.02734375,0.21582031,0.9277344,0.0,0.25,-0.40625,-24.75,11.75,-93.0625
1664377598702,-0.034179688,0.21484375,0.94140625,0.0,0.5625,-0.65625,0.0,0.0,0.0
1664377598702,-0.034179688,0.21484375,0.94140625,0.0,0.5625,-0.65625,0.0,0.0,0.0
1664377598743,-0.0390625,0.20898438,0.9404297,0.1875,0.0,-0.40625,0.0,0.0,0.0
1664377598743,-0.0390625,0.20898438,0.9404297,0.1875,0.0,-0.40625,0.0,0.0,0.0
1664377598782,-0.040039062,0.22460938,0.9267578,-0.0625,-0.1875,-0.34375,0.0,0.0,0.0
1664377598782,-0.040039062,0.22460938,0.9267578,-0.0625,-0.1875,-0.34375,0.0,0.0,0.0
1664377598842,-0.037109375,0.20898438,0.9316406,-0.0625,-0.1875,-0.53125,0.0,0.0,0.0
1664377598842,-0.037109375,0.20898438,0.9316406,-0.0625,-0.1875,-0.53125,0.0,0.0,0.0
1664377598862,-0.029296875,0.2109375,0.9189453,-0.125,-0.1875,-0.59375,0.0,0.0,0.0
1664377598862,-0.029296875,0.2109375,0.9189453,-0.125,-0.1875,-0.59375,0.0,0.0,0.0
1664377598903,-0.032226562,0.21289062,0.9189453,-0.0625,-0.21875,-0.09375,0.0,0.0,0.0
1664377598903,-0.032226562,0.21289062,0.9189453,-0.0625,-0.21875,-0.09375,0.0,0.0,0.0
1664377598944,-0.028320312,0.22265625,0.9355469,0.125,0.25,-0.34375,0.0,0.0,0.0
1664377598944,-0.028320312,0.22265625,0.9355469,0.125,0.25,-0.34375,0.0,0.0,0.0
1664377598984,-0.037109375,0.21191406,0.91796875,-0.0625,-0.21875,-0.34375,0.0,0.0,0.0
1664377598984,-0.037109375,0.21191406,0.91796875,-0.0625,-0.21875,-0.34375,0.0,0.0,0.0
1664377599024,-0.03125,0.21289062,0.93652344,-0.125,-0.40625,-0.46875,0.0,0.0,0.0
1664377599023,-0.03125,0.21289062,0.93652344,-0.125,-0.40625,-0.46875,0.0,0.0,0.0
1664377599063,-0.033203125,0.20214844,0.9404297,0.0,-0.0625,-0.28125,0.0,0.0,0.0
1664377599063,-0.033203125,0.20214844,0.9404297,0.0,-0.0625,-0.28125,0.0,0.0,0.0
1664377599103,-0.036132812,0.20996094,0.9326172,-0.0625,-0.21875,-0.34375,0.0,0.0,0.0
1664377599103,-0.036132812,0.20996094,0.9326172,-0.0625,-0.21875,-0.34375,0.0,0.0,0.0
1664377599143,-0.03515625,0.21679688,0.94433594,-0.0625,-0.125,-0.34375,-26.25,11.0,-93.375
1664377599142,-0.03515625,0.21679688,0.94433594,-0.0625,-0.125,-0.34375,-26.25,11.0,-93.375
1664377599184,-0.034179688,0.20703125,0.92089844,-0.0625,-0.21875,-0.34375,0.0,0.0,0.0
1664377599184,-0.034179688,0.20703125,0.92089844,-0.0625,-0.21875,-0.34375,0.0,0.0,0.0
1664377599224,-0.033203125,0.21191406,0.9345703,0.0,0.1875,-0.6875,0.0,0.0,0.0
1664377599224,-0.033203125,0.21191406,0.9345703,0.0,0.1875,-0.6875,0.0,0.0,0.0
1664377599263,-0.03515625,0.20410156,0.9199219,0.0,-0.40625,-0.03125,0.0,0.0,0.0
1664377599263,-0.03515625,0.20410156,0.9199219,0.0,-0.40625,-0.03125,0.0,0.0,0.0
1664377599305,-0.020507812,0.20996094,0.9248047,-0.1875,0.0,-0.09375,0.0,0.0,0.0
1664377599306,-0.020507812,0.20996094,0.9248047,-0.1875,0.0,-0.09375,0.0,0.0,0.0
1664377599344,-0.04296875,0.21582031,0.9296875,0.0,0.0625,-0.15625,0.0,0.0,0.0
1664377599344,-0.04296875,0.21582031,0.9296875,0.0,0.0625,-0.15625,0.0,0.0,0.0
1664377599383,-0.03515625,0.21386719,0.91796875,-0.125,0.3125,-0.34375,0.0,0.0,0.0
1664377599383,-0.03515625,0.21386719,0.91796875,-0.125,0.3125,-0.34375,0.0,0.0,0.0
1664377599423,-0.028320312,0.20605469,0.9267578,-0.125,-0.21875,-0.03125,0.0,0.0,0.0
1664377599423,-0.028320312,0.20605469,0.9267578,-0.125,-0.21875,-0.03125,0.0,0.0,0.0
1664377599463,-0.036132812,0.20996094,0.9296875,0.0625,0.0625,-0.28125,0.0,0.0,0.0
1664377599463,-0.036132812,0.20996094,0.9296875,0.0625,0.0625,-0.28125,0.0,0.0,0.0
1664377599503,-0.036132812,0.20898438,0.93066406,0.0,-0.34375,-0.15625,0.0,0.0,0.0
1664377599502,-0.036132812,0.20898438,0.93066406,0.0,-0.34375,-0.15625,0.0,0.0,0.0
1664377599543,-0.030273438,0.20800781,0.94921875,-0.25,-0.0625,-0.34375,0.0,0.0,0.0
1664377599543,-0.030273438,0.20800781,0.94921875,-0.25,-0.0625,-0.34375,0.0,0.0,0.0
1664377599584,-0.033203125,0.21289062,0.9316406,-0.0625,-0.28125,0.09375,0.0,0.0,0.0
1664377599584,-0.033203125,0.21289062,0.9316406,-0.0625,-0.28125,0.09375,0.0,0.0,0.0
1664377599623,-0.037109375,0.2109375,0.92578125,-0.125,-0.21875,-0.21875,0.0,0.0,0.0
1664377599623,-0.037109375,0.2109375,0.92578125,-0.125,-0.21875,-0.21875,0.0,0.0,0.0
1664377599663,-0.03125,0.21484375,0.9404297,-0.125,0.0,-0.28125,-25.8125,10.6875,-92.3125
1664377599663,-0.03125,0.21484375,0.9404297,-0.125,0.0,-0.28125,-25.8125,10.6875,-92.3125
1664377599704,-0.040039062,0.20703125,0.93847656,0.0625,-0.21875,-0.28125,0.0,0.0,0.0
1664377599704,-0.040039062,0.20703125,0.93847656,0.0625,-0.21875,-0.28125,0.0,0.0,0.0
1664377599744,-0.033203125,0.20703125,0.9326172,0.0,0.0625,-0.09375,0.0,0.0,0.0
1664377599744,-0.033203125,0.20703125,0.9326172,0.0,0.0625,-0.09375,0.0,0.0,0.0
1664377599783,-0.032226562,0.20996094,0.9296875,-0.0625,-0.1875,-0.15625,0.0,0.0,0.0
1664377599783,-0.032226562,0.20996094,0.9296875,-0.0625,-0.1875,-0.15625,0.0,0.0,0.0
1664377599823,-0.037109375,0.20898438,0.93652344,-0.25,0.125,-0.21875,0.0,0.0,0.0
1664377599823,-0.037109375,0.20898438,0.93652344,-0.25,0.125,-0.21875,0.0,0.0,0.0
1664377599866,-0.032226562,0.2109375,0.93066406,0.125,-0.1875,0.03125,0.0,0.0,0.0
1664377599866,-0.032226562,0.2109375,0.93066406,0.125,-0.1875,0.03125,0.0,0.0,0.0
1664377599903,-0.029296875,0.21875,0.9277344,-0.1875,0.375,-0.21875,0.0,0.0,0.0
1664377599903,-0.029296875,0.21875,0.9277344,-0.1875,0.375,-0.21875,0.0,0.0,0.0
1664377599943,-0.038085938,0.20410156,0.91796875,0.0,-0.28125,0.15625,0.0,0.0,0.0
1664377599943,-0.038085938,0.20410156,0.91796875,0.0,-0.28125,0.15625,0.0,0.0,0.0
1664377599982,-0.034179688,0.21191406,0.9296875,0.125,0.3125,0.03125,0.0,0.0,0.0
1664377599983,-0.034179688,0.21191406,0.9296875,0.125,0.3125,0.03125,0.0,0.0,0.0
1664377600022,-0.030273438,0.20898438,0.9394531,-0.0625,0.125,0.09375,0.0,0.0,0.0
1664377600023,-0.030273438,0.20898438,0.9394531,-0.0625,0.125,0.09375,0.0,0.0,0.0
1664377600063,-0.036132812,0.21679688,0.921875,0.0,1.0625,-0.34375,0.0,0.0,0.0
1664377600063,-0.036132812,0.21679688,0.921875,0.0,1.0625,-0.34375,0.0,0.0,0.0
1664377600103,-0.036132812,0.20703125,0.94433594,0.0625,-0.40625,0.34375,0.0,0.0,0.0
1664377600103,-0.036132812,0.20703125,0.94433594,0.0625,-0.40625,0.34375,0.0,0.0,0.0
1664377600143,-0.045898438,0.20410156,0.9326172,0.0,0.25,-0.03125,-25.625,12.3125,-93.1875
1664377600143,-0.045898438,0.20410156,0.9326172,0.0,0.25,-0.03125,-25.625,12.3125,-93.1875
1664377600187,-0.028320312,0.21289062,0.9326172,0.1875,-0.34375,0.03125,0.0,0.0,0.0
1664377600187,-0.028320312,0.21289062,0.9326172,0.1875,-0.34375,0.03125,0.0,0.0,0.0
1664377600223,-0.02734375,0.20507812,0.92285156,-0.25,-0.0625,0.03125,0.0,0.0,0.0
1664377600225,-0.02734375,0.20507812,0.92285156,-0.25,-0.0625,0.03125,0.0,0.0,0.0
1664377600262,-0.032226562,0.20410156,0.9277344,0.375,0.0625,0.28125,0.0,0.0,0.0
1664377600263,-0.032226562,0.20410156,0.9277344,0.375,0.0625,0.28125,0.0,0.0,0.0
1664377600304,-0.033203125,0.20996094,0.921875,0.0,0.125,-0.03125,0.0,0.0,0.0
1664377600304,-0.033203125,0.20996094,0.921875,0.0,0.125,-0.03125,0.0,0.0,0.0
1664377600343,-0.028320312,0.20605469,0.92871094,-0.125,-0.1875,0.15625,0.0,0.0,0.0
1664377600343,-0.028320312,0.20605469,0.92871094,-0.125,-0.1875,0.15625,0.0,0.0,0.0
1664377600383,-0.037109375,0.20996094,0.90625,0.1875,0.0625,0.09375,0.0,0.0,0.0
1664377600383,-0.037109375,0.20996094,0.90625,0.1875,0.0625,0.09375,0.0,0.0,0.0
1664377600424,-0.037109375,0.20703125,0.9277344,0.125,0.3125,0.03125,0.0,0.0,0.0
1664377600424,-0.037109375,0.20703125,0.9277344,0.125,0.3125,0.03125,0.0,0.0,0.0
1664377600465,-0.03515625,0.20703125,0.93066406,0.0,-0.1875,0.03125,0.0,0.0,0.0
1664377600465,-0.03515625,0.20703125,0.93066406,0.0,-0.1875,0.03125,0.0,0.0,0.0
1664377600505,-0.029296875,0.21777344,0.92578125,0.1875,0.125,0.09375,0.0,0.0,0.0
1664377600505,-0.029296875,0.21777344,0.92578125,0.1875,0.125,0.09375,0.0,0.0,0.0
1664377600545,-0.043945312,0.20898438,0.9326172,0.125,0.1875,0.15625,0.0,0.0,0.0
1664377600544,-0.043945312,0.20898438,0.9326172,0.125,0.1875,0.15625,0.0,0.0,0.0
1664377600582,-0.03515625,0.21679688,0.9296875,0.1875,0.0625,-0.03125,0.0,0.0,0.0
1664377600582,-0.03515625,0.21679688,0.9296875,0.1875,0.0625,-0.03125,0.0,0.0,0.0
1664377600624,-0.034179688,0.21191406,0.9267578,0.0,-0.59375,0.28125,0.0,0.0,0.0
1664377600623,-0.034179688,0.21191406,0.9267578,0.0,-0.59375,0.28125,0.0,0.0,0.0
1664377600664,-0.033203125,0.22363281,0.94921875,-0.1875,0.0625,-0.03125,-25.625,10.0625,-93.5
1664377600664,-0.033203125,0.22363281,0.94921875,-0.1875,0.0625,-0.03125,-25.625,10.0625,-93.5
1664377600703,-0.037109375,0.21191406,0.9140625,0.25,-0.0625,0.09375,0.0,0.0,0.0
1664377600703,-0.037109375,0.21191406,0.9140625,0.25,-0.0625,0.09375,0.0,0.0,0.0
1664377600743,-0.034179688,0.21191406,0.9316406,-0.25,0.875,-0.21875,0.0,0.0,0.0
1664377600745,-0.034179688,0.21191406,0.9316406,-0.25,0.875,-0.21875,0.0,0.0,0.0
1664377600783,-0.036132812,0.21484375,0.9404297,-0.1875,-0.40625,0.28125,0.0,0.0,0.0
1664377600782,-0.036132812,0.21484375,0.9404297,-0.1875,-0.40625,0.28125,0.0,0.0,0.0
1664377600823,-0.033203125,0.20703125,0.94433594,0.1875,0.125,-0.15625,0.0,0.0,0.0
1664377600822,-0.033203125,0.20703125,0.94433594,0.1875,0.125,-0.15625,0.0,0.0,0.0
1664377600863,-0.029296875,0.20898438,0.9296875,0.1875,-0.34375,-0.09375,0.0,0.0,0.0
1664377600863,-0.029296875,0.20898438,0.9296875,0.1875,-0.34375,-0.09375,0.0,0.0,0.0
1664377600902,-0.03125,0.20507812,0.9316406,-0.125,-0.28125,-0.15625,0.0,0.0,0.0
1664377600902,-0.03125,0.20507812,0.9316406,-0.125,-0.28125,-0.15625,0.0,0.0,0.0
1664377600943,-0.036132812,0.2109375,0.91796875,0.0,-0.0625,0.21875,0.0,0.0,0.0
1664377600943,-0.036132812,0.2109375,0.91796875,0.0,-0.0625,0.21875,0.0,0.0,0.0
1664377600983,-0.029296875,0.19921875,0.9267578,0.0,-0.21875,0.09375,0.0,0.0,0.0
1664377600986,-0.029296875,0.19921875,0.9267578,0.0,-0.21875,0.09375,0.0,0.0,0.0
1664377601023,-0.0390625,0.21777344,0.9296875,0.0,0.25,-0.21875,0.0,0.0,0.0
1664377601023,-0.0390625,0.21777344,0.9296875,0.0,0.25,-0.21875,0.0,0.0,0.0
1664377601063,-0.036132812,0.2109375,0.9375,-0.0625,-0.46875,-0.03125,0.0,0.0,0.0
1664377601063,-0.036132812,0.2109375,0.9375,-0.0625,-0.46875,-0.03125,0.0,0.0,0.0
1664377601102,-0.040039062,0.21777344,0.92578125,0.125,0.125,-0.21875,0.0,0.0,0.0
1664377601102,-0.040039062,0.21777344,0.92578125,0.125,0.125,-0.21875,0.0,0.0,0.0
1664377601143,-0.03125,0.20996094,0.93359375,0.1875,-0.59375,-0.03125,-25.8125,11.0,-94.125
1664377601145,-0.03125,0.20996094,0.93359375,0.1875,-0.59375,-0.03125,-25.8125,11.0,-94.125
1664377601183,-0.03515625,0.21191406,0.9199219,0.0,0.125,-0.34375,0.0,0.0,0.0
1664377601183,-0.03515625,0.21191406,0.9199219,0.0,0.125,-0.34375,0.0,0.0,0.0
1664377601223,-0.03515625,0.21484375,0.9296875,0.0625,-0.46875,0.03125,0.0,0.0,0.0
1664377601223,-0.03515625,0.21484375,0.9296875,0.0625,-0.46875,0.03125,0.0,0.0,0.0
1664377601263,-0.032226562,0.20898438,0.9345703,-0.0625,-0.1875,-0.34375,0.0,0.0,0.0
1664377601263,-0.032226562,0.20898438,0.9345703,-0.0625,-0.1875,-0.34375,0.0,0.0,0.0
1664377601304,-0.0390625,0.20898438,0.91308594,0.25,-0.34375,0.15625,0.0,0.0,0.0
1664377601304,-0.0390625,0.20898438,0.91308594,0.25,-0.34375,0.15625,0.0,0.0,0.0
1664377601343,-0.029296875,0.20703125,0.9345703,-0.125,-0.125,-0.09375,0.0,0.0,0.0
1664377601343,-0.029296875,0.20703125,0.9345703,-0.125,-0.125,-0.09375,0.0,0.0,0.0
1664377601383,-0.03515625,0.20996094,0.9199219,0.125,0.375,-0.03125,0.0,0.0,0.0
1664377601383,-0.03515625,0.20996094,0.9199219,0.125,0.375,-0.03125,0.0,0.0,0.0
1664377601426,-0.03515625,0.20410156,0.9238281,0.0,0.4375,-0.46875,0.0,0.0,0.0
1664377601426,-0.03515625,0.20410156,0.9238281,0.0,0.4375,-0.46875,0.0,0.0,0.0
1664377601462,-0.040039062,0.20996094,0.93359375,-0.125,-0.28125,-0.15625,0.0,0.0,0.0
1664377601462,-0.040039062,0.20996094,0.93359375,-0.125,-0.28125,-0.15625,0.0,0.0,0.0
1664377601502,-0.033203125,0.21484375,0.9345703,0.0625,-0.40625,-0.34375,0.0,0.0,0.0
1664377601502,-0.033203125,0.21484375,0.9345703,0.0625,-0.40625,-0.34375,0.0,0.0,0.0
1664377601543,-0.032226562,0.20507812,0.9277344,0.125,0.25,-0.59375,0.0,0.0,0.0
1664377601543,-0.032226562,0.20507812,0.9277344,0.125,0.25,-0.59375,0.0,0.0,0.0
1664377601582,-0.029296875,0.20507812,0.92578125,0.0,-0.53125,-0.28125,0.0,0.0,0.0
1664377601582,-0.029296875,0.20507812,0.92578125,0.0,-0.53125,-0.28125,0.0,0.0,0.0
1664377601623,-0.025390625,0.20800781,0.9277344,0.0,-0.0625,-0.28125,0.0,0.0,0.0
1664377601623,-0.025390625,0.20800781,0.9277344,0.0,-0.0625,-0.28125,0.0,0.0,0.0
1664377601663,-0.038085938,0.21582031,0.92871094,0.0625,-0.28125,-0.09375,-25.625,11.875,-93.5
1664377601664,-0.038085938,0.21582031,0.92871094,0.0625,-0.28125,-0.09375,-25.625,11.875,-93.5
1664377601703,-0.036132812,0.19921875,0.9394531,0.0,0.0,-0.53125,0.0,0.0,0.0
