# Sensor type: Thingy
# Activity type: Walking at normal speed
# Activity code: 1
# Subject id: s1912558
# Notes: 
timestamp,accel_x,accel_y,accel_z,gyro_x,gyro_y,gyro_z,mag_x,mag_y,mag_z
1664565973392,-0.9638672,-0.07421875,-0.044921875,6.5625,-2.75,2.78125,0.0,0.0,0.0
1664565973432,-0.9501953,-0.06640625,-0.02734375,6.75,-4.78125,3.03125,0.0,0.0,0.0
1664565973472,-0.9638672,-0.052734375,-0.016601562,3.53125,-3.90625,2.90625,0.0,0.0,0.0
1664565973513,-0.95410156,-0.07324219,0.005859375,2.375,-5.625,3.09375,-59.25,-14.1875,-148.875
1664565973552,-0.94433594,-0.0703125,-0.020507812,-0.9375,-4.46875,1.8125,0.0,0.0,0.0
1664565973593,-0.9423828,-0.080078125,-0.013671875,-2.46875,-3.375,1.4375,0.0,0.0,0.0
1664565973652,-0.9394531,-0.06933594,-0.0390625,-3.0,1.4375,1.625,0.0,0.0,0.0
1664565973675,-0.9248047,-0.057617188,-0.048828125,-4.96875,6.46875,3.15625,0.0,0.0,0.0
1664565973712,-0.91015625,-0.076171875,-0.068359375,-5.3125,8.53125,5.71875,0.0,0.0,0.0
1664565973752,-0.86621094,-0.09277344,-0.080078125,-2.875,15.375,10.0,0.0,0.0,0.0
1664565973792,-0.94628906,-0.119140625,-0.11328125,7.75,26.78125,11.40625,0.0,0.0,0.0
1664565973832,-0.99902344,-0.13378906,-0.11425781,17.0,33.96875,11.40625,0.0,0.0,0.0
1664565973872,-0.9658203,-0.18847656,-0.1328125,20.0625,31.53125,8.96875,0.0,0.0,0.0
1664565973912,-0.96777344,-0.15625,-0.1171875,29.9375,34.15625,15.0,0.0,0.0,0.0
1664565973952,-0.9267578,-0.056640625,-0.12402344,24.28125,29.84375,16.46875,0.0,0.0,0.0
1664565973992,-0.91015625,-0.11816406,-0.14746094,12.0,31.53125,6.875,-59.375,-13.0,-149.75
1664565974032,-0.9013672,-0.13867188,-0.1640625,4.875,27.5,5.96875,0.0,0.0,0.0
1664565974072,-0.89746094,-0.115234375,-0.14941406,4.3125,23.96875,6.09375,0.0,0.0,0.0
1664565974112,-0.92089844,-0.103515625,-0.16113281,-4.21875,22.125,5.125,0.0,0.0,0.0
1664565974152,-0.89746094,-0.14257812,-0.15625,-7.34375,16.15625,4.6875,0.0,0.0,0.0
1664565974193,-0.89746094,-0.11230469,-0.171875,-7.9375,17.5625,2.375,0.0,0.0,0.0
1664565974232,-0.8925781,-0.14941406,-0.18066406,-13.8125,16.90625,0.53125,0.0,0.0,0.0
1664565974272,-0.94628906,-0.16796875,-0.18652344,-12.40625,17.875,6.34375,0.0,0.0,0.0
1664565974312,-0.96875,-0.19042969,-0.1875,-13.75,12.875,10.40625,0.0,0.0,0.0
1664565974352,-0.9785156,-0.16796875,-0.1875,-5.875,15.125,7.84375,0.0,0.0,0.0
1664565974413,-1.0751953,-0.203125,-0.13476562,-6.78125,0.28125,3.84375,0.0,0.0,0.0
1664565974432,-1.1220703,-0.26464844,-0.09082031,0.53125,-7.09375,4.1875,0.0,0.0,0.0
1664565974473,-1.1738281,-0.29492188,-0.05859375,11.34375,-14.125,7.3125,0.0,0.0,0.0
1664565974514,-1.0693359,-0.10253906,-0.41210938,60.03125,6.03125,-6.65625,-59.25,-12.125,-155.4375
1664565974552,-0.94140625,0.15039062,-0.53125,98.9375,22.625,-27.71875,0.0,0.0,0.0
1664565974593,-0.8095703,0.46679688,-0.7001953,57.84375,21.40625,-23.6875,0.0,0.0,0.0
1664565974632,-1.0498047,0.30566406,-0.4033203,-50.25,-58.25,-39.8125,0.0,0.0,0.0
1664565974673,-0.96191406,-0.24023438,-0.31152344,-62.09375,-51.90625,-12.78125,0.0,0.0,0.0
1664565974712,-0.90234375,-0.37109375,-0.14355469,1.6875,-39.9375,16.40625,0.0,0.0,0.0
1664565974752,-0.7871094,-0.14941406,-0.080078125,54.0,-33.40625,51.125,0.0,0.0,0.0
1664565974792,-0.67089844,0.0068359375,-0.08300781,48.5625,-27.96875,49.78125,0.0,0.0,0.0
1664565974834,-0.62597656,-0.01171875,-0.103515625,64.25,-20.59375,53.5,0.0,0.0,0.0
1664565974872,-0.6152344,0.115234375,0.03125,52.46875,-18.9375,36.375,0.0,0.0,0.0
1664565974912,-0.7832031,0.060546875,0.05078125,22.5625,-18.03125,16.46875,0.0,0.0,0.0
1664565974952,-0.98828125,-0.037109375,0.16015625,13.0,-0.375,1.03125,0.0,0.0,0.0
1664565974992,-1.2578125,-0.13183594,-0.005859375,33.5,8.28125,-1.65625,-61.8125,-9.25,-146.75
1664565975032,-1.3056641,0.032226562,0.10546875,14.5625,-0.25,-9.78125,0.0,0.0,0.0
1664565975072,-1.3037109,0.1015625,-0.40527344,9.875,22.875,-22.40625,0.0,0.0,0.0
1664565975113,-0.7871094,0.20703125,-0.453125,-14.71875,44.28125,-10.40625,0.0,0.0,0.0
1664565975172,-0.5234375,0.036132812,-0.64941406,-14.0,29.46875,21.78125,0.0,0.0,0.0
1664565975192,-1.0214844,-0.20117188,-0.27441406,-5.3125,-16.8125,23.375,0.0,0.0,0.0
1664565975233,-0.94921875,0.087890625,-0.4248047,46.4375,53.6875,14.5625,0.0,0.0,0.0
1664565975272,-0.9667969,0.40234375,-0.22265625,-12.03125,37.71875,-8.4375,0.0,0.0,0.0
1664565975313,-0.71191406,0.13574219,-0.1796875,-63.5625,8.28125,-40.84375,0.0,0.0,0.0
1664565975353,-0.6386719,-0.046875,-0.296875,-49.5625,24.34375,-36.09375,0.0,0.0,0.0
1664565975392,-0.6738281,-0.0390625,-0.19140625,-53.84375,10.90625,-10.03125,0.0,0.0,0.0
1664565975433,-0.7626953,0.0029296875,-0.14550781,-75.53125,-7.15625,1.4375,0.0,0.0,0.0
1664565975474,-0.94140625,-0.064453125,-0.14648438,-81.0625,-9.90625,4.4375,0.0,0.0,0.0
1664565975512,-1.2939453,-0.30078125,-0.16894531,-69.71875,-17.78125,-5.21875,-60.4375,-10.9375,-154.875
1664565975552,-1.4375,-0.58203125,-0.041015625,-27.34375,-13.625,-15.625,0.0,0.0,0.0
1664565975592,-1.2763672,-0.3515625,-0.16503906,38.625,-18.8125,-12.40625,0.0,0.0,0.0
1664565975632,-0.8125,0.3408203,-0.7285156,129.9375,55.59375,-43.03125,0.0,0.0,0.0
1664565975672,-0.9873047,0.56640625,-0.86328125,81.03125,26.09375,-37.0625,0.0,0.0,0.0
1664565975712,-1.2167969,0.3544922,-0.57421875,-74.59375,-41.6875,-53.71875,0.0,0.0,0.0
1664565975752,-1.0380859,-0.24414062,-0.26464844,-79.71875,-37.84375,-4.90625,0.0,0.0,0.0
1664565975793,-0.87402344,-0.45410156,-0.041015625,2.25,-40.1875,30.125,0.0,0.0,0.0
1664565975833,-0.6582031,-0.15722656,-0.08496094,62.0,-35.59375,51.8125,0.0,0.0,0.0
1664565975873,-0.5625,-0.020507812,-0.04296875,104.46875,-19.53125,65.28125,0.0,0.0,0.0
1664565975933,-0.56347656,0.119140625,-0.043945312,82.875,-29.875,52.15625,0.0,0.0,0.0
1664565975952,-0.5917969,0.07714844,0.11328125,55.65625,-33.46875,26.09375,0.0,0.0,0.0
1664565975993,-0.7763672,0.06347656,0.028320312,45.75,-3.96875,-2.75,-64.5,-10.9375,-146.3125
1664565976033,-1.4033203,-0.020507812,-0.24414062,68.09375,20.8125,-7.21875,0.0,0.0,0.0
1664565976073,-1.3076172,0.30664062,0.12109375,9.625,-4.40625,1.625,0.0,0.0,0.0
1664565976113,-1.4414062,0.125,-0.5263672,-9.78125,37.53125,-23.875,0.0,0.0,0.0
1664565976153,-0.96875,0.14355469,-0.4873047,-22.65625,40.875,20.0625,0.0,0.0,0.0
1664565976193,-0.6464844,0.055664062,-0.71484375,-26.25,27.5,21.40625,0.0,0.0,0.0
1664565976233,-1.0361328,-0.36132812,-0.33496094,9.625,-8.25,6.03125,0.0,0.0,0.0
1664565976273,-0.9394531,0.15234375,-0.4716797,50.875,78.71875,-34.3125,0.0,0.0,0.0
1664565976312,-0.8144531,0.546875,-0.2890625,-13.5,38.25,-32.3125,0.0,0.0,0.0
1664565976352,-0.57128906,0.06347656,-0.25195312,-86.8125,3.34375,-40.65625,0.0,0.0,0.0
1664565976393,-0.5878906,-0.015625,-0.2626953,-96.5625,6.625,-36.8125,0.0,0.0,0.0
1664565976435,-0.6230469,-0.15917969,-0.13964844,-103.21875,-24.6875,-17.84375,0.0,0.0,0.0
1664565976473,-0.7607422,-0.125,-0.12792969,-87.46875,-4.53125,4.5,0.0,0.0,0.0
1664565976512,-1.1015625,-0.0859375,-0.23828125,-87.84375,-1.53125,5.1875,-58.625,-11.5,-154.875
1664565976553,-1.2167969,-0.51464844,0.046875,-65.875,-33.71875,-3.875,0.0,0.0,0.0
1664565976592,-1.3994141,-0.58691406,-0.080078125,13.71875,3.78125,-2.625,0.0,0.0,0.0
1664565976632,-1.1787109,-0.14355469,-0.42773438,92.875,2.5,-4.40625,0.0,0.0,0.0
1664565976693,-0.65625,0.47070312,-0.75878906,142.5,53.4375,-39.625,0.0,0.0,0.0
1664565976712,-1.0009766,0.66015625,-0.88964844,56.75,36.96875,-52.3125,0.0,0.0,0.0
1664565976753,-1.3730469,0.21582031,-0.6513672,-88.9375,-61.46875,-57.375,0.0,0.0,0.0
1664565976792,-1.0800781,-0.2607422,-0.27246094,-76.25,-37.0625,-0.8125,0.0,0.0,0.0
1664565976832,-0.859375,-0.48242188,-0.068359375,-3.90625,-37.3125,23.0625,0.0,0.0,0.0
1664565976872,-0.68066406,-0.24414062,-0.10839844,68.46875,-40.25,63.03125,0.0,0.0,0.0
1664565976913,-0.5419922,0.0078125,-0.05859375,67.125,-39.1875,75.78125,0.0,0.0,0.0
1664565976952,-0.4736328,0.02734375,-0.09765625,85.25,-32.96875,58.21875,0.0,0.0,0.0
1664565976993,-0.51171875,0.11816406,0.01171875,74.6875,-52.5,34.03125,-61.375,-10.3125,-147.5
1664565977035,-0.72558594,0.048828125,0.16992188,49.4375,-24.4375,3.90625,0.0,0.0,0.0
1664565977073,-1.5322266,0.08496094,-0.18164062,48.6875,27.03125,5.96875,0.0,0.0,0.0
1664565977115,-1.3642578,0.19726562,0.14453125,-3.1875,-0.4375,5.46875,0.0,0.0,0.0
1664565977152,-1.3369141,0.09667969,-0.43652344,-18.5625,29.65625,-25.34375,0.0,0.0,0.0
1664565977192,-0.95703125,0.17773438,-0.47070312,-23.09375,27.625,19.21875,0.0,0.0,0.0
1664565977233,-0.77441406,0.013671875,-0.7519531,-13.5625,13.84375,38.6875,0.0,0.0,0.0
1664565977272,-0.890625,-0.171875,-0.23144531,15.96875,-22.53125,6.40625,0.0,0.0,0.0
1664565977313,-0.93847656,0.15234375,-0.40625,40.625,63.59375,-27.1875,0.0,0.0,0.0
1664565977352,-0.9472656,0.4970703,-0.23535156,-18.21875,53.625,-26.625,0.0,0.0,0.0
1664565977393,-0.6894531,0.0146484375,-0.25976562,-89.84375,14.625,-53.3125,0.0,0.0,0.0
1664565977453,-0.5576172,-0.076171875,-0.25585938,-84.78125,23.84375,-53.78125,0.0,0.0,0.0
1664565977473,-0.609375,-0.12597656,-0.12402344,-97.90625,-21.75,-21.875,0.0,0.0,0.0
1664565977513,-0.84472656,-0.10449219,-0.1015625,-79.4375,-23.9375,10.71875,-60.4375,-11.5,-152.4375
1664565977552,-1.0839844,-0.09472656,-0.17578125,-66.59375,-5.9375,23.0625,0.0,0.0,0.0
1664565977593,-1.1806641,-0.3642578,0.0087890625,-57.6875,-20.65625,10.65625,0.0,0.0,0.0
1664565977632,-1.3203125,-0.5058594,-0.001953125,10.40625,9.5625,-6.96875,0.0,0.0,0.0
1664565977673,-1.2050781,-0.23144531,-0.17382812,72.5625,2.5625,-14.90625,0.0,0.0,0.0
1664565977713,-0.84375,0.5097656,-0.83496094,162.59375,74.875,-45.71875,0.0,0.0,0.0
1664565977753,-1.0546875,0.64941406,-0.9042969,92.03125,55.90625,-45.90625,0.0,0.0,0.0
1664565977793,-1.375,0.12988281,-0.6904297,-63.1875,-70.6875,-55.625,0.0,0.0,0.0
1664565977832,-1.1689453,-0.20019531,-0.19238281,-74.28125,-61.40625,-7.53125,0.0,0.0,0.0
1664565977872,-0.75097656,-0.46484375,-0.059570312,-6.0,-27.46875,18.34375,0.0,0.0,0.0
1664565977913,-0.5800781,-0.22265625,-0.16699219,64.1875,-25.09375,59.125,0.0,0.0,0.0
1664565977953,-0.53222656,-0.036132812,-0.1015625,63.40625,-31.3125,61.8125,0.0,0.0,0.0
1664565977993,-0.4658203,0.08203125,-0.06738281,74.4375,-36.03125,64.125,-61.5,-10.4375,-149.0
1664565978032,-0.53222656,0.09375,0.078125,47.78125,-53.40625,28.5,0.0,0.0,0.0
1664565978073,-0.68066406,0.046875,0.013671875,51.25,1.875,-7.71875,0.0,0.0,0.0
1664565978112,-1.5126953,-0.06347656,-0.18847656,58.03125,21.53125,-11.0625,0.0,0.0,0.0
1664565978153,-1.3242188,0.3330078,0.03125,4.0,-3.0,5.65625,0.0,0.0,0.0
1664565978213,-1.8007812,0.265625,-0.50878906,-41.8125,16.03125,0.03125,0.0,0.0,0.0
1664565978232,-0.59765625,0.0390625,-0.39160156,-46.28125,29.09375,34.78125,0.0,0.0,0.0
1664565978273,-0.7421875,-0.23535156,-0.3935547,-20.84375,5.53125,-0.4375,0.0,0.0,0.0
1664565978312,-0.94433594,-0.14941406,-0.45410156,74.21875,64.9375,4.125,0.0,0.0,0.0
1664565978355,-0.94628906,0.43066406,-0.41601562,42.40625,68.28125,-16.96875,0.0,0.0,0.0
1664565978393,-0.7294922,0.31835938,-0.23144531,-29.8125,27.28125,-43.40625,0.0,0.0,0.0
1664565978432,-0.61816406,-0.026367188,-0.33691406,-49.28125,31.46875,-49.6875,0.0,0.0,0.0
1664565978473,-0.5488281,-0.061523438,-0.2685547,-73.1875,5.53125,-28.6875,0.0,0.0,0.0
1664565978512,-0.7128906,-0.11621094,-0.18945312,-76.625,-10.40625,-9.125,-58.0625,-11.8125,-151.5625
1664565978553,-0.91503906,0.017578125,-0.19335938,-76.8125,-6.53125,9.03125,0.0,0.0,0.0
1664565978593,-1.0087891,-0.09765625,-0.1171875,-79.78125,-24.1875,6.40625,0.0,0.0,0.0
1664565978633,-1.2490234,-0.3984375,-0.025390625,-67.09375,-33.78125,-21.75,0.0,0.0,0.0
1664565978673,-1.3408203,-0.6894531,-0.04296875,3.28125,-17.34375,-17.15625,0.0,0.0,0.0
1664565978713,-0.9941406,-0.17480469,-0.453125,104.90625,1.4375,-12.09375,0.0,0.0,0.0
1664565978753,-0.5605469,0.3486328,-0.80078125,168.8125,76.21875,-27.59375,0.0,0.0,0.0
1664565978793,-1.1621094,0.6660156,-0.9589844,61.09375,41.0,-44.21875,0.0,0.0,0.0
1664565978832,-1.3603516,0.22851562,-0.4892578,-67.28125,-64.03125,-40.71875,0.0,0.0,0.0
1664565978873,-0.9921875,-0.18359375,-0.17285156,-66.84375,-37.125,-2.15625,0.0,0.0,0.0
1664565978913,-0.78222656,-0.46679688,-0.12109375,11.65625,-35.21875,20.8125,0.0,0.0,0.0
1664565978972,-0.6542969,-0.15722656,-0.19433594,78.15625,-21.5,60.46875,0.0,0.0,0.0
1664565978993,-0.53808594,0.051757812,-0.080078125,65.59375,-25.78125,56.1875,-58.8125,-13.9375,-148.875
1664565979033,-0.55371094,0.19628906,-0.020507812,51.25,-45.96875,57.125,0.0,0.0,0.0
1664565979072,-0.49023438,0.026367188,0.08203125,38.0,-45.84375,26.21875,0.0,0.0,0.0
1664565979113,-0.7734375,-0.09863281,-0.059570312,43.375,-6.0,3.46875,0.0,0.0,0.0
1664565979152,-1.5332031,-0.01171875,-0.123046875,75.71875,6.8125,14.9375,0.0,0.0,0.0
1664565979194,-1.28125,0.50097656,0.171875,0.28125,-16.5,16.65625,0.0,0.0,0.0
1664565979233,-1.7509766,0.18945312,-0.47460938,-29.3125,5.40625,-9.34375,0.0,0.0,0.0
1664565979275,-0.7216797,0.08886719,-0.6513672,-49.28125,26.71875,27.8125,0.0,0.0,0.0
1664565979312,-0.58496094,-0.12597656,-0.3486328,-36.6875,-9.0,0.59375,0.0,0.0,0.0
1664565979353,-1.0078125,-0.19042969,-0.31933594,63.9375,36.4375,-1.53125,0.0,0.0,0.0
1664565979393,-0.99316406,0.4013672,-0.41992188,49.4375,67.5,-22.28125,0.0,0.0,0.0
1664565979433,-0.6982422,0.48339844,-0.19238281,-42.875,48.5,-44.28125,0.0,0.0,0.0
1664565979472,-0.51171875,0.0126953125,-0.26171875,-91.09375,9.125,-53.1875,0.0,0.0,0.0
1664565979513,-0.5566406,-0.13671875,-0.35058594,-50.6875,37.875,-35.21875,-58.375,-13.3125,-150.375
1664565979553,-0.77441406,-0.08691406,-0.16992188,-84.71875,-18.875,0.65625,0.0,0.0,0.0
1664565979593,-0.9667969,-0.0107421875,-0.12792969,-67.53125,-6.3125,14.28125,0.0,0.0,0.0
1664565979633,-1.1103516,-0.1640625,-0.12109375,-75.21875,-11.78125,1.875,0.0,0.0,0.0
1664565979673,-1.2529297,-0.44335938,0.00390625,-35.0625,-17.90625,-12.40625,0.0,0.0,0.0
1664565979734,-1.3466797,-0.5410156,-0.05859375,15.4375,-11.5,-18.21875,0.0,0.0,0.0
1664565979752,-0.9921875,0.1484375,-0.7285156,126.625,24.28125,-24.5,0.0,0.0,0.0
1664565979793,-0.671875,0.45410156,-0.7402344,142.625,72.25,-41.65625,0.0,0.0,0.0
1664565979833,-1.2216797,0.5839844,-0.82910156,-3.625,3.21875,-56.96875,0.0,0.0,0.0
1664565979873,-1.1572266,0.099609375,-0.4794922,-91.9375,-49.6875,-43.03125,0.0,0.0,0.0
1664565979915,-0.97265625,-0.37695312,-0.13769531,-64.09375,-29.375,2.65625,0.0,0.0,0.0
1664565979952,-0.6660156,-0.421875,-0.1484375,26.78125,-38.21875,40.875,0.0,0.0,0.0
1664565979993,-0.6347656,0.0126953125,-0.064453125,69.125,-35.59375,74.875,-60.0,-13.1875,-152.3125
1664565980033,-0.43945312,-0.0126953125,-0.18945312,57.0,-18.03125,62.25,0.0,0.0,0.0
1664565980073,-0.5527344,0.10546875,-0.018554688,57.84375,-40.78125,44.65625,0.0,0.0,0.0
1664565980113,-0.7832031,0.11035156,0.08496094,42.28125,-30.84375,23.0,0.0,0.0,0.0
1664565980153,-1.2246094,-0.057617188,0.07714844,30.125,8.15625,-1.84375,0.0,0.0,0.0
1664565980193,-1.4345703,0.09375,0.015625,18.53125,-3.1875,21.34375,0.0,0.0,0.0
1664565980233,-1.1816406,0.12402344,0.24121094,-27.1875,-20.9375,-9.84375,0.0,0.0,0.0
1664565980273,-1.421875,0.07421875,-0.52246094,2.59375,31.53125,-12.90625,0.0,0.0,0.0
1664565980313,-0.63183594,0.028320312,-0.6015625,-1.53125,41.5,26.21875,0.0,0.0,0.0
1664565980352,-0.7705078,0.02734375,-0.59375,-19.59375,-11.125,40.21875,0.0,0.0,0.0
1664565980393,-0.91015625,-0.044921875,-0.22363281,46.375,34.59375,0.03125,0.0,0.0,0.0
1664565980432,-0.91796875,0.31152344,-0.35742188,14.9375,69.0,-47.125,0.0,0.0,0.0
1664565980493,-0.85058594,0.35253906,-0.28808594,-49.09375,54.0625,-48.1875,0.0,0.0,0.0
1664565980512,-0.6269531,-0.09082031,-0.052734375,-96.4375,4.125,-45.71875,-61.1875,-12.5625,-151.875
1664565980553,-0.49902344,-0.03125,-0.22949219,-85.84375,7.375,-23.8125,0.0,0.0,0.0
1664565980593,-0.74609375,-0.15136719,-0.08300781,-79.25,-8.6875,-7.34375,0.0,0.0,0.0
1664565980632,-0.9296875,-0.06738281,-0.21582031,-67.21875,1.28125,10.96875,0.0,0.0,0.0
1664565980673,-1.1699219,-0.19433594,-0.140625,-73.875,-17.59375,12.625,0.0,0.0,0.0
1664565980713,-1.3632812,-0.58203125,-0.047851562,-21.3125,-16.9375,-21.5,0.0,0.0,0.0
1664565980753,-1.3408203,-0.43847656,-0.068359375,25.0625,-13.03125,-11.96875,0.0,0.0,0.0
1664565980793,-0.8417969,0.16503906,-0.7011719,127.84375,23.0,-29.0625,0.0,0.0,0.0
1664565980833,-0.75683594,0.49414062,-0.74121094,127.375,37.65625,-25.15625,0.0,0.0,0.0
1664565980873,-1.0888672,0.5205078,-0.6796875,0.03125,-6.1875,-43.53125,0.0,0.0,0.0
1664565980913,-1.2001953,0.109375,-0.3720703,-58.5,-35.0,-32.5,0.0,0.0,0.0
1664565980952,-0.9433594,-0.29296875,-0.17480469,-40.90625,-20.9375,5.59375,0.0,0.0,0.0
1664565980993,-0.55371094,-0.41992188,-0.16601562,25.9375,-41.09375,37.28125,-59.5625,-16.0,-153.0625
1664565981033,-0.60839844,0.07421875,-0.013671875,63.15625,-40.65625,72.90625,0.0,0.0,0.0
1664565981073,-0.3466797,0.052734375,-0.14453125,78.84375,-11.4375,66.21875,0.0,0.0,0.0
1664565981113,-0.6220703,0.056640625,-0.034179688,62.84375,-34.9375,40.15625,0.0,0.0,0.0
1664565981153,-1.0,-0.013671875,-0.038085938,53.625,-9.21875,20.0625,0.0,0.0,0.0
1664565981193,-1.1279297,0.17675781,0.021484375,34.46875,17.125,-7.71875,0.0,0.0,0.0
1664565981253,-1.3222656,0.32226562,-0.041992188,14.4375,5.53125,5.46875,0.0,0.0,0.0
1664565981272,-1.0107422,-0.00390625,0.021484375,-40.40625,-29.0625,-16.5625,0.0,0.0,0.0
1664565981313,-1.25,-0.0029296875,-0.6455078,5.90625,18.65625,6.15625,0.0,0.0,0.0
1664565981353,-0.70214844,0.15234375,-0.8017578,-11.3125,43.6875,50.03125,0.0,0.0,0.0
1664565981393,-0.8154297,-0.024414062,-0.27539062,-29.25,-47.0,18.21875,0.0,0.0,0.0
1664565981432,-1.0419922,-0.20703125,-0.35253906,41.375,49.25,-34.5,0.0,0.0,0.0
1664565981475,-1.0234375,0.234375,-0.44726562,12.3125,69.75,-32.0,0.0,0.0,0.0
1664565981513,-0.82910156,0.30566406,-0.22851562,-47.25,31.59375,-38.15625,-60.125,-12.5625,-151.125
1664565981553,-0.56640625,0.041015625,-0.31347656,-79.96875,12.0,-51.65625,0.0,0.0,0.0
1664565981593,-0.54003906,-0.14257812,-0.24609375,-77.71875,15.125,-34.25,0.0,0.0,0.0
1664565981633,-0.6855469,-0.051757812,-0.21972656,-83.5,-16.75,-1.53125,0.0,0.0,0.0
1664565981673,-0.8876953,-0.0625,-0.17578125,-87.90625,-0.75,15.78125,0.0,0.0,0.0
1664565981732,-1.1298828,-0.21777344,-0.06347656,-96.28125,-31.25,5.21875,0.0,0.0,0.0
1664565981752,-1.2646484,-0.7402344,-0.06347656,-7.40625,-16.0625,-21.9375,0.0,0.0,0.0
1664565981795,-1.3261719,-0.43554688,-0.041992188,38.8125,-15.28125,-12.03125,0.0,0.0,0.0
1664565981833,-0.8769531,0.30078125,-0.7470703,134.4375,39.34375,-33.78125,0.0,0.0,0.0
1664565981873,-1.0380859,0.60253906,-0.93359375,108.03125,58.9375,-42.25,0.0,0.0,0.0
1664565981913,-1.1835938,0.40625,-0.77734375,-37.3125,-27.53125,-46.84375,0.0,0.0,0.0
1664565981953,-1.1171875,-0.005859375,-0.36035156,-74.71875,-26.3125,-20.03125,0.0,0.0,0.0
1664565982013,-0.8984375,-0.50097656,-0.16210938,-23.8125,-30.90625,14.09375,-56.5625,-14.8125,-156.375
1664565982033,-0.5703125,-0.3232422,-0.11230469,41.4375,-39.375,58.21875,0.0,0.0,0.0
1664565982075,-0.5810547,0.14453125,-0.025390625,68.40625,-27.53125,75.71875,0.0,0.0,0.0
1664565982113,-0.43164062,-0.013671875,-0.1640625,61.6875,-21.0,74.5625,0.0,0.0,0.0
1664565982155,-0.72558594,-0.021484375,0.025390625,37.65625,-54.34375,40.5625,0.0,0.0,0.0
1664565982193,-0.8701172,-0.03515625,0.21191406,53.03125,-37.25,15.78125,0.0,0.0,0.0
1664565982233,-1.2509766,0.043945312,-0.10058594,70.46875,17.1875,5.96875,0.0,0.0,0.0
1664565982273,-1.2207031,0.35742188,0.0,35.3125,-7.875,11.65625,0.0,0.0,0.0
1664565982313,-1.0117188,0.19433594,-0.13183594,-18.21875,-5.3125,-19.375,0.0,0.0,0.0
1664565982353,-1.3095703,0.1015625,-0.71972656,-11.90625,23.1875,16.40625,0.0,0.0,0.0
1664565982395,-0.68066406,-0.0078125,-0.7714844,-25.78125,16.84375,42.65625,0.0,0.0,0.0
1664565982433,-0.8496094,-0.16699219,-0.16113281,-16.0,-35.125,-1.3125,0.0,0.0,0.0
1664565982475,-0.96777344,-0.06640625,-0.48046875,57.25,64.6875,-38.84375,0.0,0.0,0.0
1664565982513,-0.8544922,0.44628906,-0.3720703,2.3125,58.875,-37.25,-61.9375,-12.5625,-148.6875
1664565982553,-0.81152344,0.2890625,-0.26171875,-55.8125,26.40625,-43.96875,0.0,0.0,0.0
1664565982593,-0.64453125,-0.087890625,-0.2578125,-95.53125,10.59375,-44.09375,0.0,0.0,0.0
1664565982633,-0.5644531,-0.18457031,-0.19824219,-100.40625,0.84375,-20.53125,0.0,0.0,0.0
1664565982673,-0.71875,-0.13476562,-0.22265625,-76.5625,8.46875,-1.0,0.0,0.0,0.0
1664565982713,-0.95214844,-0.022460938,-0.26757812,-72.40625,11.875,10.3125,0.0,0.0,0.0
1664565982773,-1.1660156,-0.1484375,-0.09472656,-91.75,-37.4375,-0.0625,0.0,0.0,0.0
1664565982793,-1.1748047,-0.77246094,0.08300781,-31.4375,-24.125,-27.1875,0.0,0.0,0.0
1664565982833,-1.265625,-0.45898438,-0.16699219,45.75,0.46875,-3.3125,0.0,0.0,0.0
1664565982873,-0.90234375,0.34765625,-0.6826172,135.96875,47.78125,-28.875,0.0,0.0,0.0
1664565982913,-0.99609375,0.51953125,-0.9482422,120.46875,68.03125,-53.25,0.0,0.0,0.0
1664565982953,-1.2568359,0.5830078,-0.65234375,-55.8125,-69.65625,-59.78125,0.0,0.0,0.0
1664565982993,-1.1308594,-0.26367188,-0.35058594,-88.03125,-32.4375,-37.3125,-56.875,-18.6875,-154.5625
1664565983035,-0.92871094,-0.52246094,-0.111328125,-28.21875,-44.875,19.09375,0.0,0.0,0.0
1664565983075,-0.5390625,-0.2919922,-0.1640625,62.65625,-33.28125,70.53125,0.0,0.0,0.0
1664565983114,-0.57128906,0.14941406,-0.09765625,105.625,-19.0,96.59375,0.0,0.0,0.0
1664565983153,-0.4794922,0.10546875,-0.09765625,62.3125,-29.9375,59.625,0.0,0.0,0.0
1664565983193,-0.69628906,0.07324219,-0.01171875,61.625,-63.5625,25.1875,0.0,0.0,0.0
1664565983233,-0.6484375,0.064453125,0.044921875,44.0,-34.6875,-11.4375,0.0,0.0,0.0
1664565983273,-1.3134766,0.028320312,-0.05859375,34.71875,14.625,-8.5625,0.0,0.0,0.0
1664565983315,-1.4033203,0.119140625,0.013671875,6.28125,-11.0,8.71875,0.0,0.0,0.0
1664565983355,-1.0429688,0.043945312,0.14648438,-43.03125,-17.65625,-10.5625,0.0,0.0,0.0
1664565983395,-1.3339844,-0.07519531,-0.54589844,11.8125,11.40625,10.40625,0.0,0.0,0.0
1664565983433,-0.8105469,-0.056640625,-0.609375,-14.65625,34.78125,45.8125,0.0,0.0,0.0
1664565983473,-0.9091797,0.06640625,-0.45507812,1.6875,-4.15625,28.90625,0.0,0.0,0.0
1664565983533,-0.86816406,0.08105469,-0.3779297,43.4375,44.46875,-32.65625,-61.8125,-12.4375,-149.125
1664565983553,-0.7890625,0.2783203,-0.23535156,6.46875,25.875,-51.65625,0.0,0.0,0.0
1664565983594,-0.8095703,0.111328125,-0.32617188,-49.15625,33.5,-33.53125,0.0,0.0,0.0
1664565983633,-0.4404297,-0.119140625,-0.13671875,-77.59375,12.9375,-36.15625,0.0,0.0,0.0
1664565983675,-0.62890625,-0.036132812,-0.19628906,-80.03125,-0.5625,-7.8125,0.0,0.0,0.0
1664565983715,-0.81347656,0.020507812,-0.057617188,-64.84375,-6.53125,7.5625,0.0,0.0,0.0
1664565983753,-1.0947266,-0.026367188,-0.27539062,-75.53125,19.40625,21.84375,0.0,0.0,0.0
1664565983793,-1.2431641,-0.20019531,-0.16308594,-100.84375,-22.53125,13.96875,0.0,0.0,0.0
1664565983833,-1.2265625,-0.7470703,-0.040039062,-37.4375,-14.90625,-27.90625,0.0,0.0,0.0
1664565983872,-1.2470703,-0.4345703,-0.125,37.21875,-7.15625,-23.28125,0.0,0.0,0.0
1664565983913,-0.875,0.3173828,-0.6464844,133.15625,52.34375,-41.15625,0.0,0.0,0.0
1664565983953,-1.1064453,0.7597656,-0.8720703,94.28125,39.0,-40.3125,0.0,0.0,0.0
1664565983993,-1.2373047,0.359375,-0.52734375,-52.875,-54.65625,-56.09375,-57.4375,-17.8125,-153.0625
1664565984033,-1.1513672,-0.19433594,-0.2763672,-58.4375,-37.0,-21.25,0.0,0.0,0.0
1664565984073,-0.9404297,-0.44335938,-0.13476562,-3.375,-28.21875,21.21875,0.0,0.0,0.0
1664565984114,-0.5830078,-0.13671875,-0.1328125,75.59375,-0.4375,57.59375,0.0,0.0,0.0
1664565984153,-0.42285156,0.045898438,-0.0546875,67.5,-19.96875,74.09375,0.0,0.0,0.0
1664565984193,-0.5917969,0.060546875,-0.0625,42.21875,-39.625,59.1875,0.0,0.0,0.0
1664565984233,-0.64941406,-0.08984375,0.05859375,49.4375,-37.96875,31.71875,0.0,0.0,0.0
1664565984293,-0.81933594,0.052734375,0.030273438,31.1875,-21.4375,10.53125,0.0,0.0,0.0
1664565984313,-1.1591797,0.0078125,-0.15820312,50.46875,21.28125,-11.3125,0.0,0.0,0.0
1664565984353,-1.4238281,0.19140625,-0.049804688,27.15625,8.09375,15.625,0.0,0.0,0.0
1664565984393,-1.1083984,0.07714844,0.01171875,-27.0,-6.5,-11.78125,0.0,0.0,0.0
1664565984433,-1.2451172,0.07519531,-0.59375,-14.1875,23.46875,-5.3125,0.0,0.0,0.0
1664565984473,-0.54785156,0.05078125,-0.546875,-10.15625,41.125,35.9375,0.0,0.0,0.0
1664565984513,-0.86816406,-0.034179688,-0.6923828,-19.1875,-21.9375,32.8125,-61.9375,-14.375,-149.75
1664565984553,-0.89160156,-0.1015625,-0.3173828,50.8125,44.34375,-14.78125,0.0,0.0,0.0
1664565984593,-0.8496094,0.33789062,-0.40722656,2.5,57.53125,-31.9375,0.0,0.0,0.0
1664565984633,-0.86328125,0.20117188,-0.34179688,-48.46875,43.5625,-28.875,0.0,0.0,0.0
1664565984675,-0.54785156,0.0546875,-0.3359375,-90.65625,3.21875,-45.78125,0.0,0.0,0.0
1664565984713,-0.5644531,-0.08105469,-0.18652344,-104.9375,-12.78125,-27.65625,0.0,0.0,0.0
1664565984753,-0.7363281,-0.18652344,0.001953125,-89.75,-9.34375,-1.3125,0.0,0.0,0.0
1664565984793,-0.98339844,-0.064453125,-0.34375,-65.875,22.875,8.21875,0.0,0.0,0.0
1664565984833,-1.2382812,-0.359375,0.057617188,-101.15625,-40.3125,-2.625,0.0,0.0,0.0
1664565984873,-1.3564453,-0.6230469,0.059570312,-16.375,-33.21875,-19.125,0.0,0.0,0.0
1664565984915,-1.1591797,-0.3203125,-0.24707031,53.03125,-3.8125,-9.53125,0.0,0.0,0.0
1664565984953,-0.92089844,0.36132812,-0.76464844,164.34375,56.3125,-31.9375,0.0,0.0,0.0
1664565984993,-1.1738281,0.50390625,-1.0546875,89.59375,56.9375,-46.78125,-58.5,-15.6875,-154.6875
1664565985053,-1.2236328,0.3388672,-0.55078125,-54.28125,-88.75,-36.46875,0.0,0.0,0.0
1664565985073,-1.1074219,-0.16699219,-0.2919922,-62.5625,-36.5,-8.0,0.0,0.0,0.0
1664565985113,-0.7675781,-0.421875,-0.056640625,-22.0,-25.34375,13.21875,0.0,0.0,0.0
1664565985152,-0.6904297,-0.26367188,-0.15625,56.625,-39.0625,55.34375,0.0,0.0,0.0
1664565985193,-0.6015625,0.13671875,-0.049804688,64.625,-32.71875,59.5,0.0,0.0,0.0
1664565985235,-0.4892578,0.022460938,-0.15039062,77.625,-27.0625,53.9375,0.0,0.0,0.0
1664565985275,-0.5498047,0.06640625,0.045898438,86.59375,-24.6875,33.1875,0.0,0.0,0.0
1664565985313,-0.84375,0.048828125,0.0029296875,59.25,-20.09375,12.0,0.0,0.0,0.0
1664565985353,-1.3095703,0.115234375,-0.14550781,50.40625,14.75,-0.0625,0.0,0.0,0.0
1664565985392,-1.2470703,0.265625,0.020507812,-1.90625,0.96875,8.65625,0.0,0.0,0.0
1664565985432,-1.0449219,-0.015625,-0.005859375,-47.8125,-7.9375,-27.96875,0.0,0.0,0.0
1664565985473,-1.3007812,-0.111328125,-0.45703125,-6.90625,-1.65625,-8.0,0.0,0.0,0.0
1664565985513,-0.68066406,0.030273438,-0.5546875,-8.0,34.96875,44.125,-61.8125,-14.6875,-149.625
1664565985553,-0.81640625,0.080078125,-0.54003906,-7.59375,-11.78125,28.375,0.0,0.0,0.0
1664565985593,-0.9628906,-0.032226562,-0.3388672,48.4375,36.125,-28.65625,0.0,0.0,0.0
1664565985633,-0.99609375,0.27148438,-0.37109375,2.78125,43.25,-38.96875,0.0,0.0,0.0
1664565985672,-0.88378906,0.21972656,-0.2734375,-64.09375,38.9375,-32.375,0.0,0.0,0.0
1664565985713,-0.58984375,-0.02734375,-0.29589844,-81.625,-3.625,-49.15625,0.0,0.0,0.0
1664565985753,-0.59375,-0.09667969,-0.19433594,-83.34375,-3.8125,-27.34375,0.0,0.0,0.0
1664565985813,-0.6669922,-0.14648438,-0.1328125,-72.65625,-10.03125,0.21875,0.0,0.0,0.0
1664565985833,-0.96484375,0.0087890625,-0.21484375,-58.375,28.0,22.03125,0.0,0.0,0.0
1664565985875,-1.1728516,-0.15234375,-0.0146484375,-101.09375,-23.4375,17.0,0.0,0.0,0.0
1664565985913,-1.2226562,-0.7792969,0.001953125,-33.40625,-29.625,-26.1875,0.0,0.0,0.0
1664565985952,-1.2792969,-0.5488281,0.018554688,30.4375,-4.96875,-14.53125,0.0,0.0,0.0
1664565985993,-0.95703125,0.35546875,-0.69140625,131.28125,35.9375,-26.4375,-58.8125,-12.4375,-155.125
1664565986033,-0.83691406,0.6796875,-0.7861328,105.03125,38.625,-36.15625,0.0,0.0,0.0
1664565986073,-1.1396484,0.3408203,-0.828125,-32.90625,-27.125,-56.65625,0.0,0.0,0.0
1664565986113,-1.2890625,-0.041992188,-0.3359375,-63.625,-47.8125,-32.71875,0.0,0.0,0.0
1664565986153,-0.9667969,-0.3203125,-0.05859375,-38.53125,-13.4375,1.6875,0.0,0.0,0.0
1664565986193,-0.6855469,-0.37304688,-0.17675781,32.21875,-16.125,33.5,0.0,0.0,0.0
1664565986233,-0.5966797,-0.06933594,0.009765625,82.0625,-21.3125,78.46875,0.0,0.0,0.0
1664565986273,-0.35546875,-0.0029296875,-0.072265625,77.9375,-10.40625,74.4375,0.0,0.0,0.0
1664565986333,-0.50878906,0.16503906,0.0703125,65.15625,-39.6875,49.53125,0.0,0.0,0.0
1664565986353,-0.7451172,0.115234375,-0.009765625,65.90625,-17.71875,28.65625,0.0,0.0,0.0
1664565986393,-1.1318359,0.06738281,-0.091796875,43.125,6.8125,-1.25,0.0,0.0,0.0
1664565986433,-1.4404297,0.10253906,-0.08886719,23.3125,2.3125,15.4375,0.0,0.0,0.0
1664565986475,-1.2373047,0.11328125,0.16699219,-31.5,-13.625,-5.4375,0.0,0.0,0.0
1664565986513,-1.5361328,0.047851562,-0.50390625,-11.625,-1.3125,-9.96875,-63.3125,-13.3125,-147.625
1664565986573,-0.6142578,0.22070312,-0.4892578,-18.6875,39.71875,28.90625,0.0,0.0,0.0
1664565986593,-0.81640625,-0.033203125,-0.5263672,-7.875,-1.34375,30.375,0.0,0.0,0.0
1664565986633,-1.0332031,-0.18359375,-0.3232422,51.125,27.9375,-5.25,0.0,0.0,0.0
1664565986673,-0.92871094,0.3046875,-0.41503906,15.71875,59.75,-33.59375,0.0,0.0,0.0
1664565986713,-0.6923828,0.4794922,-0.2705078,-53.1875,49.59375,-36.8125,0.0,0.0,0.0
1664565986753,-0.6279297,0.036132812,-0.37109375,-84.5,27.4375,-54.40625,0.0,0.0,0.0
1664565986793,-0.5517578,-0.0546875,-0.2734375,-96.5,5.96875,-33.46875,0.0,0.0,0.0
1664565986833,-0.7246094,-0.14941406,-0.14257812,-98.15625,-11.5,-7.71875,0.0,0.0,0.0
1664565986874,-0.88183594,-0.056640625,-0.24121094,-57.5,28.25,11.40625,0.0,0.0,0.0
1664565986913,-1.1357422,-0.10058594,-0.2890625,-61.0,14.15625,13.53125,0.0,0.0,0.0
1664565986953,-1.2646484,-0.5283203,-0.04296875,-45.1875,-32.375,-10.8125,0.0,0.0,0.0
1664565986993,-1.3134766,-0.53808594,0.0029296875,8.59375,-8.5625,-15.34375,-60.4375,-10.9375,-157.6875
1664565987033,-1.1738281,0.01953125,-0.64160156,106.625,22.3125,-24.78125,0.0,0.0,0.0
1664565987073,-0.6796875,0.3671875,-0.8730469,139.09375,53.5,-40.65625,0.0,0.0,0.0
1664565987113,-1.0664062,0.60839844,-0.796875,25.8125,0.40625,-50.125,0.0,0.0,0.0
1664565987153,-1.2138672,0.25195312,-0.42773438,-59.65625,-53.84375,-37.5625,0.0,0.0,0.0
1664565987193,-1.03125,-0.203125,-0.30371094,-65.9375,-20.21875,-8.0625,0.0,0.0,0.0
1664565987233,-0.60546875,-0.43359375,-0.12792969,9.75,-41.875,27.21875,0.0,0.0,0.0
1664565987273,-0.6269531,-0.16308594,-0.13183594,90.6875,-37.4375,78.96875,0.0,0.0,0.0
1664565987334,-0.52246094,0.057617188,-0.080078125,90.0,-23.21875,71.40625,0.0,0.0,0.0
1664565987353,-0.5185547,0.16015625,-0.13671875,67.96875,-19.78125,51.4375,0.0,0.0,0.0
1664565987394,-0.70703125,0.19335938,-0.028320312,31.28125,-32.90625,28.1875,0.0,0.0,0.0
1664565987433,-0.91308594,-0.046875,-0.04296875,31.90625,-3.5,-3.6875,0.0,0.0,0.0
1664565987473,-1.5019531,-0.028320312,-0.18164062,33.125,8.15625,-2.21875,0.0,0.0,0.0
1664565987515,-1.2519531,0.15429688,0.27539062,-25.46875,-20.03125,-7.15625,-61.8125,-14.9375,-150.1875
1664565987554,-1.2373047,-0.18457031,-0.44628906,-3.5,20.625,-28.03125,0.0,0.0,0.0
1664565987593,-0.9433594,0.14941406,-0.58691406,13.46875,55.71875,29.28125,0.0,0.0,0.0
1664565987633,-0.8261719,0.25390625,-0.9013672,-6.96875,25.5625,59.25,0.0,0.0,0.0
1664565987673,-0.8496094,-0.16113281,-0.18261719,32.5625,0.65625,-6.25,0.0,0.0,0.0
1664565987713,-1.0107422,0.08984375,-0.5019531,62.78125,64.25,-51.03125,0.0,0.0,0.0
1664565987753,-0.73339844,0.42871094,-0.35351562,-18.6875,42.78125,-33.40625,0.0,0.0,0.0
1664565987793,-0.66308594,0.044921875,-0.3515625,-66.125,20.0625,-42.75,0.0,0.0,0.0
1664565987833,-0.61621094,-0.029296875,-0.31933594,-88.9375,14.8125,-34.0,0.0,0.0,0.0
1664565987873,-0.73535156,-0.21582031,-0.13769531,-110.4375,-24.84375,-4.34375,0.0,0.0,0.0
1664565987913,-0.80078125,-0.095703125,-0.18457031,-73.3125,8.09375,7.96875,0.0,0.0,0.0
1664565987953,-1.0478516,-0.041015625,-0.26953125,-82.09375,7.375,3.28125,0.0,0.0,0.0
1664565987993,-1.2861328,-0.56152344,-0.038085938,-47.3125,-29.75,-20.46875,-58.375,-12.5625,-158.3125
1664565988032,-1.2900391,-0.55371094,0.00390625,6.875,-24.78125,-8.625,0.0,0.0,0.0
1664565988093,-1.0078125,0.048828125,-0.6923828,131.46875,45.53125,-16.625,0.0,0.0,0.0
1664565988112,-0.7988281,0.4453125,-0.87109375,132.84375,52.46875,-40.96875,0.0,0.0,0.0
1664565988153,-1.1572266,0.43945312,-0.78808594,-0.0625,-27.125,-47.25,0.0,0.0,0.0
1664565988193,-1.1513672,0.103515625,-0.51953125,-70.09375,-39.875,-35.15625,0.0,0.0,0.0
1664565988233,-0.9707031,-0.35253906,-0.22558594,-63.4375,-39.1875,0.34375,0.0,0.0,0.0
1664565988273,-0.6660156,-0.41210938,-0.13378906,17.0625,-49.75,34.53125,0.0,0.0,0.0
1664565988313,-0.5625,-0.10058594,-0.103515625,72.625,-26.1875,70.0625,0.0,0.0,0.0
1664565988353,-0.37695312,0.08984375,-0.19335938,85.25,-6.84375,68.84375,0.0,0.0,0.0
1664565988393,-0.52441406,0.12011719,-0.03125,63.9375,-31.09375,48.5625,0.0,0.0,0.0
1664565988433,-0.72558594,0.080078125,-9.765625E-4,50.09375,-25.78125,31.1875,0.0,0.0,0.0
1664565988473,-1.0869141,0.020507812,-0.07128906,55.71875,-9.15625,7.8125,0.0,0.0,0.0
1664565988514,-1.4003906,0.056640625,-0.1640625,42.34375,8.59375,15.3125,-61.8125,-15.25,-148.125
1664565988553,-1.2070312,0.28125,0.27734375,-21.625,-22.65625,-3.75,0.0,0.0,0.0
1664565988593,-1.3710938,-0.048828125,-0.48046875,-20.71875,8.21875,-27.59375,0.0,0.0,0.0
1664565988633,-0.8779297,0.08886719,-0.58984375,-8.625,52.0625,25.9375,0.0,0.0,0.0
1664565988673,-0.9550781,0.15429688,-0.75878906,-11.84375,3.21875,61.09375,0.0,0.0,0.0
1664565988714,-0.8720703,-0.12402344,-0.23925781,26.34375,6.40625,3.84375,0.0,0.0,0.0
1664565988755,-1.0205078,0.15527344,-0.43554688,26.34375,70.0,-34.0625,0.0,0.0,0.0
1664565988795,-0.78125,0.41308594,-0.21582031,-27.125,60.15625,-45.84375,0.0,0.0,0.0
1664565988854,-0.6279297,-0.09863281,-0.19433594,-78.1875,4.0,-63.5625,0.0,0.0,0.0
1664565988872,-0.56640625,-0.07910156,-0.3251953,-63.1875,17.1875,-43.78125,0.0,0.0,0.0
1664565988913,-0.6894531,-0.016601562,-0.19238281,-88.8125,-17.28125,-4.84375,0.0,0.0,0.0
1664565988953,-0.9482422,0.01953125,-0.18066406,-81.1875,-0.375,17.6875,0.0,0.0,0.0
1664565988993,-1.1591797,-0.10546875,-0.15234375,-91.5,-10.875,1.8125,-59.6875,-14.375,-156.9375
1664565989033,-1.2294922,-0.6035156,-0.01953125,-46.03125,-31.8125,-23.5,0.0,0.0,0.0
1664565989074,-1.3398438,-0.5,-0.036132812,11.59375,-8.25,-6.3125,0.0,0.0,0.0
1664565989113,-1.015625,0.0546875,-0.60058594,115.40625,23.84375,-16.3125,0.0,0.0,0.0
1664565989153,-0.6152344,0.5078125,-0.8613281,153.65625,99.46875,-47.375,0.0,0.0,0.0
1664565989193,-1.1152344,0.5673828,-0.86035156,0.34375,-6.0,-44.9375,0.0,0.0,0.0
1664565989233,-1.1640625,0.10058594,-0.4033203,-72.84375,-63.75,-32.3125,0.0,0.0,0.0
1664565989273,-1.0888672,-0.2265625,-0.23144531,-70.21875,-34.125,9.8125,0.0,0.0,0.0
1664565989313,-0.6923828,-0.45214844,-0.09277344,-1.59375,-39.125,25.9375,0.0,0.0,0.0
1664565989353,-0.66015625,-0.0546875,-0.051757812,63.15625,-44.21875,71.40625,0.0,0.0,0.0
1664565989392,-0.45410156,0.05859375,0.038085938,65.0,-26.875,65.59375,0.0,0.0,0.0
1664565989433,-0.5703125,0.099609375,-0.0703125,71.40625,-14.34375,47.53125,0.0,0.0,0.0
1664565989473,-0.67871094,0.055664062,0.11425781,55.28125,-31.3125,20.5,0.0,0.0,0.0
1664565989513,-0.8828125,0.021484375,-0.036132812,37.59375,-1.65625,-1.34375,-63.625,-14.1875,-149.125
1664565989553,-1.3789062,0.028320312,-0.119140625,42.46875,16.53125,-11.96875,0.0,0.0,0.0
1664565989613,-1.2929688,0.24609375,0.21191406,-7.40625,-8.25,-5.625,0.0,0.0,0.0
1664565989632,-1.2138672,-0.033203125,-0.54003906,-10.75,18.28125,-22.90625,0.0,0.0,0.0
1664565989673,-0.8535156,0.10058594,-0.6660156,-1.40625,46.875,21.21875,0.0,0.0,0.0
1664565989715,-1.0478516,0.12695312,-0.94140625,-1.84375,24.28125,68.03125,0.0,0.0,0.0
1664565989754,-0.8701172,-0.1484375,-0.083984375,5.40625,-4.28125,-8.1875,0.0,0.0,0.0
1664565989793,-1.0146484,0.17382812,-0.52441406,47.34375,80.0,-35.71875,0.0,0.0,0.0
1664565989833,-0.74121094,0.5019531,-0.34472656,-37.90625,55.53125,-42.8125,0.0,0.0,0.0
1664565989873,-0.63183594,0.0625,-0.33789062,-103.96875,-10.9375,-61.65625,0.0,0.0,0.0
1664565989913,-0.5761719,-0.11621094,-0.24609375,-95.15625,14.375,-40.90625,0.0,0.0,0.0
1664565989953,-0.68847656,-0.20117188,-0.12207031,-101.875,-4.59375,-11.375,0.0,0.0,0.0
1664565989996,-0.8203125,-0.22363281,-0.17285156,-78.5625,4.8125,-3.375,-57.75,-15.25,-159.5
1664565990033,-1.0898438,-0.016601562,-0.2529297,-75.625,2.59375,0.40625,0.0,0.0,0.0
1664565990073,-1.2353516,-0.38476562,-0.022460938,-51.59375,-32.1875,-8.375,0.0,0.0,0.0
1664565990113,-1.4160156,-0.515625,-0.057617188,-5.9375,-13.375,-10.28125,0.0,0.0,0.0
1664565990153,-1.1445312,-0.11816406,-0.5546875,83.78125,0.65625,-14.53125,0.0,0.0,0.0
1664565990193,-0.72265625,0.375,-0.77441406,125.09375,44.96875,-43.46875,0.0,0.0,0.0
1664565990233,-1.0234375,0.44921875,-0.8378906,64.5,22.03125,-51.09375,0.0,0.0,0.0
1664565990294,-1.1230469,0.2890625,-0.4501953,-60.9375,-64.96875,-47.0625,0.0,0.0,0.0
1664565990313,-1.0996094,-0.20507812,-0.3544922,-54.9375,-33.71875,-8.75,0.0,0.0,0.0
1664565990373,-0.85253906,-0.40625,-0.10058594,2.125,-40.1875,24.59375,0.0,0.0,0.0
1664565990392,-0.59765625,-0.20800781,-0.15917969,66.40625,-42.0,65.15625,0.0,0.0,0.0
1664565990432,-0.5761719,0.051757812,-0.076171875,66.9375,-32.1875,82.875,0.0,0.0,0.0
1664565990473,-0.4560547,0.068359375,-0.16308594,85.75,-29.5625,67.5,0.0,0.0,0.0
1664565990513,-0.40625,0.13085938,-0.24414062,57.0625,-45.71875,19.75,-60.4375,-15.125,-149.75
1664565990553,-0.8300781,-0.07324219,0.044921875,69.1875,-21.625,1.6875,0.0,0.0,0.0
1664565990593,-1.3222656,0.06347656,-0.12988281,60.53125,26.90625,-4.84375,0.0,0.0,0.0
1664565990635,-1.2832031,0.3388672,0.07324219,13.90625,7.90625,-0.4375,0.0,0.0,0.0
1664565990672,-0.9716797,0.060546875,-0.24121094,-22.84375,8.28125,-22.46875,0.0,0.0,0.0
1664565990713,-1.0654297,0.087890625,-0.6269531,-5.09375,42.59375,14.6875,0.0,0.0,0.0
1664565990753,-0.9980469,0.06347656,-0.83496094,-11.78125,52.65625,56.625,0.0,0.0,0.0
1664565990794,-0.81640625,-0.22265625,-0.21582031,-10.5625,-22.46875,11.15625,0.0,0.0,0.0
1664565990834,-0.9169922,0.034179688,-0.4248047,54.0,62.96875,-34.3125,0.0,0.0,0.0
1664565990873,-0.8066406,0.48535156,-0.36816406,0.96875,59.8125,-37.3125,0.0,0.0,0.0
1664565990914,-0.7910156,0.18359375,-0.39453125,-84.84375,10.25,-47.875,0.0,0.0,0.0
1664565990955,-0.5205078,-0.041992188,-0.26464844,-111.90625,-1.40625,-43.21875,0.0,0.0,0.0
1664565990993,-0.6201172,-0.21289062,-0.14550781,-105.0,-1.34375,-21.3125,-57.875,-16.625,-155.875
1664565991033,-0.796875,-0.19921875,-0.18066406,-67.8125,14.28125,1.15625,0.0,0.0,0.0
1664565991073,-1.0791016,-0.06738281,-0.2578125,-50.96875,15.25,18.84375,0.0,0.0,0.0
1664565991133,-1.1455078,-0.064453125,-0.11621094,-90.71875,-39.9375,5.125,0.0,0.0,0.0
1664565991152,-1.1933594,-0.76660156,-0.029296875,-24.625,-24.4375,-45.5625,0.0,0.0,0.0
1664565991193,-1.2871094,-0.47460938,-0.16601562,45.9375,-7.78125,-19.375,0.0,0.0,0.0
1664565991233,-0.9003906,0.328125,-0.7861328,139.875,54.3125,-34.125,0.0,0.0,0.0
1664565991273,-0.9189453,0.5488281,-0.7363281,77.25,24.09375,-45.375,0.0,0.0,0.0
1664565991313,-1.2431641,0.34277344,-0.58984375,-54.40625,-72.9375,-49.5,0.0,0.0,0.0
1664565991353,-1.1738281,-0.2529297,-0.2998047,-31.875,-28.28125,-15.40625,0.0,0.0,0.0
1664565991393,-0.85546875,-0.37597656,-0.09863281,11.21875,-30.71875,25.5625,0.0,0.0,0.0
1664565991433,-0.55371094,-0.1328125,-0.12988281,65.90625,-37.25,53.875,0.0,0.0,0.0
1664565991473,-0.63183594,0.09863281,-0.076171875,57.28125,-39.8125,66.4375,0.0,0.0,0.0
1664565991514,-0.5126953,-0.09375,-0.080078125,57.84375,-16.5625,50.03125,-57.875,-17.375,-151.875
1664565991553,-0.71875,0.057617188,-0.0146484375,63.09375,-27.0625,27.6875,0.0,0.0,0.0
1664565991592,-0.77441406,0.0068359375,0.044921875,47.21875,-10.4375,20.5,0.0,0.0,0.0
1664565991633,-1.0996094,0.03125,0.021484375,36.25,15.375,-0.5625,0.0,0.0,0.0
1664565991673,-1.4814453,0.19140625,-0.06933594,25.1875,13.84375,10.25,0.0,0.0,0.0
1664565991713,-1.1650391,0.107421875,0.09277344,-38.09375,-13.75,-6.78125,0.0,0.0,0.0
1664565991753,-1.4179688,0.03125,-0.47460938,-18.875,4.875,-4.78125,0.0,0.0,0.0
1664565991793,-0.53222656,0.038085938,-0.59375,-17.59375,41.125,34.90625,0.0,0.0,0.0
1664565991833,-0.7841797,0.026367188,-0.4580078,1.03125,-19.5,33.96875,0.0,0.0,0.0
1664565991893,-1.03125,-0.078125,-0.35839844,45.46875,30.3125,-0.625,0.0,0.0,0.0
1664565991912,-0.8154297,0.28320312,-0.32128906,12.8125,49.46875,-17.90625,0.0,0.0,0.0
1664565991953,-0.6689453,0.3388672,-0.22851562,-42.96875,57.1875,-39.6875,0.0,0.0,0.0
1664565991993,-0.6064453,0.064453125,-0.359375,-74.90625,42.59375,-48.84375,-58.625,-16.625,-153.5
1664565992033,-0.58984375,-0.06347656,-0.21777344,-107.1875,15.3125,-33.03125,0.0,0.0,0.0
1664565992073,-0.81347656,-0.20898438,-0.1640625,-90.96875,5.96875,-0.0625,0.0,0.0,0.0
1664565992113,-0.9316406,-0.08496094,-0.17578125,-76.84375,2.125,6.875,0.0,0.0,0.0
1664565992153,-1.2011719,-0.17480469,-0.1328125,-75.09375,-11.4375,0.46875,0.0,0.0,0.0
1664565992193,-1.1816406,-0.5830078,-0.015625,-26.4375,-26.75,-23.9375,0.0,0.0,0.0
1664565992233,-1.375,-0.4814453,-0.032226562,19.53125,-6.375,-5.625,0.0,0.0,0.0
1664565992274,-1.0908203,-0.034179688,-0.61816406,116.1875,27.5,-23.09375,0.0,0.0,0.0
1664565992313,-0.7138672,0.40625,-0.81152344,129.1875,60.03125,-45.96875,0.0,0.0,0.0
1664565992353,-0.9921875,0.5761719,-0.76953125,15.625,-13.03125,-38.59375,0.0,0.0,0.0
1664565992393,-1.1699219,0.13671875,-0.41503906,-63.0,-58.5625,-36.15625,0.0,0.0,0.0
1664565992433,-0.9921875,-0.3154297,-0.22558594,-46.65625,-36.15625,10.65625,0.0,0.0,0.0
1664565992473,-0.7128906,-0.3671875,-0.14355469,31.28125,-27.90625,33.5625,0.0,0.0,0.0
1664565992513,-0.6347656,-0.05078125,-0.18652344,51.875,-37.375,58.34375,-57.125,-19.1875,-155.3125
1664565992553,-0.4609375,0.140625,-0.07910156,22.8125,-54.34375,54.3125,0.0,0.0,0.0
1664565992594,-0.5419922,-0.026367188,-0.068359375,69.25,-5.03125,43.0625,0.0,0.0,0.0
1664565992654,-0.76953125,0.0068359375,0.001953125,45.15625,-19.25,23.84375,0.0,0.0,0.0
1664565992673,-0.94140625,0.0087890625,0.08300781,32.5625,-0.6875,4.1875,0.0,0.0,0.0
1664565992713,-1.2675781,0.040039062,-0.13867188,36.71875,28.90625,-7.875,0.0,0.0,0.0
1664565992753,-1.2636719,0.19335938,0.08984375,4.25,2.65625,-2.875,0.0,0.0,0.0
1664565992793,-1.3867188,-0.021484375,-0.45507812,-14.65625,16.46875,-13.0625,0.0,0.0,0.0
1664565992833,-0.8544922,0.14355469,-0.54589844,-4.96875,44.78125,40.15625,0.0,0.0,0.0
1664565992873,-0.7626953,0.0126953125,-0.6660156,-8.1875,8.34375,37.40625,0.0,0.0,0.0
1664565992913,-0.86035156,-0.31347656,-0.24023438,34.09375,-5.15625,-14.1875,0.0,0.0,0.0
1664565992953,-1.1357422,0.047851562,-0.5341797,48.3125,71.75,-15.34375,0.0,0.0,0.0
1664565992993,-0.7089844,0.5283203,-0.2890625,-16.625,65.0625,-17.34375,-58.8125,-15.6875,-152.625
1664565993033,-0.72558594,0.08886719,-0.36523438,-69.28125,17.25,-56.84375,0.0,0.0,0.0
1664565993073,-0.5644531,-0.08691406,-0.34960938,-88.03125,17.375,-33.65625,0.0,0.0,0.0
1664565993113,-0.61621094,-0.16992188,-0.08984375,-97.5625,-12.84375,-16.1875,0.0,0.0,0.0
1664565993153,-0.8623047,-0.16601562,-0.16699219,-55.4375,17.1875,4.0,0.0,0.0,0.0
1664565993192,-0.97558594,-0.09472656,-0.2109375,-62.46875,-1.96875,9.4375,0.0,0.0,0.0
1664565993233,-1.1884766,-0.25878906,-0.15136719,-57.28125,-26.6875,-6.0,0.0,0.0,0.0
1664565993273,-1.2695312,-0.5878906,0.020507812,7.125,-30.40625,-12.96875,0.0,0.0,0.0
1664565993313,-1.1425781,-0.15234375,-0.57910156,90.5,18.125,-21.9375,0.0,0.0,0.0
1664565993353,-0.8300781,0.4248047,-0.8066406,122.84375,40.5,-49.75,0.0,0.0,0.0
1664565993413,-1.1103516,0.53515625,-0.8876953,29.65625,-4.09375,-43.28125,0.0,0.0,0.0
1664565993433,-1.2480469,0.17871094,-0.4814453,-64.09375,-68.125,-40.125,0.0,0.0,0.0
1664565993473,-1.0429688,-0.27441406,-0.2607422,-69.90625,-29.8125,-1.25,0.0,0.0,0.0
1664565993513,-0.74121094,-0.4921875,-0.13378906,1.375,-39.5,23.4375,-55.1875,-18.25,-156.8125
1664565993552,-0.64453125,-0.20996094,-0.08300781,56.0,-42.4375,70.25,0.0,0.0,0.0
1664565993593,-0.51171875,0.13378906,-0.103515625,44.59375,-38.53125,62.78125,0.0,0.0,0.0
1664565993633,-0.59375,-0.026367188,-0.060546875,78.0625,-6.5,45.28125,0.0,0.0,0.0
1664565993673,-0.7138672,-0.018554688,0.024414062,55.90625,-26.25,13.84375,0.0,0.0,0.0
1664565993714,-0.8671875,0.01953125,0.041992188,39.90625,-5.5625,-2.625,0.0,0.0,0.0
1664565993753,-1.4267578,0.032226562,-0.107421875,46.25,4.375,-0.6875,0.0,0.0,0.0
1664565993793,-1.2226562,0.14453125,0.119140625,1.5,-8.6875,1.5625,0.0,0.0,0.0
1664565993833,-1.5361328,0.043945312,-0.40429688,-6.59375,9.9375,-7.9375,0.0,0.0,0.0
1664565993873,-0.9980469,0.12597656,-0.50878906,-14.0,30.625,41.625,0.0,0.0,0.0
1664565993913,-0.66503906,0.0,-0.671875,4.8125,13.28125,51.9375,0.0,0.0,0.0
1664565993953,-0.7578125,-0.22265625,-0.33789062,33.90625,11.9375,-7.9375,0.0,0.0,0.0
1664565993993,-1.1484375,0.123046875,-0.46679688,45.625,63.28125,-17.84375,-57.625,-15.125,-150.8125
1664565994033,-0.67089844,0.5439453,-0.30566406,-16.125,63.65625,-29.125,0.0,0.0,0.0
1664565994076,-0.7324219,0.053710938,-0.3232422,-65.6875,28.5,-66.40625,0.0,0.0,0.0
1664565994115,-0.6972656,-0.14941406,-0.33496094,-74.0625,22.3125,-44.75,0.0,0.0,0.0
1664565994173,-0.6748047,-0.13183594,-0.20800781,-96.5,-1.84375,-13.3125,0.0,0.0,0.0
1664565994193,-0.7998047,-0.15429688,-0.14160156,-76.25,5.125,8.03125,0.0,0.0,0.0
1664565994233,-0.98046875,-0.08691406,-0.18554688,-62.8125,-1.78125,12.375,0.0,0.0,0.0
1664565994274,-1.1796875,-0.23632812,-0.11621094,-55.5,-19.4375,-5.875,0.0,0.0,0.0
1664565994313,-1.2451172,-0.6064453,-0.076171875,8.40625,-19.375,-14.40625,0.0,0.0,0.0
1664565994355,-1.1474609,-0.21484375,-0.33789062,64.5,-2.9375,-6.125,0.0,0.0,0.0
1664565994394,-0.77246094,0.44921875,-0.7363281,134.8125,51.3125,-33.875,0.0,0.0,0.0
1664565994433,-1.0263672,0.5263672,-1.03125,64.6875,53.875,-49.9375,0.0,0.0,0.0
1664565994472,-1.2236328,0.26464844,-0.48046875,-68.1875,-95.34375,-42.1875,0.0,0.0,0.0
1664565994513,-1.1191406,-0.24023438,-0.28125,-82.03125,-45.375,-13.03125,-55.1875,-20.375,-157.5625
1664565994553,-0.86328125,-0.45507812,-0.048828125,-8.625,-43.90625,18.21875,0.0,0.0,0.0
1664565994593,-0.5859375,-0.24316406,-0.09667969,54.78125,-53.0625,49.84375,0.0,0.0,0.0
1664565994633,-0.6044922,0.140625,-0.061523438,59.5,-48.90625,63.03125,0.0,0.0,0.0
1664565994673,-0.46289062,0.057617188,-0.08691406,89.65625,-10.09375,47.15625,0.0,0.0,0.0
1664565994713,-0.5830078,0.044921875,0.001953125,84.59375,-30.84375,37.03125,0.0,0.0,0.0
1664565994753,-0.87890625,0.032226562,-0.013671875,58.46875,-9.21875,20.4375,0.0,0.0,0.0
1664565994794,-1.3076172,0.1015625,-0.080078125,41.90625,10.90625,6.46875,0.0,0.0,0.0
1664565994833,-1.2333984,0.21875,0.048828125,0.78125,4.0,-2.09375,0.0,0.0,0.0
1664565994873,-1.1474609,0.0390625,-0.29785156,-14.25,10.3125,-19.71875,0.0,0.0,0.0
1664565994934,-1.1933594,0.052734375,-0.48535156,-15.75,23.84375,28.3125,0.0,0.0,0.0
1664565994953,-0.64160156,-0.021484375,-0.5498047,-7.65625,41.25,39.15625,0.0,0.0,0.0
1664565994993,-0.7392578,-0.16992188,-0.43164062,23.53125,18.0625,-5.9375,-60.125,-15.125,-149.0
1664565995033,-1.1533203,0.08203125,-0.40429688,34.09375,53.875,-18.3125,0.0,0.0,0.0
1664565995075,-0.87890625,0.42285156,-0.29296875,-24.5,51.375,-26.25,0.0,0.0,0.0
1664565995114,-0.79003906,0.078125,-0.3076172,-56.28125,34.90625,-56.40625,0.0,0.0,0.0
1664565995154,-0.5097656,-0.17578125,-0.20996094,-66.1875,27.75,-52.25,0.0,0.0,0.0
1664565995193,-0.6611328,-0.03125,-0.23144531,-78.5,4.5,-19.25,0.0,0.0,0.0
1664565995233,-0.7324219,-0.087890625,-0.27929688,-72.40625,6.21875,6.875,0.0,0.0,0.0
1664565995274,-0.9580078,-0.08691406,-0.19628906,-82.65625,-6.0,25.6875,0.0,0.0,0.0
1664565995313,-1.1376953,-0.21972656,-0.09472656,-75.34375,-31.21875,3.40625,0.0,0.0,0.0
1664565995353,-1.2197266,-0.70410156,0.037109375,-0.9375,-21.0,-30.21875,0.0,0.0,0.0
1664565995395,-1.1914062,-0.2685547,-0.34960938,68.46875,16.34375,-18.375,0.0,0.0,0.0
1664565995433,-0.98046875,0.38671875,-0.89160156,136.9375,58.28125,-39.625,0.0,0.0,0.0
1664565995472,-1.0751953,0.5058594,-0.8232422,48.3125,30.9375,-41.8125,0.0,0.0,0.0
1664565995513,-1.2265625,0.3779297,-0.5966797,-50.125,-56.71875,-37.25,-53.5625,-20.8125,-158.0
1664565995554,-1.09375,-0.20800781,-0.3076172,-68.0,-22.28125,-5.25,0.0,0.0,0.0
1664565995594,-0.72265625,-0.35253906,-0.203125,-20.59375,-41.21875,18.0625,0.0,0.0,0.0
1664565995633,-0.6347656,-0.31347656,-0.044921875,36.375,-56.15625,51.1875,0.0,0.0,0.0
1664565995693,-0.51171875,0.015625,-0.005859375,60.34375,-42.375,56.75,0.0,0.0,0.0
1664565995713,-0.51953125,0.018554688,-0.11328125,59.6875,-24.4375,37.53125,0.0,0.0,0.0
1664565995753,-0.7080078,-9.765625E-4,0.024414062,51.875,-37.5,20.4375,0.0,0.0,0.0
1664565995793,-0.92871094,0.06640625,0.033203125,47.96875,-7.28125,13.46875,0.0,0.0,0.0
1664565995833,-1.2958984,0.018554688,-0.140625,36.46875,8.21875,-1.40625,0.0,0.0,0.0
1664565995873,-1.3007812,0.21777344,0.12792969,2.59375,-2.75,4.3125,0.0,0.0,0.0
1664565995914,-1.0957031,-0.0078125,-0.27929688,-15.8125,-11.1875,-20.28125,0.0,0.0,0.0
1664565995953,-1.1269531,0.051757812,-0.63183594,-14.53125,17.4375,18.71875,0.0,0.0,0.0
1664565995993,-0.90625,0.06347656,-0.7607422,-0.6875,44.28125,66.5,-59.125,-16.9375,-148.6875
1664565996034,-0.82421875,-0.026367188,-0.25683594,3.59375,-29.9375,17.875,0.0,0.0,0.0
1664565996073,-0.99609375,-0.0029296875,-0.39160156,26.40625,43.75,-32.5,0.0,0.0,0.0
1664565996113,-0.76464844,0.35058594,-0.2890625,-7.59375,60.53125,-37.90625,0.0,0.0,0.0
1664565996154,-0.75390625,0.09472656,-0.28125,-59.15625,34.53125,-50.75,0.0,0.0,0.0
1664565996193,-0.5800781,-0.0390625,-0.35839844,-71.1875,33.75,-38.65625,0.0,0.0,0.0
1664565996233,-0.6816406,-0.15429688,-0.15234375,-92.375,4.375,-8.6875,0.0,0.0,0.0
1664565996274,-0.8535156,-0.18066406,-0.17285156,-60.5,3.84375,11.71875,0.0,0.0,0.0
1664565996313,-1.0185547,-0.09667969,-0.21191406,-51.90625,4.25,14.28125,0.0,0.0,0.0
1664565996353,-1.2246094,-0.24804688,-0.12792969,-50.75,-19.375,-3.90625,0.0,0.0,0.0
1664565996393,-1.2724609,-0.5029297,-0.08496094,-6.0,-21.4375,-18.3125,0.0,0.0,0.0
1664565996455,-1.1015625,-0.24121094,-0.31933594,58.09375,-0.3125,-20.28125,0.0,0.0,0.0
1664565996473,-0.77246094,0.36816406,-0.7988281,119.3125,33.125,-44.5625,0.0,0.0,0.0
1664565996513,-1.1308594,0.50390625,-0.8574219,24.53125,-17.40625,-46.59375,-53.125,-18.25,-156.8125
1664565996553,-1.2089844,0.18359375,-0.5,-49.03125,-46.78125,-50.0625,0.0,0.0,0.0
1664565996594,-1.0673828,-0.12011719,-0.2421875,-45.375,-23.40625,-5.625,0.0,0.0,0.0
1664565996636,-0.74902344,-0.35839844,-0.13085938,-11.1875,-48.78125,16.71875,0.0,0.0,0.0
1664565996673,-0.5859375,-0.26953125,-0.119140625,54.84375,-48.28125,53.21875,0.0,0.0,0.0
1664565996714,-0.5185547,-0.045898438,-0.14355469,61.5625,-17.15625,57.0625,0.0,0.0,0.0
1664565996754,-0.5810547,0.07421875,-0.09375,64.1875,-24.5625,48.1875,0.0,0.0,0.0
1664565996793,-0.7763672,0.07421875,0.018554688,52.46875,-21.375,25.6875,0.0,0.0,0.0
1664565996833,-0.86328125,0.0078125,0.01953125,29.15625,-15.34375,8.78125,0.0,0.0,0.0
1664565996873,-1.1582031,-0.07128906,0.005859375,28.3125,19.75,-15.09375,0.0,0.0,0.0
1664565996916,-1.3525391,0.103515625,0.09375,15.5,3.78125,3.9375,0.0,0.0,0.0
1664565996955,-1.2041016,0.17382812,-0.2890625,-3.0625,18.0,-7.78125,0.0,0.0,0.0
1664565996995,-1.2480469,0.2109375,-0.640625,-26.03125,37.09375,19.28125,-57.625,-16.9375,-149.3125
1664565997033,-0.57421875,-0.055664062,-0.52441406,-37.75,19.40625,28.5,0.0,0.0,0.0
1664565997073,-0.72558594,-0.29882812,-0.3310547,8.84375,1.8125,0.28125,0.0,0.0,0.0
1664565997114,-1.0644531,0.024414062,-0.48632812,41.5625,67.96875,-10.03125,0.0,0.0,0.0
1664565997154,-0.77441406,0.4892578,-0.32421875,-16.3125,54.5,-16.25,0.0,0.0,0.0
1664565997214,-0.734375,0.09667969,-0.24804688,-69.59375,15.125,-52.75,0.0,0.0,0.0
1664565997233,-0.60839844,-0.17773438,-0.2841797,-68.5625,13.21875,-35.59375,0.0,0.0,0.0
1664565997275,-0.6972656,-0.16308594,-0.21191406,-79.59375,0.96875,-8.0625,0.0,0.0,0.0
1664565997315,-0.8222656,-0.09667969,-0.18652344,-64.34375,6.75,7.5625,0.0,0.0,0.0
1664565997353,-1.0234375,-0.15136719,-0.17773438,-55.8125,4.375,2.5,0.0,0.0,0.0
1664565997393,-1.2197266,-0.2939453,-0.10546875,-49.28125,-26.8125,-7.15625,0.0,0.0,0.0
1664565997433,-1.3066406,-0.48339844,-0.05859375,3.28125,-13.9375,-9.15625,0.0,0.0,0.0
1664565997474,-1.0693359,-0.21777344,-0.44921875,64.3125,9.5,-13.03125,0.0,0.0,0.0
1664565997513,-0.8652344,0.3828125,-0.8388672,114.78125,33.84375,-40.59375,-53.5625,-15.125,-156.375
1664565997554,-1.0742188,0.4453125,-0.76464844,22.8125,-20.59375,-37.0,0.0,0.0,0.0
1664565997594,-1.0625,0.25683594,-0.49609375,-41.28125,-43.84375,-41.59375,0.0,0.0,0.0
1664565997633,-1.0507812,-0.17675781,-0.2919922,-58.96875,-38.46875,-15.75,0.0,0.0,0.0
1664565997674,-0.7636719,-0.37304688,-0.14355469,3.40625,-49.34375,19.34375,0.0,0.0,0.0
1664565997713,-0.5751953,-0.16308594,-0.115234375,51.9375,-39.3125,53.625,0.0,0.0,0.0
1664565997753,-0.58984375,0.016601562,-0.07910156,50.78125,-26.3125,49.84375,0.0,0.0,0.0
1664565997793,-0.5439453,0.024414062,-0.057617188,85.9375,-16.4375,48.1875,0.0,0.0,0.0
1664565997833,-0.75390625,-0.0068359375,-0.024414062,68.78125,-14.34375,36.4375,0.0,0.0,0.0
1664565997876,-0.9296875,0.059570312,0.029296875,39.21875,-1.3125,23.0,0.0,0.0,0.0
1664565997914,-1.1318359,-0.013671875,-0.10449219,23.65625,7.625,-6.0625,0.0,0.0,0.0
1664565997974,-1.3076172,0.064453125,0.076171875,7.5625,2.3125,-8.8125,0.0,0.0,0.0
1664565997992,-1.203125,0.057617188,-0.3623047,-4.90625,10.40625,-19.0625,-58.0625,-17.0625,-146.75
1664565998034,-1.2080078,0.123046875,-0.6298828,-17.21875,39.90625,25.0625,0.0,0.0,0.0
1664565998074,-0.9003906,0.043945312,-0.66796875,-15.34375,37.9375,54.3125,0.0,0.0,0.0
1664565998113,-0.74902344,-0.17675781,-0.2841797,2.71875,-6.1875,-0.1875,0.0,0.0,0.0
1664565998153,-1.0166016,0.0068359375,-0.41796875,32.28125,59.75,-26.0625,0.0,0.0,0.0
1664565998193,-0.71972656,0.43554688,-0.30078125,-19.96875,49.53125,-30.09375,0.0,0.0,0.0
1664565998234,-0.6669922,0.08691406,-0.34570312,-67.28125,15.65625,-49.5,0.0,0.0,0.0
1664565998275,-0.5566406,-0.14160156,-0.3076172,-75.34375,25.75,-34.4375,0.0,0.0,0.0
1664565998314,-0.7519531,-0.11816406,-0.18652344,-81.9375,2.25,-5.21875,0.0,0.0,0.0
1664565998354,-0.8515625,-0.14941406,-0.19433594,-74.40625,-1.1875,8.84375,0.0,0.0,0.0
1664565998394,-1.0019531,-0.13476562,-0.17773438,-58.1875,4.0625,1.5625,0.0,0.0,0.0
1664565998433,-1.2998047,-0.27148438,-0.13964844,-46.34375,-17.21875,-7.15625,0.0,0.0,0.0
1664565998473,-1.3085938,-0.49121094,-0.0625,-1.78125,-19.71875,-14.65625,0.0,0.0,0.0
1664565998514,-1.0068359,-0.16113281,-0.42871094,70.90625,9.1875,-19.4375,-55.9375,-14.9375,-156.0625
1664565998556,-0.78222656,0.37109375,-0.9316406,128.03125,43.0625,-40.40625,0.0,0.0,0.0
1664565998593,-1.1679688,0.2685547,-0.734375,31.40625,-35.28125,-44.6875,0.0,0.0,0.0
1664565998634,-1.1943359,0.18652344,-0.43066406,-21.5625,-48.59375,-18.4375,0.0,0.0,0.0
1664565998674,-1.0029297,-0.14453125,-0.203125,-36.875,-25.34375,-3.1875,0.0,0.0,0.0
1664565998734,-0.7246094,-0.37890625,-0.16894531,12.875,-42.125,16.65625,0.0,0.0,0.0
1664565998753,-0.5888672,-0.17675781,-0.11035156,54.5,-40.96875,46.0625,0.0,0.0,0.0
1664565998794,-0.546875,0.15625,-0.14355469,50.71875,-19.0625,52.46875,0.0,0.0,0.0
1664565998834,-0.5488281,0.06738281,-0.080078125,59.875,-11.25,38.875,0.0,0.0,0.0
1664565998874,-0.7011719,0.1171875,0.0078125,44.90625,-5.3125,28.625,0.0,0.0,0.0
1664565999036,-0.8808594,0.044921875,0.095703125,26.03125,0.84375,11.21875,-58.375,-17.9375,-147.375
1664565999040,-1.2978516,-0.09375,-0.20214844,42.40625,9.4375,6.9375,0.0,0.0,0.0
1664565999043,-1.3857422,0.22070312,0.14550781,-2.28125,-6.5,-9.34375,0.0,0.0,0.0
1664565999045,-1.2109375,-0.01171875,-0.4091797,-18.3125,-7.65625,-27.78125,0.0,0.0,0.0
1664565999073,-1.0917969,0.10546875,-0.6044922,-25.09375,24.46875,30.25,0.0,0.0,0.0
1664565999114,-0.7949219,0.05859375,-0.63964844,-13.3125,6.6875,61.5625,0.0,0.0,0.0
1664565999154,-0.84375,-0.11230469,-0.3779297,14.03125,11.875,-7.65625,0.0,0.0,0.0
1664565999194,-1.0537109,0.001953125,-0.421875,12.6875,51.125,-40.40625,0.0,0.0,0.0
1664565999233,-0.70703125,0.3203125,-0.3359375,-32.90625,57.96875,-37.3125,0.0,0.0,0.0
1664565999274,-0.6044922,-0.046875,-0.23046875,-74.125,14.15625,-47.5,0.0,0.0,0.0
1664565999355,-0.5332031,-0.12988281,-0.2705078,-79.3125,7.75,-26.375,0.0,0.0,0.0
1664565999358,-0.7109375,-0.15722656,-0.14257812,-75.09375,-0.375,3.71875,0.0,0.0,0.0
1664565999494,-0.87597656,-0.1171875,-0.12988281,-55.625,10.65625,16.28125,0.0,0.0,0.0
1664565999497,-1.0556641,-0.076171875,-0.15136719,-53.125,4.125,11.28125,0.0,0.0,0.0
1664565999499,-1.2158203,-0.23828125,-0.125,-40.84375,-14.90625,-1.3125,0.0,0.0,0.0
1664565999513,-1.2402344,-0.5332031,-0.040039062,4.75,-15.8125,-17.90625,-55.8125,-16.9375,-156.625
1664565999554,-1.1044922,-0.0546875,-0.67285156,105.40625,24.71875,-13.4375,0.0,0.0,0.0
1664565999593,-0.87597656,0.44726562,-0.80078125,113.5625,36.1875,-38.28125,0.0,0.0,0.0
1664565999633,-1.1425781,0.42773438,-0.74609375,17.375,-5.21875,-53.375,0.0,0.0,0.0
1664565999674,-1.1943359,0.14550781,-0.4716797,-46.78125,-34.0,-34.5625,0.0,0.0,0.0
1664565999713,-0.9033203,-0.21484375,-0.25,-51.46875,-20.46875,5.34375,0.0,0.0,0.0
1664565999753,-0.6435547,-0.35546875,-0.13085938,15.0625,-44.9375,33.84375,0.0,0.0,0.0
1664565999796,-0.55078125,-0.119140625,-0.11328125,59.8125,-41.65625,65.78125,0.0,0.0,0.0
1664565999833,-0.5214844,0.07714844,-0.14355469,63.40625,-25.34375,61.4375,0.0,0.0,0.0
1664565999873,-0.6044922,0.0625,-0.01171875,51.75,-34.3125,35.03125,0.0,0.0,0.0
1664565999913,-0.68847656,0.055664062,0.0068359375,42.59375,-2.34375,10.25,0.0,0.0,0.0
1664565999954,-1.0380859,0.03125,-0.08496094,31.28125,17.875,-6.71875,0.0,0.0,0.0
1664565999994,-1.4179688,0.03515625,-0.119140625,12.1875,4.4375,2.3125,0.0,0.0,0.0
1664566000034,-1.1992188,-0.00390625,0.09765625,-19.84375,-16.25,-15.59375,-58.5,-18.25,-149.625
1664566000074,-1.5419922,0.052734375,-0.5576172,1.4375,13.96875,-6.96875,0.0,0.0,0.0
1664566000116,-0.6748047,0.025390625,-0.5029297,-22.59375,46.0625,32.5625,0.0,0.0,0.0
1664566000154,-0.7558594,-0.013671875,-0.44140625,1.3125,-6.0625,39.40625,0.0,0.0,0.0
1664566000194,-0.96484375,-0.06738281,-0.41503906,37.59375,42.28125,-4.90625,0.0,0.0,0.0
1664566000254,-0.9003906,0.24804688,-0.39746094,14.03125,48.09375,-27.53125,0.0,0.0,0.0
1664566000272,-0.6347656,0.32910156,-0.28222656,-45.1875,37.46875,-43.28125,0.0,0.0,0.0
1664566000313,-0.5527344,-0.03515625,-0.2998047,-62.46875,14.6875,-48.34375,0.0,0.0,0.0
1664566000354,-0.6748047,-0.14550781,-0.23046875,-72.78125,8.09375,-15.8125,0.0,0.0,0.0
1664566000393,-0.7998047,-0.15332031,-0.18652344,-77.09375,-5.15625,9.03125,0.0,0.0,0.0
1664566000434,-0.8496094,-0.061523438,-0.22558594,-50.375,11.34375,1.15625,0.0,0.0,0.0
1664566000473,-1.1201172,-0.16601562,-0.15917969,-59.03125,-3.875,-6.65625,0.0,0.0,0.0
1664566000513,-1.2490234,-0.4482422,-0.083984375,-20.09375,-33.15625,-7.71875,-54.3125,-15.5625,-157.6875
1664566000554,-1.2314453,-0.38964844,-0.049804688,22.25,-3.3125,-7.9375,0.0,0.0,0.0
1664566000594,-0.95703125,0.18945312,-0.74609375,100.375,26.21875,-18.375,0.0,0.0,0.0
1664566000634,-0.7734375,0.39648438,-0.84472656,99.46875,29.34375,-41.53125,0.0,0.0,0.0
1664566000674,-1.0595703,0.37109375,-0.7167969,3.15625,-2.21875,-58.90625,0.0,0.0,0.0
1664566000716,-1.1865234,0.034179688,-0.4501953,-54.28125,-42.0,-30.46875,0.0,0.0,0.0
1664566000755,-1.0683594,-0.43359375,-0.19433594,-40.0625,-31.625,-0.75,0.0,0.0,0.0
1664566000814,-0.65527344,-0.40527344,-0.12597656,29.84375,-31.3125,43.375,0.0,0.0,0.0
1664566000833,-0.52246094,-0.053710938,-0.13671875,64.6875,-16.4375,70.53125,0.0,0.0,0.0
1664566000873,-0.50097656,0.11230469,-0.16015625,27.8125,-31.21875,64.0,0.0,0.0,0.0
1664566000916,-0.63378906,0.0703125,-0.10839844,60.03125,-34.9375,51.8125,0.0,0.0,0.0
1664566000954,-0.7011719,-0.036132812,0.08300781,38.5625,-32.0,18.71875,0.0,0.0,0.0
1664566001014,-0.9580078,-0.032226562,0.08203125,34.15625,1.375,0.71875,0.0,0.0,0.0
1664566001033,-1.3789062,0.047851562,-0.21875,43.875,23.25,-13.5625,-57.875,-19.75,-149.0
1664566001074,-1.4003906,0.23828125,0.038085938,-5.6875,-6.0,-14.34375,0.0,0.0,0.0
1664566001114,-1.5029297,0.09375,-0.61035156,-32.71875,11.15625,-11.25,0.0,0.0,0.0
1664566001153,-0.76171875,0.22167969,-0.5361328,-49.21875,33.3125,33.625,0.0,0.0,0.0
1664566001193,-0.5527344,-0.1484375,-0.40625,-23.5,-15.75,-0.5625,0.0,0.0,0.0
1664566001234,-1.0292969,-0.31054688,-0.42089844,32.21875,24.28125,-11.90625,0.0,0.0,0.0
1664566001273,-1.0087891,9.765625E-4,-0.5361328,25.625,66.5,-6.3125,0.0,0.0,0.0
1664566001313,-0.7998047,0.390625,-0.31054688,-12.53125,47.65625,-15.75,0.0,0.0,0.0
1664566001354,-0.61816406,0.0625,-0.24511719,-40.0625,27.03125,-39.0625,0.0,0.0,0.0
1664566001396,-0.75097656,-0.048828125,-0.3798828,-46.875,24.65625,-29.3125,0.0,0.0,0.0
1664566001436,-0.7470703,-0.09375,-0.18457031,-70.03125,-6.96875,0.65625,0.0,0.0,0.0
1664566001473,-0.8076172,-0.22167969,-0.12988281,-63.3125,-13.25,-1.1875,0.0,0.0,0.0
1664566001513,-1.0234375,-0.06738281,-0.21484375,-57.5625,-15.75,-2.6875,-53.5625,-19.75,-158.3125
1664566001554,-1.1953125,-0.35742188,-0.072265625,-41.53125,-27.84375,-13.5625,0.0,0.0,0.0
1664566001594,-1.1708984,-0.4794922,-0.095703125,7.375,-19.3125,-13.625,0.0,0.0,0.0
1664566001634,-0.8027344,0.0703125,-0.5488281,85.0625,7.625,-19.4375,0.0,0.0,0.0
1664566001674,-0.7441406,0.484375,-0.9589844,93.78125,22.3125,-43.96875,0.0,0.0,0.0
1664566001713,-1.1943359,0.3046875,-0.83984375,-3.0,-22.78125,-69.34375,0.0,0.0,0.0
1664566001733,-1.3730469,0.14453125,-0.4248047,-61.71875,-33.53125,-30.59375,0.0,0.0,0.0
1664566001773,-1.1220703,-0.3564453,-0.16894531,-65.875,-29.625,3.59375,0.0,0.0,0.0
1664566001813,-0.82910156,-0.44921875,-0.08984375,13.90625,-35.0625,34.53125,0.0,0.0,0.0
1664566001854,-0.5888672,-0.22363281,-0.12890625,62.65625,-38.21875,69.25,0.0,0.0,0.0
1664566001893,-0.52246094,0.10644531,-0.08886719,56.1875,-32.84375,69.5625,0.0,0.0,0.0
1664566001933,-0.5439453,-0.001953125,-0.0859375,57.40625,-47.6875,47.65625,0.0,0.0,0.0
1664566001974,-0.5644531,-0.041992188,0.064453125,67.125,-27.84375,24.75,0.0,0.0,0.0
1664566002034,-0.97265625,0.025390625,-0.059570312,80.78125,12.8125,15.0625,-57.625,-20.1875,-147.625
1664566002053,-1.4335938,0.19042969,-0.14648438,52.71875,17.625,1.4375,0.0,0.0,0.0
1664566002093,-1.2275391,0.26464844,0.09472656,-21.9375,-0.1875,-10.09375,0.0,0.0,0.0
1664566002133,-1.4853516,0.02734375,-0.48535156,-18.625,25.1875,-21.8125,0.0,0.0,0.0
1664566002175,-0.94921875,0.08691406,-0.5488281,-28.09375,57.34375,24.75,0.0,0.0,0.0
1664566002213,-0.76171875,-0.087890625,-0.5546875,-9.96875,28.3125,37.21875,0.0,0.0,0.0
1664566002254,-0.9316406,-0.08300781,-0.3779297,21.96875,28.96875,1.9375,0.0,0.0,0.0
1664566002294,-0.9863281,0.25585938,-0.5078125,24.71875,64.5625,-38.40625,0.0,0.0,0.0
1664566002333,-0.78125,0.45703125,-0.33398438,-40.65625,51.4375,-43.21875,0.0,0.0,0.0
1664566002374,-0.67285156,-0.032226562,-0.23632812,-94.1875,2.59375,-46.53125,0.0,0.0,0.0
1664566002414,-0.55566406,-0.13574219,-0.25878906,-93.71875,5.0,-25.90625,0.0,0.0,0.0
1664566002454,-0.70214844,-0.22265625,-0.13671875,-69.15625,2.84375,-0.0625,0.0,0.0,0.0
1664566002534,-0.83203125,-0.029296875,-0.2578125,-43.78125,16.71875,6.9375,-53.875,-19.625,-158.875
1664566002538,-1.0927734,0.044921875,-0.30566406,-71.625,5.28125,7.125,0.0,0.0,0.0
1664566002573,-1.1914062,-0.31054688,-0.08105469,-70.03125,-36.40625,-16.0,0.0,0.0,0.0
1664566002614,-1.2753906,-0.61816406,-0.09472656,-25.03125,-17.09375,-30.28125,0.0,0.0,0.0
1664566002654,-1.0537109,-0.13867188,-0.5878906,75.84375,26.34375,-20.875,0.0,0.0,0.0
1664566002816,-0.734375,0.41796875,-0.8457031,134.3125,46.6875,-40.375,0.0,0.0,0.0
1664566002833,-1.0341797,0.57128906,-0.8203125,43.1875,22.125,-53.375,0.0,0.0,0.0
1664566002836,-1.2763672,0.20214844,-0.5126953,-47.4375,-48.125,-42.0625,0.0,0.0,0.0
1664566002838,-0.9892578,-0.234375,-0.32226562,-44.3125,-20.84375,-1.84375,0.0,0.0,0.0
1664566002853,-0.79003906,-0.43554688,-0.22460938,4.0625,-45.5,18.0,0.0,0.0,0.0
1664566002893,-0.63964844,-0.19824219,-0.09375,41.84375,-50.84375,60.96875,0.0,0.0,0.0
1664566002934,-0.6171875,9.765625E-4,-0.14550781,71.21875,-17.65625,84.53125,0.0,0.0,0.0
1664566002974,-0.5097656,0.0048828125,-0.1171875,58.9375,-38.15625,63.53125,0.0,0.0,0.0
1664566003034,-0.6748047,0.05078125,0.06640625,66.40625,-48.1875,35.5625,-56.5625,-19.4375,-152.4375
1664566003053,-0.8300781,-0.09765625,0.13378906,46.3125,-16.0625,5.46875,0.0,0.0,0.0
1664566003093,-1.1933594,0.009765625,-0.14453125,55.53125,20.0625,-3.5625,0.0,0.0,0.0
1664566003136,-1.3496094,0.24609375,0.051757812,12.0625,4.1875,-4.34375,0.0,0.0,0.0
1664566003174,-1.2880859,0.06542969,-0.51953125,-8.875,19.21875,-15.625,0.0,0.0,0.0
1664566003213,-1.1230469,0.15527344,-0.640625,-23.625,21.96875,31.90625,0.0,0.0,0.0
1664566003254,-0.69433594,-0.055664062,-0.5214844,-19.0,-2.03125,45.15625,0.0,0.0,0.0
1664566003293,-0.8515625,-0.21875,-0.45898438,42.84375,17.3125,5.125,0.0,0.0,0.0
1664566003334,-1.0449219,0.18945312,-0.48046875,42.46875,53.9375,-19.375,0.0,0.0,0.0
1664566003373,-0.6748047,0.55371094,-0.24707031,-10.8125,48.625,-22.15625,0.0,0.0,0.0
1664566003416,-0.64453125,0.09863281,-0.2861328,-68.375,22.9375,-59.34375,0.0,0.0,0.0
1664566003454,-0.6220703,-0.10058594,-0.31640625,-74.1875,16.53125,-40.90625,0.0,0.0,0.0
1664566003514,-0.6435547,-0.13769531,-0.20800781,-94.4375,-5.4375,-6.0625,-54.4375,-20.6875,-154.6875
1664566003533,-0.96484375,-0.12207031,-0.23339844,-73.9375,5.0625,19.03125,0.0,0.0,0.0
1664566003573,-1.0810547,-0.0625,-0.18066406,-71.5,-7.8125,12.0,0.0,0.0,0.0
1664566003614,-1.203125,-0.44433594,-0.03515625,-50.84375,-26.3125,-15.9375,0.0,0.0,0.0
1664566003653,-1.2197266,-0.4736328,-0.080078125,6.5625,-11.71875,-16.5625,0.0,0.0,0.0
1664566003694,-1.0625,-0.07324219,-0.6171875,100.15625,24.15625,-18.75,0.0,0.0,0.0
1664566003733,-0.90527344,0.4482422,-0.80859375,114.4375,33.84375,-44.75,0.0,0.0,0.0
1664566003776,-0.9892578,0.45507812,-0.7314453,31.78125,-27.1875,-39.3125,0.0,0.0,0.0
1664566003814,-1.15625,0.20410156,-0.4580078,-56.09375,-38.40625,-30.34375,0.0,0.0,0.0
1664566003854,-1.03125,-0.21582031,-0.24511719,-53.125,-25.78125,-5.4375,0.0,0.0,0.0
1664566003894,-0.8203125,-0.32617188,-0.14257812,18.71875,-31.4375,23.84375,0.0,0.0,0.0
1664566003933,-0.56640625,-0.12011719,-0.02734375,50.34375,-42.625,49.3125,0.0,0.0,0.0
1664566003974,-0.59375,0.12792969,-0.083984375,55.90625,-33.59375,68.03125,0.0,0.0,0.0
1664566004054,-0.53027344,-0.0078125,0.0107421875,62.3125,-29.9375,31.1875,-56.875,-21.25,-152.4375
1664566004058,-0.6660156,0.013671875,0.115234375,71.03125,-14.3125,21.90625,0.0,0.0,0.0
1664566004094,-0.9238281,0.043945312,0.06738281,56.75,-3.90625,3.71875,0.0,0.0,0.0
1664566004134,-1.3251953,-0.030273438,-0.1328125,47.59375,9.5,-4.15625,0.0,0.0,0.0
1664566004173,-1.296875,0.14453125,0.12402344,1.375,-7.875,-5.8125,0.0,0.0,0.0
1664566004214,-1.7783203,0.20605469,-0.72753906,-2.03125,44.28125,-8.125,0.0,0.0,0.0
1664566004253,-0.9472656,0.12890625,-0.6191406,-51.71875,28.1875,38.125,0.0,0.0,0.0
1664566004294,-0.61816406,-0.1640625,-0.4013672,-20.15625,-11.84375,14.28125,0.0,0.0,0.0
1664566004334,-0.94140625,-0.1328125,-0.53515625,40.5625,46.125,-12.71875,0.0,0.0,0.0
1664566004373,-1.0517578,0.32421875,-0.40234375,19.875,53.8125,-21.8125,0.0,0.0,0.0
1664566004415,-0.80859375,0.4267578,-0.31640625,-56.15625,46.875,-42.875,0.0,0.0,0.0
1664566004453,-0.5908203,-0.034179688,-0.23046875,-96.5,-0.875,-56.53125,0.0,0.0,0.0
1664566004515,-0.60546875,-0.14941406,-0.2109375,-101.28125,-2.03125,-30.46875,-53.5625,-22.625,-153.8125
1664566004534,-0.6923828,-0.22753906,-0.11230469,-78.6875,4.0,-1.78125,0.0,0.0,0.0
1664566004573,-0.88378906,-0.14257812,-0.17285156,-47.4375,14.9375,3.34375,0.0,0.0,0.0
1664566004616,-1.0556641,-0.06347656,-0.15527344,-52.09375,3.03125,5.34375,0.0,0.0,0.0
1664566004654,-1.1445312,-0.3251953,-0.05859375,-38.21875,-15.28125,-4.53125,0.0,0.0,0.0
1664566004694,-1.25,-0.5097656,-0.030273438,1.8125,-18.5,-8.375,0.0,0.0,0.0
1664566004735,-1.2216797,-0.09472656,-0.5371094,74.25,4.75,-13.25,0.0,0.0,0.0
1664566004774,-0.92089844,0.27929688,-0.80566406,110.53125,40.21875,-38.28125,0.0,0.0,0.0
1664566004813,-1.1113281,0.53125,-0.67871094,53.875,13.0,-36.40625,0.0,0.0,0.0
1664566004854,-1.1503906,0.17871094,-0.51464844,-20.71875,-26.75,-32.25,0.0,0.0,0.0
1664566004894,-1.0439453,-0.15429688,-0.21191406,-48.71875,-32.84375,-8.875,0.0,0.0,0.0
1664566004933,-0.8417969,-0.41796875,-0.13476562,5.78125,-50.0,12.5625,0.0,0.0,0.0
1664566004974,-0.47460938,-0.12109375,-0.1171875,55.90625,-35.0,43.375,0.0,0.0,0.0
1664566005034,-0.6308594,0.14453125,-0.10644531,79.03125,-0.625,54.84375,-54.75,-25.1875,-154.25
1664566005053,-0.6044922,0.061523438,-0.09277344,56.875,-16.9375,40.5625,0.0,0.0,0.0
1664566005094,-0.73828125,-0.005859375,0.020507812,30.375,-23.40625,24.71875,0.0,0.0,0.0
1664566005134,-0.9267578,-0.0126953125,0.048828125,24.8125,-1.125,3.71875,0.0,0.0,0.0
1664566005174,-1.2412109,0.040039062,-0.13671875,26.90625,7.5625,2.65625,0.0,0.0,0.0
1664566005214,-1.2783203,0.14550781,0.13183594,-7.78125,-15.75,2.0625,0.0,0.0,0.0
1664566005254,-0.9814453,-0.06347656,-0.1796875,-21.75,-17.03125,-22.90625,0.0,0.0,0.0
1664566005293,-1.046875,-0.04296875,-0.6816406,0.34375,28.84375,8.78125,0.0,0.0,0.0
1664566005333,-1.1171875,-0.09472656,-0.63378906,4.3125,44.71875,38.0,0.0,0.0,0.0
1664566005374,-0.8251953,0.0029296875,-0.16699219,-4.03125,-31.21875,-2.75,0.0,0.0,0.0
1664566005414,-0.8417969,-0.13964844,-0.41503906,32.15625,36.53125,-51.96875,0.0,0.0,0.0
1664566005454,-0.85058594,0.25195312,-0.45214844,5.71875,66.875,-16.5625,0.0,0.0,0.0
1664566005514,-0.69140625,0.09667969,-0.26464844,-67.65625,14.375,-13.375,-55.375,-23.8125,-151.125
1664566005533,-0.6435547,-0.07519531,-0.24316406,-54.6875,10.46875,-18.875,0.0,0.0,0.0
1664566005574,-0.7519531,-0.15332031,-0.1640625,-56.78125,7.125,-7.28125,0.0,0.0,0.0
1664566005614,-0.88671875,-0.14355469,-0.16210938,-42.125,4.25,2.125,0.0,0.0,0.0
1664566005656,-0.95214844,-0.1328125,-0.16210938,-41.46875,0.0,13.21875,0.0,0.0,0.0
1664566005693,-1.0478516,-0.16894531,-0.15625,-36.34375,-7.15625,-6.84375,0.0,0.0,0.0
1664566005733,-1.2373047,-0.41015625,-0.045898438,-22.0625,-26.6875,-19.78125,0.0,0.0,0.0
1664566005774,-1.1220703,-0.36816406,-0.07128906,28.25,-20.78125,-7.59375,0.0,0.0,0.0
1664566005814,-0.9707031,0.3076172,-0.70703125,92.4375,28.375,-29.75,0.0,0.0,0.0
1664566005854,-0.9707031,0.42773438,-0.81640625,58.59375,5.40625,-42.3125,0.0,0.0,0.0
1664566005893,-1.2832031,0.1796875,-0.43554688,-38.84375,-36.5,-51.03125,0.0,0.0,0.0
1664566005934,-1.1835938,-0.14746094,-0.24804688,-57.625,-28.75,-16.375,0.0,0.0,0.0
1664566005974,-0.87402344,-0.34472656,-0.11621094,-30.84375,-42.5625,7.96875,0.0,0.0,0.0
1664566006034,-0.59277344,-0.30859375,-0.02734375,38.5,-30.59375,37.15625,-54.0,-24.4375,-153.1875
1664566006052,-0.4921875,0.068359375,-0.041015625,36.71875,-18.5625,43.0,0.0,0.0,0.0
1664566006094,-0.54589844,0.0048828125,-0.08496094,39.09375,-1.96875,43.875,0.0,0.0,0.0
1664566006154,-0.6982422,-0.016601562,0.025390625,24.53125,-18.6875,31.0,0.0,0.0,0.0
1664566006172,-0.7763672,-0.09277344,0.06738281,25.625,0.46875,21.09375,0.0,0.0,0.0
1664566006214,-1.1923828,-0.14355469,0.041992188,31.90625,27.28125,-5.5,0.0,0.0,0.0
1664566006254,-1.4501953,0.14160156,-0.029296875,28.3125,11.875,11.65625,0.0,0.0,0.0
1664566006294,-1.0810547,0.044921875,-0.01171875,-16.875,-15.34375,-11.0,0.0,0.0,0.0
1664566006333,-1.2539062,0.041992188,-0.65722656,-4.53125,28.84375,5.125,0.0,0.0,0.0
1664566006374,-0.46484375,-0.059570312,-0.53125,-21.125,44.59375,28.90625,0.0,0.0,0.0
1664566006413,-0.89941406,-0.2421875,-0.5839844,24.75,-0.625,51.9375,0.0,0.0,0.0
1664566006453,-0.96972656,-0.057617188,-0.35058594,50.34375,43.0625,27.5625,0.0,0.0,0.0
1664566006514,-0.828125,0.35253906,-0.28808594,17.375,55.78125,-16.75,-56.875,-20.5,-151.375
1664566006534,-0.70410156,0.21679688,-0.2763672,-42.5,32.6875,-40.25,0.0,0.0,0.0
1664566006574,-0.5673828,-0.07910156,-0.24023438,-82.46875,-1.125,-39.875,0.0,0.0,0.0
1664566006614,-0.55859375,-0.072265625,-0.2421875,-67.09375,18.125,-20.34375,0.0,0.0,0.0
1664566006654,-0.9042969,-0.12988281,-0.20019531,-62.625,16.46875,-2.8125,0.0,0.0,0.0
1664566006693,-1.0009766,-0.11035156,-0.22265625,-62.6875,-4.34375,0.15625,0.0,0.0,0.0
1664566006733,-1.1816406,-0.26757812,-0.20507812,-58.59375,-7.34375,-16.4375,0.0,0.0,0.0
1664566006772,-1.3466797,-0.47753906,-0.171875,-16.96875,-25.46875,-19.4375,0.0,0.0,0.0
1664566006813,-1.2001953,-0.2998047,-0.36816406,36.90625,-5.15625,-9.71875,0.0,0.0,0.0
1664566006854,-0.85058594,0.3046875,-0.7949219,97.34375,18.21875,-36.15625,0.0,0.0,0.0
1664566006893,-0.859375,0.49902344,-0.71972656,53.9375,-15.34375,-29.4375,0.0,0.0,0.0
1664566006934,-1.1171875,0.34179688,-0.53515625,-33.84375,-35.0,-46.28125,0.0,0.0,0.0
1664566006974,-1.0546875,-0.25585938,-0.30273438,-63.0625,-20.59375,-13.0625,0.0,0.0,0.0
1664566007014,-0.8105469,-0.42382812,-0.18164062,1.3125,-25.65625,26.84375,-53.25,-22.625,-157.375
1664566007054,-0.61621094,-0.12597656,-0.15039062,59.75,-26.9375,47.28125,0.0,0.0,0.0
1664566007094,-0.5917969,0.16699219,-0.0703125,78.21875,-5.5625,68.78125,0.0,0.0,0.0
1664566007133,-0.4501953,0.00390625,-0.12402344,40.03125,-31.21875,42.78125,0.0,0.0,0.0
1664566007174,-0.7138672,-0.08984375,0.009765625,37.71875,-34.6875,17.875,0.0,0.0,0.0
1664566007213,-0.8076172,-0.072265625,0.09472656,43.6875,-15.8125,1.6875,0.0,0.0,0.0
1664566007253,-1.171875,-0.12207031,-0.15429688,50.78125,10.1875,-17.84375,0.0,0.0,0.0
1664566007294,-1.2353516,0.19335938,-0.026367188,29.65625,3.28125,-3.25,0.0,0.0,0.0
1664566007334,-1.0947266,0.09082031,-0.2705078,-12.65625,-5.3125,-11.0,0.0,0.0,0.0
1664566007374,-1.2607422,0.078125,-0.5751953,-28.6875,22.8125,22.125,0.0,0.0,0.0
1664566007414,-0.7109375,-0.09863281,-0.61035156,-24.84375,14.75,52.96875,0.0,0.0,0.0
1664566007454,-0.83203125,-0.26757812,-0.41796875,29.40625,7.1875,20.90625,0.0,0.0,0.0
1664566007494,-0.96777344,-0.024414062,-0.41796875,47.90625,42.21875,-17.59375,-59.125,-19.1875,-149.0
1664566007536,-0.7558594,0.4267578,-0.27539062,4.8125,46.25,-30.46875,0.0,0.0,0.0
1664566007574,-0.77441406,0.12890625,-0.3359375,-54.34375,37.40625,-37.4375,0.0,0.0,0.0
1664566007613,-0.57714844,-0.103515625,-0.28027344,-69.21875,21.40625,-38.46875,0.0,0.0,0.0
1664566007653,-0.6816406,-0.09765625,-0.24316406,-68.5625,13.59375,-10.9375,0.0,0.0,0.0
1664566007694,-0.84277344,-0.1015625,-0.111328125,-64.90625,3.9375,2.59375,0.0,0.0,0.0
1664566007733,-0.96777344,-0.11425781,-0.18164062,-65.4375,-4.96875,10.0625,0.0,0.0,0.0
1664566007773,-1.0703125,-0.24121094,-0.09375,-58.3125,-16.75,-3.6875,0.0,0.0,0.0
1664566007814,-1.2539062,-0.54785156,-0.091796875,-6.59375,-23.6875,-14.90625,0.0,0.0,0.0
1664566007854,-1.2177734,-0.26464844,-0.4169922,63.8125,-3.3125,-19.59375,0.0,0.0,0.0
1664566007896,-1.0625,0.38964844,-0.9238281,111.5625,28.3125,-46.03125,0.0,0.0,0.0
1664566007934,-1.1044922,0.6347656,-0.76953125,31.84375,-13.375,-36.15625,0.0,0.0,0.0
1664566007974,-1.1162109,0.10253906,-0.49316406,-66.0625,-41.09375,-48.96875,0.0,0.0,0.0
1664566008014,-0.99121094,-0.1953125,-0.29882812,-52.375,-11.3125,-8.6875,-53.375,-24.6875,-154.375
1664566008053,-0.85546875,-0.34960938,-0.13867188,-2.59375,-28.9375,13.03125,0.0,0.0,0.0
1664566008093,-0.6279297,-0.24414062,-0.04296875,35.8125,-35.125,40.9375,0.0,0.0,0.0
1664566008136,-0.62890625,0.053710938,-0.07421875,50.65625,-15.40625,60.90625,0.0,0.0,0.0
1664566008174,-0.6142578,-0.059570312,-0.080078125,53.9375,-13.5,47.15625,0.0,0.0,0.0
1664566008214,-0.69921875,0.020507812,0.04296875,40.6875,-25.09375,24.46875,0.0,0.0,0.0
1664566008254,-0.7675781,-0.05859375,0.0078125,43.9375,6.15625,5.90625,0.0,0.0,0.0
1664566008293,-1.34375,-0.08300781,-0.20019531,51.8125,22.1875,-6.78125,0.0,0.0,0.0
1664566008334,-1.3369141,0.28125,0.059570312,18.90625,-1.71875,6.5,0.0,0.0,0.0
1664566008374,-1.1621094,0.037109375,-0.27929688,-25.15625,0.03125,-20.15625,0.0,0.0,0.0
1664566008416,-1.15625,0.037109375,-0.65625,-14.96875,29.21875,13.28125,0.0,0.0,0.0
1664566008454,-0.7216797,0.030273438,-0.6611328,-26.8125,35.625,43.9375,0.0,0.0,0.0
1664566008494,-0.7685547,-0.22460938,-0.34960938,15.78125,-5.03125,20.6875,-57.875,-20.1875,-149.3125
1664566008534,-0.94628906,-0.076171875,-0.37890625,47.09375,29.78125,-13.3125,0.0,0.0,0.0
1664566008574,-0.90625,0.41210938,-0.25195312,18.34375,33.96875,-15.15625,0.0,0.0,0.0
1664566008614,-0.78125,0.103515625,-0.31835938,-50.1875,20.625,-29.9375,0.0,0.0,0.0
1664566008653,-0.49316406,-0.08691406,-0.2607422,-57.8125,17.0,-34.625,0.0,0.0,0.0
1664566008693,-0.5908203,0.021484375,-0.203125,-59.65625,17.0625,-15.625,0.0,0.0,0.0
1664566008774,-0.8857422,-0.044921875,-0.25976562,-64.65625,12.0,2.84375,0.0,0.0,0.0
1664566008777,-1.078125,-0.045898438,-0.2548828,-72.34375,0.53125,18.71875,0.0,0.0,0.0
1664566008814,-1.1816406,-0.26464844,-0.055664062,-76.0625,-34.3125,-7.40625,0.0,0.0,0.0
1664566008853,-1.2236328,-0.5957031,-0.061523438,-30.59375,-26.875,-24.375,0.0,0.0,0.0
1664566008894,-1.1669922,-0.33398438,-0.24414062,38.5,-6.65625,-17.84375,0.0,0.0,0.0
1664566008934,-0.94140625,0.39257812,-0.90722656,116.3125,37.46875,-38.09375,0.0,0.0,0.0
1664566008974,-1.0205078,0.6582031,-0.7685547,68.53125,12.1875,-36.15625,0.0,0.0,0.0
1664566009014,-1.2167969,0.2763672,-0.5566406,-44.875,-24.78125,-59.28125,-53.5625,-23.0625,-153.1875
1664566009054,-1.0683594,-0.109375,-0.3623047,-57.4375,-13.25,-16.0625,0.0,0.0,0.0
1664566009096,-0.8359375,-0.41308594,-0.14648438,-16.5,-31.9375,8.34375,0.0,0.0,0.0
1664566009133,-0.5566406,-0.3173828,-0.072265625,38.75,-36.46875,41.4375,0.0,0.0,0.0
1664566009174,-0.5517578,0.064453125,-0.06542969,75.375,1.375,71.40625,0.0,0.0,0.0
1664566009213,-0.59472656,0.018554688,-0.09277344,27.9375,-21.25,45.53125,0.0,0.0,0.0
1664566009254,-0.6748047,-0.0048828125,0.068359375,31.25,-30.53125,24.71875,0.0,0.0,0.0
1664566009293,-0.76171875,0.0,-0.018554688,29.78125,-6.53125,-2.21875,0.0,0.0,0.0
1664566009334,-1.2578125,-0.11230469,-0.28515625,62.0625,28.25,-8.1875,0.0,0.0,0.0
1664566009374,-1.3496094,0.25390625,0.0390625,28.5625,-2.9375,12.125,0.0,0.0,0.0
1664566009414,-1.2451172,0.037109375,-0.265625,-24.1875,-0.8125,-14.90625,0.0,0.0,0.0
1664566009453,-1.2070312,0.029296875,-0.5996094,-21.75,17.1875,15.375,0.0,0.0,0.0
1664566009494,-0.71875,-0.053710938,-0.48339844,-21.75,23.25,43.1875,-57.625,-22.0,-149.3125
1664566009534,-0.7519531,-0.30371094,-0.3408203,15.78125,-8.875,13.84375,0.0,0.0,0.0
1664566009573,-0.89941406,0.08300781,-0.33984375,43.125,43.875,-21.75,0.0,0.0,0.0
1664566009614,-0.6484375,0.27929688,-0.32910156,-3.25,41.3125,-28.34375,0.0,0.0,0.0
1664566009654,-0.7402344,0.034179688,-0.30273438,-40.46875,20.4375,-24.625,0.0,0.0,0.0
1664566009694,-0.61328125,-0.08691406,-0.28320312,-46.71875,15.0625,-22.0625,0.0,0.0,0.0
1664566009734,-0.82128906,-0.036132812,-0.22558594,-43.28125,12.75,-6.25,0.0,0.0,0.0
1664566009773,-0.8144531,-0.1015625,-0.17089844,-52.375,5.40625,1.28125,0.0,0.0,0.0
1664566009814,-0.9873047,-0.1015625,-0.23730469,-55.8125,-1.84375,10.84375,0.0,0.0,0.0
1664566009854,-1.1259766,-0.13574219,-0.19433594,-64.53125,-17.84375,-0.25,0.0,0.0,0.0
1664566009894,-1.2900391,-0.58203125,-0.041992188,-27.84375,-30.59375,-24.1875,0.0,0.0,0.0
1664566009934,-1.1259766,-0.4091797,-0.24316406,26.53125,-17.28125,-25.09375,0.0,0.0,0.0
1664566009974,-0.9082031,0.37109375,-0.765625,111.9375,18.28125,-38.40625,0.0,0.0,0.0
1664566010014,-1.0019531,0.5390625,-0.85253906,58.21875,11.9375,-36.8125,-54.875,-22.1875,-152.625
1664566010054,-1.2060547,0.19726562,-0.53515625,-38.03125,-29.75,-52.125,0.0,0.0,0.0
1664566010094,-1.1005859,-0.16113281,-0.3046875,-61.1875,-21.125,-18.4375,0.0,0.0,0.0
1664566010134,-0.9355469,-0.43359375,-0.11816406,-19.65625,-36.21875,11.71875,0.0,0.0,0.0
1664566010174,-0.6748047,-0.26171875,-0.047851562,36.96875,-43.28125,46.125,0.0,0.0,0.0
1664566010214,-0.5390625,-0.06347656,-0.09863281,74.375,-4.53125,67.5,0.0,0.0,0.0
1664566010254,-0.5,0.009765625,-0.119140625,54.3125,-23.4375,51.9375,0.0,0.0,0.0
1664566010294,-0.6767578,0.07714844,0.059570312,58.59375,-20.9375,29.15625,0.0,0.0,0.0
1664566010333,-0.7919922,0.07714844,0.061523438,38.5,-5.375,5.28125,0.0,0.0,0.0
1664566010374,-1.1318359,-0.11425781,-0.08496094,35.5625,10.65625,-9.71875,0.0,0.0,0.0
1664566010414,-1.3125,0.16894531,-0.033203125,27.5625,1.625,2.59375,0.0,0.0,0.0
1664566010454,-1.1494141,0.049804688,-0.20019531,-17.03125,-8.9375,-13.625,0.0,0.0,0.0
1664566010491,-1.3291016,0.05859375,-0.53222656,-17.71875,-4.59375,17.5625,-59.25,-22.4375,-145.125
1664566010532,-0.8095703,-0.10644531,-0.4140625,-31.25,-5.03125,40.625,0.0,0.0,0.0
1664566010572,-0.5917969,-0.328125,-0.5253906,25.0625,3.09375,2.5625,0.0,0.0,0.0
1664566010613,-1.109375,-0.034179688,-0.37109375,57.0,47.96875,-7.21875,0.0,0.0,0.0
1664566010652,-0.7519531,0.54589844,-0.30078125,6.40625,59.875,-5.875,0.0,0.0,0.0
1664566010692,-0.7734375,0.15429688,-0.32910156,-64.34375,27.09375,-45.1875,0.0,0.0,0.0
1664566010732,-0.6777344,-0.17285156,-0.35058594,-65.625,17.9375,-37.0625,0.0,0.0,0.0
1664566010772,-0.8310547,-0.17773438,-0.13964844,-66.90625,-5.75,-12.78125,0.0,0.0,0.0
1664566010812,-0.81640625,-0.09472656,-0.20117188,-56.09375,7.1875,-3.6875,0.0,0.0,0.0
1664566010852,-0.8671875,-0.095703125,-0.15820312,-53.3125,5.1875,-1.0,0.0,0.0,0.0
1664566010893,-0.9453125,-0.11816406,-0.19140625,-67.09375,-6.65625,-7.71875,0.0,0.0,0.0
1664566010932,-1.0136719,-0.4453125,-0.08203125,-44.4375,-26.1875,-14.40625,0.0,0.0,0.0
1664566010972,-1.0859375,-0.49609375,-0.053710938,8.65625,-14.65625,-5.15625,0.0,0.0,0.0
1664566011012,-1.0595703,-0.048828125,-0.46972656,74.875,6.625,-5.6875,-57.4375,-18.875,-152.625
1664566011052,-0.88671875,0.46191406,-0.7734375,89.84375,28.3125,-23.34375,0.0,0.0,0.0
1664566011092,-1.0556641,0.39746094,-0.79785156,25.5,11.15625,-52.09375,0.0,0.0,0.0
1664566011132,-1.28125,0.021484375,-0.48632812,-53.96875,-37.5,-37.125,0.0,0.0,0.0
1664566011172,-1.0175781,-0.15429688,-0.22363281,-56.28125,-24.78125,-5.4375,0.0,0.0,0.0
1664566011212,-0.875,-0.39746094,-0.19042969,-3.5,-36.21875,9.8125,0.0,0.0,0.0
1664566011252,-0.66796875,-0.25878906,-0.024414062,44.53125,-52.09375,41.5,0.0,0.0,0.0
1664566011294,-0.57128906,0.022460938,-0.13183594,75.0,-19.59375,49.375,0.0,0.0,0.0
1664566011333,-0.60839844,-0.0087890625,-0.087890625,70.46875,-15.9375,30.125,0.0,0.0,0.0
1664566011373,-0.6738281,0.0859375,-0.001953125,48.4375,-16.6875,14.21875,0.0,0.0,0.0
1664566011413,-0.8496094,0.06738281,0.01953125,26.34375,-3.96875,-4.84375,0.0,0.0,0.0
1664566011453,-1.0595703,-0.0859375,-0.13769531,18.1875,-4.34375,9.3125,0.0,0.0,0.0
1664566011493,-1.0244141,-0.028320312,0.08886719,11.71875,-14.125,6.75,-59.375,-20.8125,-144.9375
1664566011533,-0.98535156,-0.14746094,0.0703125,11.53125,-23.75,-16.5625,0.0,0.0,0.0
1664566011573,-1.4394531,-0.12011719,-0.33007812,30.875,-3.96875,6.5625,0.0,0.0,0.0
1664566011614,-1.046875,0.045898438,-0.47265625,23.96875,7.4375,40.03125,0.0,0.0,0.0
1664566011653,-0.69628906,-0.09082031,-0.5703125,33.84375,10.40625,13.65625,0.0,0.0,0.0
1664566011693,-1.0146484,-0.025390625,-0.3388672,36.3125,9.4375,1.6875,0.0,0.0,0.0
1664566011733,-0.9121094,0.23925781,-0.2685547,12.5,36.3125,0.84375,0.0,0.0,0.0
1664566011774,-0.87890625,0.19628906,-0.29003906,-29.9375,49.59375,-14.25,0.0,0.0,0.0
1664566011813,-0.79785156,-0.14355469,-0.28808594,-48.0,25.875,-19.53125,0.0,0.0,0.0
1664566011853,-0.8730469,-0.09082031,-0.17675781,-36.5625,24.9375,-8.3125,0.0,0.0,0.0
1664566011894,-0.88183594,-0.07128906,-0.20214844,-33.09375,16.78125,-2.875,0.0,0.0,0.0
1664566011933,-0.92871094,-0.125,-0.22753906,-30.90625,13.09375,-0.5625,0.0,0.0,0.0
1664566011973,-0.8876953,-0.041992188,-0.19921875,-31.75,-3.3125,6.46875,0.0,0.0,0.0
1664566012014,-0.87109375,-0.06347656,-0.19921875,-29.4375,-3.25,-3.125,-58.625,-20.5,-149.0
1664566012054,-0.9609375,-0.16699219,-0.2578125,-34.125,-9.28125,-12.21875,0.0,0.0,0.0
1664566012094,-0.9716797,-0.2265625,-0.15136719,-30.65625,-21.6875,-12.96875,0.0,0.0,0.0
1664566012133,-1.0488281,0.0126953125,-0.2861328,-6.65625,-11.84375,-17.40625,0.0,0.0,0.0
1664566012174,-0.9511719,0.09375,-0.56640625,2.4375,2.4375,-32.3125,0.0,0.0,0.0
1664566012214,-0.8847656,0.29785156,-0.44628906,-13.25,-16.625,-40.53125,0.0,0.0,0.0
1664566012255,-1.0146484,0.18359375,-0.35546875,-62.9375,-7.65625,-37.78125,0.0,0.0,0.0
1664566012294,-0.9628906,-0.20996094,-0.3310547,-50.0,1.15625,-11.6875,0.0,0.0,0.0
1664566012334,-0.9345703,-0.16308594,-0.25585938,-6.71875,-4.28125,4.125,0.0,0.0,0.0
1664566012373,-0.96875,0.03125,-0.19726562,18.53125,-15.28125,17.125,0.0,0.0,0.0
1664566012414,-0.875,0.053710938,-0.20605469,6.625,-9.71875,12.8125,0.0,0.0,0.0
1664566012453,-0.86035156,0.040039062,-0.19628906,-5.9375,-6.53125,8.59375,0.0,0.0,0.0
1664566012494,-0.84375,0.0107421875,-0.20605469,-10.15625,-4.28125,8.21875,-56.875,-20.8125,-150.0625
1664566012536,-0.921875,0.034179688,-0.15820312,-11.3125,3.90625,0.96875,0.0,0.0,0.0
1664566012574,-0.91503906,0.026367188,-0.15625,-22.53125,4.625,-3.75,0.0,0.0,0.0
1664566012614,-0.8847656,-9.765625E-4,-0.13964844,-23.8125,-1.3125,-11.0,0.0,0.0,0.0
1664566012654,-0.88378906,-0.025390625,-0.1328125,-27.1875,-0.1875,-16.9375,0.0,0.0,0.0
1664566012694,-0.9189453,-0.107421875,-0.15820312,-25.71875,-5.5,-16.9375,0.0,0.0,0.0
1664566012734,-1.0771484,-0.12109375,-0.28320312,-3.875,6.21875,-0.375,0.0,0.0,0.0
1664566012774,-0.98339844,0.03125,-0.34765625,-1.96875,7.125,10.25,0.0,0.0,0.0
1664566012814,-0.9121094,0.076171875,-0.3173828,-10.625,1.21875,1.3125,0.0,0.0,0.0
1664566012856,-0.85253906,0.032226562,-0.2763672,-24.4375,3.71875,-1.0625,0.0,0.0,0.0
1664566012895,-0.87890625,-0.040039062,-0.29785156,-26.75,2.5625,-1.84375,0.0,0.0,0.0
1664566012934,-0.9482422,-0.055664062,-0.34472656,-31.5,5.125,1.21875,0.0,0.0,0.0
1664566012974,-0.9316406,-0.11035156,-0.31152344,-31.6875,-3.96875,-1.1875,0.0,0.0,0.0
1664566013014,-0.8857422,-0.09082031,-0.27539062,-25.90625,-10.75,-10.9375,-57.0,-19.9375,-154.375
1664566013054,-0.92089844,-0.0859375,-0.2841797,-20.84375,-6.125,-10.5625,0.0,0.0,0.0
1664566013091,-0.9169922,-0.080078125,-0.26171875,-21.125,0.21875,-4.78125,0.0,0.0,0.0
