# Sensor type: Thingy
# Activity type: Sitting bent backward
# Activity code: 5
# Subject id: s1800825
# Notes: 
timestamp,accel_x,accel_y,accel_z,gyro_x,gyro_y,gyro_z,mag_x,mag_y,mag_z
1665676039730,-0.6464844,-0.18261719,0.7167969,-0.40625,0.5625,-0.46875,-52.9375,9.1875,-113.125
1665676039731,-0.6464844,-0.18261719,0.7167969,-0.40625,0.5625,-0.46875,-52.9375,9.1875,-113.125
1665676039733,-0.64160156,-0.18945312,0.7246094,0.25,0.15625,0.4375,0.0,0.0,0.0
1665676039733,-0.64160156,-0.18945312,0.7246094,0.25,0.15625,0.4375,0.0,0.0,0.0
1665676039751,-0.6435547,-0.18457031,0.71972656,0.09375,0.1875,0.5625,0.0,0.0,0.0
1665676039751,-0.6435547,-0.18457031,0.71972656,0.09375,0.1875,0.5625,0.0,0.0,0.0
1665676039834,-0.6533203,-0.17382812,0.71191406,-0.28125,0.09375,0.75,0.0,0.0,0.0
1665676039834,-0.6533203,-0.17382812,0.71191406,-0.28125,0.09375,0.75,0.0,0.0,0.0
1665676039836,-0.6464844,-0.16796875,0.7167969,-0.21875,-0.28125,0.6875,0.0,0.0,0.0
1665676039835,-0.6464844,-0.16796875,0.7167969,-0.21875,-0.28125,0.6875,0.0,0.0,0.0
1665676039909,-0.640625,-0.17285156,0.7216797,-0.65625,0.375,0.6875,0.0,0.0,0.0
1665676039909,-0.640625,-0.17285156,0.7216797,-0.65625,0.375,0.6875,0.0,0.0,0.0
1665676039911,-0.63964844,-0.17773438,0.7236328,-0.53125,0.03125,0.375,0.0,0.0,0.0
1665676039911,-0.63964844,-0.17773438,0.7236328,-0.53125,0.03125,0.375,0.0,0.0,0.0
1665676039989,-0.6513672,-0.16796875,0.70703125,-0.96875,-0.03125,0.5625,0.0,0.0,0.0
1665676039989,-0.6513672,-0.16796875,0.70703125,-0.96875,-0.03125,0.5625,0.0,0.0,0.0
1665676039991,-0.6376953,-0.1796875,0.7236328,-0.96875,0.1875,0.75,0.0,0.0,0.0
1665676039991,-0.6376953,-0.1796875,0.7236328,-0.96875,0.1875,0.75,0.0,0.0,0.0
1665676040070,-0.6435547,-0.18164062,0.7158203,-0.90625,1.0625,0.625,0.0,0.0,0.0
1665676040070,-0.6435547,-0.18164062,0.7158203,-0.90625,1.0625,0.625,0.0,0.0,0.0
1665676040071,-0.6425781,-0.17871094,0.71875,-0.71875,1.125,0.25,0.0,0.0,0.0
1665676040071,-0.6425781,-0.17871094,0.71875,-0.71875,1.125,0.25,0.0,0.0,0.0
1665676040130,-0.6542969,-0.17382812,0.7158203,-0.90625,0.8125,0.125,0.0,0.0,0.0
1665676040130,-0.6542969,-0.17382812,0.7158203,-0.90625,0.8125,0.125,0.0,0.0,0.0
1665676040149,-0.6464844,-0.17089844,0.7138672,-1.6875,1.46875,-0.1875,0.0,0.0,0.0
1665676040149,-0.6464844,-0.17089844,0.7138672,-1.6875,1.46875,-0.1875,0.0,0.0,0.0
1665676040194,-0.65234375,-0.18261719,0.7050781,-2.25,-0.03125,0.25,0.0,0.0,0.0
1665676040194,-0.65234375,-0.18261719,0.7050781,-2.25,-0.03125,0.25,0.0,0.0,0.0
1665676040253,-0.6513672,-0.1796875,0.71777344,-2.125,-0.03125,0.8125,-53.5625,8.125,-112.125
1665676040253,-0.6513672,-0.1796875,0.71777344,-2.125,-0.03125,0.8125,-53.5625,8.125,-112.125
1665676040270,-0.6425781,-0.18359375,0.71191406,-1.6875,0.25,0.8125,0.0,0.0,0.0
1665676040270,-0.6425781,-0.18359375,0.71191406,-1.6875,0.25,0.8125,0.0,0.0,0.0
1665676040309,-0.6484375,-0.171875,0.7158203,-1.8125,-1.5625,0.375,0.0,0.0,0.0
1665676040309,-0.6484375,-0.171875,0.7158203,-1.8125,-1.5625,0.375,0.0,0.0,0.0
1665676040350,-0.6455078,-0.22363281,0.71777344,-14.375,-23.125,0.8125,0.0,0.0,0.0
1665676040350,-0.6455078,-0.22363281,0.71777344,-14.375,-23.125,0.8125,0.0,0.0,0.0
1665676040389,-0.5966797,-0.17675781,0.734375,3.1875,3.375,4.875,0.0,0.0,0.0
1665676040389,-0.5966797,-0.17675781,0.734375,3.1875,3.375,4.875,0.0,0.0,0.0
1665676040432,-0.66015625,-0.16894531,0.7363281,-8.65625,-6.09375,2.625,0.0,0.0,0.0
1665676040431,-0.66015625,-0.16894531,0.7363281,-8.65625,-6.09375,2.625,0.0,0.0,0.0
1665676040469,-0.63183594,-0.17382812,0.7285156,-4.9375,-3.46875,1.34375,0.0,0.0,0.0
1665676040469,-0.63183594,-0.17382812,0.7285156,-4.9375,-3.46875,1.34375,0.0,0.0,0.0
1665676040509,-0.62890625,-0.19335938,0.72265625,-2.53125,-1.3125,0.96875,0.0,0.0,0.0
1665676040509,-0.62890625,-0.19335938,0.72265625,-2.53125,-1.3125,0.96875,0.0,0.0,0.0
1665676040549,-0.640625,-0.18066406,0.71875,-1.625,1.65625,-0.0625,0.0,0.0,0.0
1665676040550,-0.640625,-0.18066406,0.71875,-1.625,1.65625,-0.0625,0.0,0.0,0.0
1665676040589,-0.64453125,-0.17675781,0.7089844,-1.625,2.34375,-0.0625,0.0,0.0,0.0
1665676040589,-0.64453125,-0.17675781,0.7089844,-1.625,2.34375,-0.0625,0.0,0.0,0.0
1665676040630,-0.6376953,-0.17675781,0.7001953,-1.9375,-0.53125,0.75,0.0,0.0,0.0
1665676040630,-0.6376953,-0.17675781,0.7001953,-1.9375,-0.53125,0.75,0.0,0.0,0.0
1665676040670,-0.6376953,-0.19628906,0.7373047,-1.5625,-0.53125,0.4375,0.0,0.0,0.0
1665676040670,-0.6376953,-0.19628906,0.7373047,-1.5625,-0.53125,0.4375,0.0,0.0,0.0
1665676040729,-0.62402344,-0.18457031,0.72558594,-1.9375,-0.84375,0.875,-54.0,7.0625,-112.375
1665676040729,-0.62402344,-0.18457031,0.72558594,-1.9375,-0.84375,0.875,-54.0,7.0625,-112.375
1665676040749,-0.63183594,-0.20410156,0.7246094,-3.6875,-1.375,0.3125,0.0,0.0,0.0
1665676040749,-0.63183594,-0.20410156,0.7246094,-3.6875,-1.375,0.3125,0.0,0.0,0.0
1665676040789,-0.625,-0.20605469,0.7373047,0.21875,3.3125,1.21875,0.0,0.0,0.0
1665676040789,-0.625,-0.20605469,0.7373047,0.21875,3.3125,1.21875,0.0,0.0,0.0
1665676040850,-0.62890625,-0.19726562,0.71191406,1.125,3.25,2.03125,0.0,0.0,0.0
1665676040850,-0.62890625,-0.19726562,0.71191406,1.125,3.25,2.03125,0.0,0.0,0.0
1665676040869,-0.6464844,-0.18457031,0.71972656,1.59375,4.15625,1.90625,0.0,0.0,0.0
1665676040869,-0.6464844,-0.18457031,0.71972656,1.59375,4.15625,1.90625,0.0,0.0,0.0
1665676040910,-0.64941406,-0.19042969,0.7158203,1.0,2.75,2.75,0.0,0.0,0.0
1665676040910,-0.64941406,-0.19042969,0.7158203,1.0,2.75,2.75,0.0,0.0,0.0
1665676040950,-0.63671875,-0.19921875,0.7216797,1.25,0.5,2.5625,0.0,0.0,0.0
1665676040950,-0.63671875,-0.19921875,0.7216797,1.25,0.5,2.5625,0.0,0.0,0.0
1665676041010,-0.63964844,-0.17382812,0.7265625,1.59375,-0.15625,1.65625,0.0,0.0,0.0
1665676041010,-0.63964844,-0.17382812,0.7265625,1.59375,-0.15625,1.65625,0.0,0.0,0.0
1665676041029,-0.64746094,-0.16601562,0.71484375,0.75,-0.15625,0.75,0.0,0.0,0.0
1665676041029,-0.64746094,-0.16601562,0.71484375,0.75,-0.15625,0.75,0.0,0.0,0.0
1665676041070,-0.64941406,-0.17285156,0.71972656,0.5625,-0.34375,-0.0625,0.0,0.0,0.0
1665676041069,-0.64941406,-0.17285156,0.71972656,0.5625,-0.34375,-0.0625,0.0,0.0,0.0
1665676041111,-0.63378906,-0.17480469,0.7060547,-0.15625,-0.84375,0.0,0.0,0.0,0.0
1665676041111,-0.63378906,-0.17480469,0.7060547,-0.15625,-0.84375,0.0,0.0,0.0,0.0
1665676041150,-0.6357422,-0.17480469,0.72558594,0.09375,0.5,0.0,0.0,0.0,0.0
1665676041150,-0.6357422,-0.17480469,0.72558594,0.09375,0.5,0.0,0.0,0.0,0.0
1665676041189,-0.6425781,-0.18457031,0.7089844,-0.71875,-0.15625,-0.25,0.0,0.0,0.0
1665676041189,-0.6425781,-0.18457031,0.7089844,-0.71875,-0.15625,-0.25,0.0,0.0,0.0
1665676041231,-0.64160156,-0.17480469,0.7265625,-0.34375,0.75,-0.0625,-52.375,8.0,-111.8125
1665676041231,-0.64160156,-0.17480469,0.7265625,-0.34375,0.75,-0.0625,-52.375,8.0,-111.8125
1665676041273,-0.6435547,-0.18066406,0.7109375,-0.28125,-0.71875,-0.0625,0.0,0.0,0.0
1665676041273,-0.6435547,-0.18066406,0.7109375,-0.28125,-0.71875,-0.0625,0.0,0.0,0.0
1665676041310,-0.640625,-0.18066406,0.71972656,-0.09375,0.1875,-0.1875,0.0,0.0,0.0
1665676041310,-0.640625,-0.18066406,0.71972656,-0.09375,0.1875,-0.1875,0.0,0.0,0.0
1665676041350,-0.6357422,-0.17089844,0.7167969,-0.34375,-0.90625,-0.125,0.0,0.0,0.0
1665676041350,-0.6357422,-0.17089844,0.7167969,-0.34375,-0.90625,-0.125,0.0,0.0,0.0
1665676041391,-0.64746094,-0.17675781,0.7236328,0.03125,-0.21875,-0.1875,0.0,0.0,0.0
1665676041391,-0.64746094,-0.17675781,0.7236328,0.03125,-0.21875,-0.1875,0.0,0.0,0.0
1665676041429,-0.6308594,-0.18359375,0.703125,0.25,0.625,0.0,0.0,0.0,0.0
1665676041429,-0.6308594,-0.18359375,0.703125,0.25,0.625,0.0,0.0,0.0,0.0
1665676041470,-0.63964844,-0.18261719,0.73046875,-0.21875,-0.21875,-0.375,0.0,0.0,0.0
1665676041470,-0.63964844,-0.18261719,0.73046875,-0.21875,-0.21875,-0.375,0.0,0.0,0.0
1665676041511,-0.63964844,-0.17675781,0.7236328,0.21875,-0.53125,0.0,0.0,0.0,0.0
1665676041511,-0.63964844,-0.17675781,0.7236328,0.21875,-0.53125,0.0,0.0,0.0,0.0
1665676041550,-0.63964844,-0.17773438,0.72558594,-0.21875,-0.84375,0.1875,0.0,0.0,0.0
1665676041551,-0.63964844,-0.17773438,0.72558594,-0.21875,-0.84375,0.1875,0.0,0.0,0.0
1665676041591,-0.63378906,-0.17871094,0.7207031,0.09375,0.25,0.0,0.0,0.0,0.0
1665676041591,-0.63378906,-0.17871094,0.7207031,0.09375,0.25,0.0,0.0,0.0,0.0
1665676041650,-0.6308594,-0.17675781,0.71191406,0.03125,-0.34375,-0.1875,0.0,0.0,0.0
1665676041650,-0.6308594,-0.17675781,0.71191406,0.03125,-0.34375,-0.1875,0.0,0.0,0.0
1665676041677,-0.64941406,-0.18066406,0.7138672,-0.15625,-1.03125,-0.125,0.0,0.0,0.0
1665676041678,-0.64941406,-0.18066406,0.7138672,-0.15625,-1.03125,-0.125,0.0,0.0,0.0
1665676041710,-0.6347656,-0.18164062,0.7265625,0.21875,-0.09375,-0.25,-53.25,8.875,-112.375
1665676041710,-0.6347656,-0.18164062,0.7265625,0.21875,-0.09375,-0.25,-53.25,8.875,-112.375
1665676041769,-0.6484375,-0.17382812,0.7285156,-0.03125,-0.59375,-0.1875,0.0,0.0,0.0
1665676041769,-0.6484375,-0.17382812,0.7285156,-0.03125,-0.59375,-0.1875,0.0,0.0,0.0
1665676041790,-0.6455078,-0.18652344,0.72558594,0.09375,0.5,-0.3125,0.0,0.0,0.0
1665676041790,-0.6455078,-0.18652344,0.72558594,0.09375,0.5,-0.3125,0.0,0.0,0.0
1665676041831,-0.6386719,-0.171875,0.7167969,0.3125,-0.53125,-0.53125,0.0,0.0,0.0
1665676041831,-0.6386719,-0.171875,0.7167969,0.3125,-0.53125,-0.53125,0.0,0.0,0.0
1665676041869,-0.6386719,-0.16992188,0.7236328,0.15625,0.15625,-0.71875,0.0,0.0,0.0
1665676041870,-0.6386719,-0.16992188,0.7236328,0.15625,0.15625,-0.71875,0.0,0.0,0.0
1665676041910,-0.64941406,-0.17871094,0.72265625,0.625,0.375,-1.09375,0.0,0.0,0.0
1665676041910,-0.64941406,-0.17871094,0.72265625,0.625,0.375,-1.09375,0.0,0.0,0.0
1665676041953,-0.6347656,-0.17382812,0.7138672,1.1875,1.1875,-0.90625,0.0,0.0,0.0
1665676041953,-0.6347656,-0.17382812,0.7138672,1.1875,1.1875,-0.90625,0.0,0.0,0.0
1665676041990,-0.63671875,-0.17089844,0.7109375,1.125,0.9375,-1.40625,0.0,0.0,0.0
1665676041992,-0.63671875,-0.17089844,0.7109375,1.125,0.9375,-1.40625,0.0,0.0,0.0
1665676042031,-0.64160156,-0.18457031,0.71875,0.21875,0.9375,-2.0,0.0,0.0,0.0
1665676042031,-0.64160156,-0.18457031,0.71875,0.21875,0.9375,-2.0,0.0,0.0,0.0
1665676042071,-0.6347656,-0.18554688,0.7314453,-0.46875,-1.5,-1.71875,0.0,0.0,0.0
1665676042070,-0.6347656,-0.18554688,0.7314453,-0.46875,-1.5,-1.71875,0.0,0.0,0.0
1665676042109,-0.62890625,-0.18164062,0.7324219,-0.03125,0.625,-1.59375,0.0,0.0,0.0
1665676042109,-0.62890625,-0.18164062,0.7324219,-0.03125,0.625,-1.59375,0.0,0.0,0.0
1665676042151,-0.6357422,-0.18847656,0.7158203,0.21875,-0.09375,-0.59375,0.0,0.0,0.0
1665676042151,-0.6357422,-0.18847656,0.7158203,0.21875,-0.09375,-0.59375,0.0,0.0,0.0
1665676042193,-0.62890625,-0.18066406,0.7167969,0.21875,0.375,-0.71875,0.0,0.0,0.0
1665676042193,-0.62890625,-0.18066406,0.7167969,0.21875,0.375,-0.71875,0.0,0.0,0.0
1665676042250,-0.6464844,-0.19238281,0.7128906,0.25,0.1875,-0.59375,-51.625,7.25,-112.25
1665676042250,-0.6464844,-0.19238281,0.7128906,0.25,0.1875,-0.59375,-51.625,7.25,-112.25
1665676042270,-0.6425781,-0.18652344,0.7167969,0.8125,-0.46875,-0.65625,0.0,0.0,0.0
1665676042270,-0.6425781,-0.18652344,0.7167969,0.8125,-0.46875,-0.65625,0.0,0.0,0.0
1665676042312,-0.62597656,-0.18457031,0.7109375,0.375,-0.34375,-0.125,0.0,0.0,0.0
1665676042312,-0.62597656,-0.18457031,0.7109375,0.375,-0.34375,-0.125,0.0,0.0,0.0
1665676042351,-0.6503906,-0.17675781,0.7363281,0.4375,-0.34375,0.0625,0.0,0.0,0.0
1665676042353,-0.6503906,-0.17675781,0.7363281,0.4375,-0.34375,0.0625,0.0,0.0,0.0
1665676042411,-0.62890625,-0.17773438,0.7236328,-0.09375,0.03125,-0.375,0.0,0.0,0.0
1665676042411,-0.62890625,-0.17773438,0.7236328,-0.09375,0.03125,-0.375,0.0,0.0,0.0
1665676042453,-0.63378906,-0.18066406,0.71484375,-0.09375,-0.46875,-0.65625,0.0,0.0,0.0
1665676042452,-0.63378906,-0.18066406,0.71484375,-0.09375,-0.46875,-0.65625,0.0,0.0,0.0
1665676042455,-0.6357422,-0.17480469,0.7236328,-0.09375,-0.21875,-0.1875,0.0,0.0,0.0
1665676042454,-0.6357422,-0.17480469,0.7236328,-0.09375,-0.21875,-0.1875,0.0,0.0,0.0
1665676042530,-0.6347656,-0.18164062,0.7265625,-0.34375,-0.21875,-0.4375,0.0,0.0,0.0
1665676042530,-0.6347656,-0.18164062,0.7265625,-0.34375,-0.21875,-0.4375,0.0,0.0,0.0
1665676042549,-0.63671875,-0.18359375,0.71972656,-0.40625,-0.03125,-0.4375,0.0,0.0,0.0
1665676042549,-0.63671875,-0.18359375,0.71972656,-0.40625,-0.03125,-0.4375,0.0,0.0,0.0
1665676042594,-0.6328125,-0.18457031,0.73828125,0.09375,0.5,-0.25,0.0,0.0,0.0
1665676042594,-0.6328125,-0.18457031,0.73828125,0.09375,0.5,-0.25,0.0,0.0,0.0
1665676042630,-0.6347656,-0.18164062,0.7216797,0.15625,0.3125,-0.375,0.0,0.0,0.0
1665676042629,-0.6347656,-0.18164062,0.7216797,0.15625,0.3125,-0.375,0.0,0.0,0.0
1665676042670,-0.6376953,-0.18554688,0.7402344,0.25,-0.34375,-0.125,0.0,0.0,0.0
1665676042670,-0.6376953,-0.18554688,0.7402344,0.25,-0.34375,-0.125,0.0,0.0,0.0
1665676042711,-0.64160156,-0.18652344,0.7294922,0.4375,-0.09375,-0.0625,-52.1875,9.625,-112.125
1665676042711,-0.64160156,-0.18652344,0.7294922,0.4375,-0.09375,-0.0625,-52.1875,9.625,-112.125
1665676042751,-0.63671875,-0.17089844,0.71777344,0.6875,-0.40625,0.0625,0.0,0.0,0.0
1665676042751,-0.63671875,-0.17089844,0.71777344,0.6875,-0.40625,0.0625,0.0,0.0,0.0
1665676042790,-0.6425781,-0.1796875,0.7314453,0.5625,-0.09375,0.0625,0.0,0.0,0.0
1665676042791,-0.6425781,-0.1796875,0.7314453,0.5625,-0.09375,0.0625,0.0,0.0,0.0
1665676042830,-0.6298828,-0.17578125,0.72265625,0.5625,0.09375,-0.0625,0.0,0.0,0.0
1665676042830,-0.6298828,-0.17578125,0.72265625,0.5625,0.09375,-0.0625,0.0,0.0,0.0
1665676042871,-0.6357422,-0.17578125,0.7285156,0.4375,0.15625,0.0,0.0,0.0,0.0
1665676042871,-0.6357422,-0.17578125,0.7285156,0.4375,0.15625,0.0,0.0,0.0,0.0
1665676042910,-0.6376953,-0.17578125,0.71777344,0.25,0.09375,0.0625,0.0,0.0,0.0
1665676042910,-0.6376953,-0.17578125,0.71777344,0.25,0.09375,0.0625,0.0,0.0,0.0
1665676042950,-0.640625,-0.17871094,0.73046875,-0.03125,-0.28125,-0.0625,0.0,0.0,0.0
1665676042952,-0.640625,-0.17871094,0.73046875,-0.03125,-0.28125,-0.0625,0.0,0.0,0.0
1665676042992,-0.63378906,-0.17871094,0.71484375,0.03125,0.1875,0.5,0.0,0.0,0.0
1665676042993,-0.63378906,-0.17871094,0.71484375,0.03125,0.1875,0.5,0.0,0.0,0.0
1665676043070,-0.6279297,-0.17675781,0.7294922,-0.34375,0.6875,-0.3125,0.0,0.0,0.0
1665676043070,-0.6279297,-0.17675781,0.7294922,-0.34375,0.6875,-0.3125,0.0,0.0,0.0
1665676043073,-0.63964844,-0.18066406,0.7285156,0.09375,-0.15625,-0.25,0.0,0.0,0.0
1665676043072,-0.63964844,-0.18066406,0.7285156,0.09375,-0.15625,-0.25,0.0,0.0,0.0
1665676043110,-0.6357422,-0.18066406,0.72753906,0.15625,-0.40625,0.0625,0.0,0.0,0.0
1665676043110,-0.6357422,-0.18066406,0.72753906,0.15625,-0.40625,0.0625,0.0,0.0,0.0
1665676043150,-0.6357422,-0.18164062,0.7265625,-0.34375,-0.03125,-0.25,0.0,0.0,0.0
1665676043150,-0.6357422,-0.18164062,0.7265625,-0.34375,-0.03125,-0.25,0.0,0.0,0.0
1665676043191,-0.63378906,-0.17285156,0.7138672,0.15625,0.15625,-0.125,0.0,0.0,0.0
1665676043190,-0.63378906,-0.17285156,0.7138672,0.15625,0.15625,-0.125,0.0,0.0,0.0
1665676043230,-0.640625,-0.18847656,0.71972656,0.09375,0.1875,-0.0625,-53.375,8.0,-111.5
1665676043230,-0.640625,-0.18847656,0.71972656,0.09375,0.1875,-0.0625,-53.375,8.0,-111.5
1665676043292,-0.6376953,-0.17773438,0.7207031,-0.40625,0.25,-0.25,0.0,0.0,0.0
1665676043292,-0.6376953,-0.17773438,0.7207031,-0.40625,0.25,-0.25,0.0,0.0,0.0
1665676043312,-0.63183594,-0.17773438,0.72753906,-0.03125,-0.21875,-0.25,0.0,0.0,0.0
1665676043312,-0.63183594,-0.17773438,0.72753906,-0.03125,-0.21875,-0.25,0.0,0.0,0.0
1665676043350,-0.63671875,-0.17578125,0.71972656,-0.28125,0.03125,-0.1875,0.0,0.0,0.0
1665676043350,-0.63671875,-0.17578125,0.71972656,-0.28125,0.03125,-0.1875,0.0,0.0,0.0
1665676043391,-0.6308594,-0.17675781,0.7246094,-0.15625,0.03125,-0.3125,0.0,0.0,0.0
1665676043391,-0.6308594,-0.17675781,0.7246094,-0.15625,0.03125,-0.3125,0.0,0.0,0.0
1665676043430,-0.63671875,-0.17675781,0.71875,-0.09375,-0.28125,-0.125,0.0,0.0,0.0
1665676043430,-0.63671875,-0.17675781,0.71875,-0.09375,-0.28125,-0.125,0.0,0.0,0.0
1665676043470,-0.6308594,-0.18066406,0.71484375,-0.21875,-0.03125,-0.25,0.0,0.0,0.0
1665676043470,-0.6308594,-0.18066406,0.71484375,-0.21875,-0.03125,-0.25,0.0,0.0,0.0
1665676043511,-0.63964844,-0.18359375,0.7265625,-0.09375,-0.15625,-0.3125,0.0,0.0,0.0
1665676043511,-0.63964844,-0.18359375,0.7265625,-0.09375,-0.15625,-0.3125,0.0,0.0,0.0
1665676043552,-0.63378906,-0.17480469,0.72558594,0.09375,-0.40625,-0.125,0.0,0.0,0.0
1665676043552,-0.63378906,-0.17480469,0.72558594,0.09375,-0.40625,-0.125,0.0,0.0,0.0
1665676043592,-0.6376953,-0.18652344,0.73046875,0.03125,-0.28125,-0.0625,0.0,0.0,0.0
1665676043592,-0.6376953,-0.18652344,0.73046875,0.03125,-0.28125,-0.0625,0.0,0.0,0.0
1665676043630,-0.6425781,-0.17578125,0.71972656,-0.15625,0.03125,-0.1875,0.0,0.0,0.0
1665676043630,-0.6425781,-0.17578125,0.71972656,-0.15625,0.03125,-0.1875,0.0,0.0,0.0
1665676043670,-0.63671875,-0.18261719,0.7236328,-0.03125,-0.03125,-0.1875,0.0,0.0,0.0
1665676043670,-0.63671875,-0.18261719,0.7236328,-0.03125,-0.03125,-0.1875,0.0,0.0,0.0
1665676043710,-0.6308594,-0.17773438,0.72753906,-0.15625,-0.34375,-0.25,-52.625,9.0625,-111.5
1665676043710,-0.6308594,-0.17773438,0.72753906,-0.15625,-0.34375,-0.25,-52.625,9.0625,-111.5
1665676043750,-0.6347656,-0.171875,0.7363281,-0.15625,-0.21875,-0.375,0.0,0.0,0.0
1665676043750,-0.6347656,-0.171875,0.7363281,-0.15625,-0.21875,-0.375,0.0,0.0,0.0
1665676043790,-0.6455078,-0.18261719,0.7236328,-0.03125,0.03125,0.125,0.0,0.0,0.0
1665676043790,-0.6455078,-0.18261719,0.7236328,-0.03125,0.03125,0.125,0.0,0.0,0.0
1665676043831,-0.6376953,-0.17871094,0.72753906,-0.53125,0.4375,-0.375,0.0,0.0,0.0
1665676043831,-0.6376953,-0.17871094,0.72753906,-0.53125,0.4375,-0.375,0.0,0.0,0.0
1665676043870,-0.6357422,-0.18261719,0.71875,-0.15625,-0.28125,-0.46875,0.0,0.0,0.0
1665676043870,-0.6357422,-0.18261719,0.71875,-0.15625,-0.28125,-0.46875,0.0,0.0,0.0
1665676043910,-0.62890625,-0.1796875,0.7265625,-0.15625,-0.21875,-0.125,0.0,0.0,0.0
1665676043910,-0.62890625,-0.1796875,0.7265625,-0.15625,-0.21875,-0.125,0.0,0.0,0.0
1665676043971,-0.62890625,-0.18457031,0.7294922,-0.21875,0.09375,-0.375,0.0,0.0,0.0
1665676043971,-0.62890625,-0.18457031,0.7294922,-0.21875,0.09375,-0.375,0.0,0.0,0.0
1665676043989,-0.63183594,-0.18261719,0.7392578,0.03125,0.09375,-0.0625,0.0,0.0,0.0
1665676043989,-0.63183594,-0.18261719,0.7392578,0.03125,0.09375,-0.0625,0.0,0.0,0.0
1665676044050,-0.62890625,-0.1796875,0.7294922,0.03125,0.09375,0.0,0.0,0.0,0.0
1665676044050,-0.62890625,-0.1796875,0.7294922,0.03125,0.09375,0.0,0.0,0.0,0.0
1665676044070,-0.63671875,-0.17382812,0.7285156,-0.15625,0.25,-0.0625,0.0,0.0,0.0
1665676044070,-0.63671875,-0.17382812,0.7285156,-0.15625,0.25,-0.0625,0.0,0.0,0.0
1665676044110,-0.63183594,-0.18066406,0.74609375,-0.15625,-0.03125,-0.125,0.0,0.0,0.0
1665676044110,-0.63183594,-0.18066406,0.74609375,-0.15625,-0.03125,-0.125,0.0,0.0,0.0
1665676044170,-0.63378906,-0.17871094,0.734375,-0.09375,0.25,0.0,0.0,0.0,0.0
1665676044170,-0.63378906,-0.17871094,0.734375,-0.09375,0.25,0.0,0.0,0.0,0.0
1665676044189,-0.6435547,-0.18652344,0.7265625,-0.09375,0.15625,0.0,0.0,0.0,0.0
1665676044189,-0.6435547,-0.18652344,0.7265625,-0.09375,0.15625,0.0,0.0,0.0,0.0
1665676044233,-0.63183594,-0.171875,0.7314453,-0.15625,0.15625,0.125,-52.5,8.5625,-110.625
1665676044233,-0.63183594,-0.171875,0.7314453,-0.15625,0.15625,0.125,-52.5,8.5625,-110.625
1665676044270,-0.6347656,-0.18652344,0.7285156,-0.21875,0.3125,0.0,0.0,0.0,0.0
1665676044270,-0.6347656,-0.18652344,0.7285156,-0.21875,0.3125,0.0,0.0,0.0,0.0
1665676044334,-0.6298828,-0.18457031,0.71972656,-0.09375,0.3125,0.0625,0.0,0.0,0.0
1665676044334,-0.6298828,-0.18457031,0.71972656,-0.09375,0.3125,0.0625,0.0,0.0,0.0
1665676044350,-0.63183594,-0.18652344,0.7265625,-0.21875,0.4375,0.125,0.0,0.0,0.0
1665676044350,-0.63183594,-0.18652344,0.7265625,-0.21875,0.4375,0.125,0.0,0.0,0.0
1665676044390,-0.62890625,-0.171875,0.7285156,-0.21875,0.375,0.1875,0.0,0.0,0.0
1665676044390,-0.62890625,-0.171875,0.7285156,-0.21875,0.375,0.1875,0.0,0.0,0.0
1665676044429,-0.6308594,-0.1796875,0.72558594,-0.09375,0.25,0.0625,0.0,0.0,0.0
1665676044429,-0.6308594,-0.1796875,0.72558594,-0.09375,0.25,0.0625,0.0,0.0,0.0
1665676044449,-0.62890625,-0.17675781,0.7265625,-0.09375,0.15625,0.125,0.0,0.0,0.0
1665676044449,-0.62890625,-0.17675781,0.7265625,-0.09375,0.15625,0.125,0.0,0.0,0.0
1665676044490,-0.6279297,-0.17773438,0.7246094,-0.15625,0.4375,0.0625,0.0,0.0,0.0
1665676044490,-0.6279297,-0.17773438,0.7246094,-0.15625,0.4375,0.0625,0.0,0.0,0.0
1665676044530,-0.6328125,-0.17675781,0.7158203,-0.28125,0.5,0.0,0.0,0.0,0.0
1665676044530,-0.6328125,-0.17675781,0.7158203,-0.28125,0.5,0.0,0.0,0.0,0.0
1665676044570,-0.63671875,-0.17480469,0.73046875,-0.15625,-0.09375,0.0,0.0,0.0,0.0
1665676044570,-0.63671875,-0.17480469,0.73046875,-0.15625,-0.09375,0.0,0.0,0.0,0.0
1665676044610,-0.6357422,-0.18359375,0.7128906,-0.15625,-0.15625,-0.0625,0.0,0.0,0.0
1665676044610,-0.6357422,-0.18359375,0.7128906,-0.15625,-0.15625,-0.0625,0.0,0.0,0.0
1665676044650,-0.63378906,-0.18457031,0.7324219,-0.15625,0.03125,0.125,0.0,0.0,0.0
1665676044650,-0.63378906,-0.18457031,0.7324219,-0.15625,0.03125,0.125,0.0,0.0,0.0
1665676044711,-0.6503906,-0.19042969,0.71875,-0.40625,0.3125,-0.1875,-52.9375,8.5625,-111.375
1665676044711,-0.6503906,-0.19042969,0.71875,-0.40625,0.3125,-0.1875,-52.9375,8.5625,-111.375
1665676044729,-0.6298828,-0.17480469,0.73535156,-0.21875,0.25,-0.4375,0.0,0.0,0.0
1665676044729,-0.6298828,-0.17480469,0.73535156,-0.21875,0.25,-0.4375,0.0,0.0,0.0
1665676044770,-0.63964844,-0.17480469,0.7236328,-0.03125,0.375,0.0625,0.0,0.0,0.0
1665676044770,-0.63964844,-0.17480469,0.7236328,-0.03125,0.375,0.0625,0.0,0.0,0.0
1665676044810,-0.63964844,-0.18457031,0.71875,-0.46875,0.75,0.0625,0.0,0.0,0.0
1665676044810,-0.63964844,-0.18457031,0.71875,-0.46875,0.75,0.0625,0.0,0.0,0.0
1665676044850,-0.6435547,-0.18847656,0.71777344,-0.40625,0.8125,0.25,0.0,0.0,0.0
1665676044850,-0.6435547,-0.18847656,0.71777344,-0.40625,0.8125,0.25,0.0,0.0,0.0
1665676044890,-0.6269531,-0.18261719,0.734375,-0.40625,0.8125,0.4375,0.0,0.0,0.0
1665676044890,-0.6269531,-0.18261719,0.734375,-0.40625,0.8125,0.4375,0.0,0.0,0.0
1665676044930,-0.6298828,-0.17675781,0.7216797,-0.34375,0.875,0.5,0.0,0.0,0.0
1665676044930,-0.6298828,-0.17675781,0.7216797,-0.34375,0.875,0.5,0.0,0.0,0.0
1665676044971,-0.6376953,-0.19042969,0.7285156,-0.53125,0.9375,0.1875,0.0,0.0,0.0
1665676044972,-0.6376953,-0.19042969,0.7285156,-0.53125,0.9375,0.1875,0.0,0.0,0.0
1665676045010,-0.6328125,-0.17285156,0.73535156,-0.15625,0.3125,0.3125,0.0,0.0,0.0
1665676045010,-0.6328125,-0.17285156,0.73535156,-0.15625,0.3125,0.3125,0.0,0.0,0.0
1665676045051,-0.6455078,-0.17871094,0.72753906,-0.15625,0.625,0.25,0.0,0.0,0.0
1665676045051,-0.6455078,-0.17871094,0.72753906,-0.15625,0.625,0.25,0.0,0.0,0.0
1665676045091,-0.6425781,-0.18457031,0.7167969,-0.15625,0.8125,0.1875,0.0,0.0,0.0
1665676045091,-0.6425781,-0.18457031,0.7167969,-0.15625,0.8125,0.1875,0.0,0.0,0.0
1665676045129,-0.6484375,-0.1796875,0.7265625,-0.28125,0.75,0.3125,0.0,0.0,0.0
1665676045130,-0.6484375,-0.1796875,0.7265625,-0.28125,0.75,0.3125,0.0,0.0,0.0
1665676045170,-0.6269531,-0.1796875,0.7265625,-0.28125,0.875,0.375,0.0,0.0,0.0
1665676045170,-0.6269531,-0.1796875,0.7265625,-0.28125,0.875,0.375,0.0,0.0,0.0
1665676045230,-0.6425781,-0.17773438,0.7324219,-0.28125,0.8125,0.3125,-51.75,8.875,-111.625
1665676045230,-0.6425781,-0.17773438,0.7324219,-0.28125,0.8125,0.3125,-51.75,8.875,-111.625
1665676045249,-0.64746094,-0.18164062,0.7265625,-0.40625,0.75,0.1875,0.0,0.0,0.0
1665676045249,-0.64746094,-0.18164062,0.7265625,-0.40625,0.75,0.1875,0.0,0.0,0.0
1665676045290,-0.64941406,-0.17675781,0.7158203,-0.40625,0.6875,0.3125,0.0,0.0,0.0
1665676045290,-0.64941406,-0.17675781,0.7158203,-0.40625,0.6875,0.3125,0.0,0.0,0.0
1665676045330,-0.64160156,-0.18261719,0.69921875,-0.34375,1.0,0.375,0.0,0.0,0.0
1665676045330,-0.64160156,-0.18261719,0.69921875,-0.34375,1.0,0.375,0.0,0.0,0.0
1665676045370,-0.63671875,-0.17871094,0.73828125,-0.46875,0.8125,0.125,0.0,0.0,0.0
1665676045370,-0.63671875,-0.17871094,0.73828125,-0.46875,0.8125,0.125,0.0,0.0,0.0
1665676045410,-0.64746094,-0.17285156,0.72265625,-0.09375,0.5625,0.0,0.0,0.0,0.0
1665676045410,-0.64746094,-0.17285156,0.72265625,-0.09375,0.5625,0.0,0.0,0.0,0.0
1665676045452,-0.63671875,-0.17773438,0.71777344,-0.21875,0.1875,0.0625,0.0,0.0,0.0
1665676045452,-0.63671875,-0.17773438,0.71777344,-0.21875,0.1875,0.0625,0.0,0.0,0.0
1665676045490,-0.63964844,-0.17578125,0.7138672,-0.15625,0.75,0.0,0.0,0.0,0.0
1665676045490,-0.63964844,-0.17578125,0.7138672,-0.15625,0.75,0.0,0.0,0.0,0.0
1665676045530,-0.6435547,-0.17382812,0.7236328,-0.40625,0.5,0.3125,0.0,0.0,0.0
1665676045529,-0.6435547,-0.17382812,0.7236328,-0.40625,0.5,0.3125,0.0,0.0,0.0
1665676045612,-0.6435547,-0.18066406,0.71972656,-0.71875,0.8125,0.25,0.0,0.0,0.0
1665676045612,-0.6435547,-0.18066406,0.71972656,-0.71875,0.8125,0.25,0.0,0.0,0.0
1665676045614,-0.64453125,-0.18554688,0.73046875,-0.46875,0.875,-0.125,0.0,0.0,0.0
1665676045615,-0.64453125,-0.18554688,0.73046875,-0.46875,0.875,-0.125,0.0,0.0,0.0
1665676045650,-0.6435547,-0.1796875,0.7109375,-0.46875,0.3125,0.125,0.0,0.0,0.0
1665676045650,-0.6435547,-0.1796875,0.7109375,-0.46875,0.3125,0.125,0.0,0.0,0.0
1665676045713,-0.6435547,-0.18945312,0.7216797,-0.28125,0.1875,-0.125,-55.0625,7.8125,-111.625
1665676045713,-0.6435547,-0.18945312,0.7216797,-0.28125,0.1875,-0.125,-55.0625,7.8125,-111.625
1665676045730,-0.6455078,-0.18359375,0.7285156,-0.09375,0.375,0.125,0.0,0.0,0.0
1665676045730,-0.6455078,-0.18359375,0.7285156,-0.09375,0.375,0.125,0.0,0.0,0.0
1665676045771,-0.64941406,-0.18457031,0.7050781,-0.09375,0.625,0.125,0.0,0.0,0.0
1665676045771,-0.64941406,-0.18457031,0.7050781,-0.09375,0.625,0.125,0.0,0.0,0.0
1665676045810,-0.64746094,-0.18066406,0.7109375,-0.09375,0.3125,0.125,0.0,0.0,0.0
1665676045810,-0.64746094,-0.18066406,0.7109375,-0.09375,0.3125,0.125,0.0,0.0,0.0
1665676045850,-0.6435547,-0.18066406,0.7285156,-0.09375,0.1875,-0.0625,0.0,0.0,0.0
1665676045850,-0.6435547,-0.18066406,0.7285156,-0.09375,0.1875,-0.0625,0.0,0.0,0.0
1665676045890,-0.63964844,-0.17675781,0.71777344,-0.28125,0.15625,0.1875,0.0,0.0,0.0
1665676045892,-0.63964844,-0.17675781,0.71777344,-0.28125,0.15625,0.1875,0.0,0.0,0.0
1665676045931,-0.6357422,-0.17578125,0.7167969,-0.15625,0.03125,0.0625,0.0,0.0,0.0
1665676045933,-0.6357422,-0.17578125,0.7167969,-0.15625,0.03125,0.0625,0.0,0.0,0.0
1665676046010,-0.6503906,-0.18261719,0.7216797,0.03125,-0.15625,0.0625,0.0,0.0,0.0
1665676046010,-0.6503906,-0.18261719,0.7216797,0.03125,-0.15625,0.0625,0.0,0.0,0.0
1665676046012,-0.63964844,-0.17871094,0.7167969,-0.03125,0.03125,-0.125,0.0,0.0,0.0
1665676046013,-0.63964844,-0.17871094,0.7167969,-0.03125,0.03125,-0.125,0.0,0.0,0.0
1665676046051,-0.64160156,-0.19335938,0.7207031,0.03125,0.09375,-0.1875,0.0,0.0,0.0
1665676046051,-0.64160156,-0.19335938,0.7207031,0.03125,0.09375,-0.1875,0.0,0.0,0.0
1665676046090,-0.6464844,-0.18359375,0.7324219,-0.03125,-0.03125,0.0,0.0,0.0,0.0
1665676046090,-0.6464844,-0.18359375,0.7324219,-0.03125,-0.03125,0.0,0.0,0.0,0.0
1665676046133,-0.64941406,-0.17480469,0.7167969,-0.09375,0.03125,-0.125,0.0,0.0,0.0
1665676046133,-0.64941406,-0.17480469,0.7167969,-0.09375,0.03125,-0.125,0.0,0.0,0.0
1665676046170,-0.6386719,-0.18554688,0.7109375,-0.15625,-0.15625,0.0625,0.0,0.0,0.0
1665676046170,-0.6386719,-0.18554688,0.7109375,-0.15625,-0.15625,0.0625,0.0,0.0,0.0
1665676046230,-0.64453125,-0.17773438,0.71191406,-0.15625,-0.15625,0.0,-53.125,9.0625,-112.5625
1665676046230,-0.64453125,-0.17773438,0.71191406,-0.15625,-0.15625,0.0,-53.125,9.0625,-112.5625
1665676046250,-0.6484375,-0.18554688,0.70410156,-0.15625,0.03125,-0.0625,0.0,0.0,0.0
1665676046250,-0.6484375,-0.18554688,0.70410156,-0.15625,0.03125,-0.0625,0.0,0.0,0.0
1665676046290,-0.6425781,-0.18164062,0.7167969,0.03125,-0.21875,-0.0625,0.0,0.0,0.0
1665676046290,-0.6425781,-0.18164062,0.7167969,0.03125,-0.21875,-0.0625,0.0,0.0,0.0
1665676046330,-0.64160156,-0.17871094,0.7128906,0.03125,-0.28125,-0.375,0.0,0.0,0.0
1665676046329,-0.64160156,-0.17871094,0.7128906,0.03125,-0.28125,-0.375,0.0,0.0,0.0
1665676046370,-0.64160156,-0.17871094,0.71972656,0.03125,-0.40625,-0.125,0.0,0.0,0.0
1665676046370,-0.64160156,-0.17871094,0.71972656,0.03125,-0.40625,-0.125,0.0,0.0,0.0
1665676046410,-0.6455078,-0.18359375,0.7080078,0.09375,-0.28125,-0.3125,0.0,0.0,0.0
1665676046410,-0.6455078,-0.18359375,0.7080078,0.09375,-0.28125,-0.3125,0.0,0.0,0.0
1665676046450,-0.6376953,-0.17871094,0.70703125,0.03125,0.03125,-0.53125,0.0,0.0,0.0
1665676046450,-0.6376953,-0.17871094,0.70703125,0.03125,0.03125,-0.53125,0.0,0.0,0.0
1665676046493,-0.6347656,-0.16699219,0.7207031,-0.15625,-0.59375,-0.1875,0.0,0.0,0.0
1665676046493,-0.6347656,-0.16699219,0.7207031,-0.15625,-0.59375,-0.1875,0.0,0.0,0.0
1665676046750,-0.6357422,-0.17773438,0.7089844,-0.15625,-0.53125,-0.375,-52.5,8.125,-111.0625
1665676046750,-0.6357422,-0.17773438,0.7089844,-0.15625,-0.53125,-0.375,-52.5,8.125,-111.0625
1665676046754,-0.6484375,-0.17480469,0.7138672,-0.03125,-0.21875,-0.125,0.0,0.0,0.0
1665676046753,-0.6484375,-0.17480469,0.7138672,-0.03125,-0.21875,-0.125,0.0,0.0,0.0
1665676046757,-0.6425781,-0.18359375,0.71875,0.03125,-0.21875,-0.3125,0.0,0.0,0.0
1665676046757,-0.6425781,-0.18359375,0.71875,0.03125,-0.21875,-0.3125,0.0,0.0,0.0
1665676046760,-0.640625,-0.16796875,0.72265625,0.21875,-0.09375,-0.125,0.0,0.0,0.0
1665676046760,-0.640625,-0.16796875,0.72265625,0.21875,-0.09375,-0.125,0.0,0.0,0.0
1665676046761,-0.6357422,-0.18945312,0.72753906,-0.09375,-0.09375,-0.3125,0.0,0.0,0.0
1665676046762,-0.6357422,-0.18945312,0.72753906,-0.09375,-0.09375,-0.3125,0.0,0.0,0.0
1665676046763,-0.6308594,-0.18066406,0.72265625,0.03125,-0.59375,-0.4375,0.0,0.0,0.0
1665676046764,-0.6308594,-0.18066406,0.72265625,0.03125,-0.59375,-0.4375,0.0,0.0,0.0
1665676046769,-0.6357422,-0.171875,0.7265625,0.03125,-0.71875,-0.4375,0.0,0.0,0.0
1665676046769,-0.6357422,-0.171875,0.7265625,0.03125,-0.71875,-0.4375,0.0,0.0,0.0
1665676046814,-0.640625,-0.17382812,0.71972656,0.375,-0.59375,-0.1875,0.0,0.0,0.0
1665676046814,-0.640625,-0.17382812,0.71972656,0.375,-0.59375,-0.1875,0.0,0.0,0.0
1665676046850,-0.6357422,-0.18066406,0.7265625,0.15625,-0.28125,-0.375,0.0,0.0,0.0
1665676046850,-0.6357422,-0.18066406,0.7265625,0.15625,-0.28125,-0.375,0.0,0.0,0.0
1665676046911,-0.640625,-0.17578125,0.7373047,0.03125,-0.46875,-0.3125,0.0,0.0,0.0
1665676046911,-0.640625,-0.17578125,0.7373047,0.03125,-0.46875,-0.3125,0.0,0.0,0.0
1665676046929,-0.640625,-0.17480469,0.71484375,0.09375,-0.28125,-0.1875,0.0,0.0,0.0
1665676046929,-0.640625,-0.17480469,0.71484375,0.09375,-0.28125,-0.1875,0.0,0.0,0.0
1665676046972,-0.6376953,-0.18066406,0.73828125,0.09375,-0.15625,-0.25,0.0,0.0,0.0
1665676046971,-0.6376953,-0.18066406,0.73828125,0.09375,-0.15625,-0.25,0.0,0.0,0.0
1665676047011,-0.64160156,-0.17578125,0.7089844,-0.03125,-0.40625,-0.3125,0.0,0.0,0.0
1665676047010,-0.64160156,-0.17578125,0.7089844,-0.03125,-0.40625,-0.3125,0.0,0.0,0.0
1665676047051,-0.6425781,-0.1796875,0.7324219,-0.03125,-0.28125,-0.3125,0.0,0.0,0.0
1665676047050,-0.6425781,-0.1796875,0.7324219,-0.03125,-0.28125,-0.3125,0.0,0.0,0.0
1665676047090,-0.640625,-0.18164062,0.71972656,0.03125,-0.34375,-0.3125,0.0,0.0,0.0
1665676047090,-0.640625,-0.18164062,0.71972656,0.03125,-0.34375,-0.3125,0.0,0.0,0.0
1665676047132,-0.6435547,-0.18359375,0.7265625,-0.03125,-0.34375,-0.25,0.0,0.0,0.0
1665676047132,-0.6435547,-0.18359375,0.7265625,-0.03125,-0.34375,-0.25,0.0,0.0,0.0
1665676047169,-0.63964844,-0.1875,0.7363281,0.09375,-0.53125,-0.375,0.0,0.0,0.0
1665676047169,-0.63964844,-0.1875,0.7363281,0.09375,-0.53125,-0.375,0.0,0.0,0.0
1665676047211,-0.6269531,-0.16796875,0.73535156,0.09375,-0.59375,-0.4375,-53.125,9.0625,-112.5625
1665676047211,-0.6269531,-0.16796875,0.73535156,0.09375,-0.59375,-0.4375,-53.125,9.0625,-112.5625
1665676047250,-0.640625,-0.1796875,0.7236328,0.15625,-0.71875,-0.125,0.0,0.0,0.0
1665676047250,-0.640625,-0.1796875,0.7236328,0.15625,-0.71875,-0.125,0.0,0.0,0.0
1665676047310,-0.64941406,-0.18847656,0.70703125,-0.21875,-0.21875,-0.65625,0.0,0.0,0.0
1665676047310,-0.64941406,-0.18847656,0.70703125,-0.21875,-0.21875,-0.65625,0.0,0.0,0.0
1665676047329,-0.6386719,-0.18652344,0.7265625,-0.03125,-0.09375,-0.59375,0.0,0.0,0.0
1665676047329,-0.6386719,-0.18652344,0.7265625,-0.03125,-0.09375,-0.59375,0.0,0.0,0.0
1665676047370,-0.63671875,-0.18554688,0.7285156,0.03125,-0.65625,-0.1875,0.0,0.0,0.0
1665676047370,-0.63671875,-0.18554688,0.7285156,0.03125,-0.65625,-0.1875,0.0,0.0,0.0
1665676047410,-0.6269531,-0.17871094,0.7246094,-0.09375,-0.34375,-0.59375,0.0,0.0,0.0
1665676047410,-0.6269531,-0.17871094,0.7246094,-0.09375,-0.34375,-0.59375,0.0,0.0,0.0
1665676047451,-0.6347656,-0.18164062,0.72753906,-0.03125,-0.15625,-0.4375,0.0,0.0,0.0
1665676047451,-0.6347656,-0.18164062,0.72753906,-0.03125,-0.15625,-0.4375,0.0,0.0,0.0
1665676047494,-0.63378906,-0.18652344,0.71484375,0.15625,-0.28125,-0.125,0.0,0.0,0.0
1665676047494,-0.63378906,-0.18652344,0.71484375,0.15625,-0.28125,-0.125,0.0,0.0,0.0
1665676047532,-0.6308594,-0.18066406,0.71484375,0.15625,-0.21875,-0.1875,0.0,0.0,0.0
1665676047534,-0.6308594,-0.18066406,0.71484375,0.15625,-0.21875,-0.1875,0.0,0.0,0.0
1665676047571,-0.63671875,-0.18554688,0.7373047,-0.09375,0.03125,-0.46875,0.0,0.0,0.0
1665676047571,-0.63671875,-0.18554688,0.7373047,-0.09375,0.03125,-0.46875,0.0,0.0,0.0
1665676047610,-0.6298828,-0.17871094,0.7246094,-0.09375,-0.34375,-0.25,0.0,0.0,0.0
1665676047610,-0.6298828,-0.17871094,0.7246094,-0.09375,-0.34375,-0.25,0.0,0.0,0.0
1665676047650,-0.63183594,-0.17675781,0.74121094,0.15625,-0.34375,-0.1875,0.0,0.0,0.0
1665676047650,-0.63183594,-0.17675781,0.74121094,0.15625,-0.34375,-0.1875,0.0,0.0,0.0
1665676047690,-0.6328125,-0.17675781,0.7246094,0.09375,-0.53125,-0.1875,-53.25,8.125,-111.375
1665676047690,-0.6328125,-0.17675781,0.7246094,0.09375,-0.53125,-0.1875,-53.25,8.125,-111.375
1665676047731,-0.6357422,-0.17871094,0.72558594,0.03125,-0.28125,-0.375,0.0,0.0,0.0
1665676047731,-0.6357422,-0.17871094,0.72558594,0.03125,-0.28125,-0.375,0.0,0.0,0.0
1665676047771,-0.6308594,-0.17285156,0.72265625,0.21875,-0.15625,-0.25,0.0,0.0,0.0
1665676047772,-0.6308594,-0.17285156,0.72265625,0.21875,-0.15625,-0.25,0.0,0.0,0.0
1665676047810,-0.63378906,-0.18261719,0.734375,-0.09375,-0.15625,-0.3125,0.0,0.0,0.0
1665676047811,-0.63378906,-0.18261719,0.734375,-0.09375,-0.15625,-0.3125,0.0,0.0,0.0
1665676047850,-0.625,-0.17578125,0.7216797,-0.09375,-0.15625,-0.25,0.0,0.0,0.0
1665676047850,-0.625,-0.17578125,0.7216797,-0.09375,-0.15625,-0.25,0.0,0.0,0.0
1665676047890,-0.6279297,-0.1875,0.7324219,-0.09375,-0.28125,-0.25,0.0,0.0,0.0
1665676047889,-0.6279297,-0.1875,0.7324219,-0.09375,-0.28125,-0.25,0.0,0.0,0.0
1665676047932,-0.6308594,-0.17675781,0.73535156,-0.15625,-0.28125,-0.3125,0.0,0.0,0.0
1665676047932,-0.6308594,-0.17675781,0.73535156,-0.15625,-0.28125,-0.3125,0.0,0.0,0.0
1665676047969,-0.6308594,-0.18457031,0.7285156,-0.09375,-0.03125,-0.3125,0.0,0.0,0.0
1665676047969,-0.6308594,-0.18457031,0.7285156,-0.09375,-0.03125,-0.3125,0.0,0.0,0.0
1665676048010,-0.6357422,-0.18554688,0.7207031,-0.03125,-0.21875,-0.3125,0.0,0.0,0.0
1665676048010,-0.6357422,-0.18554688,0.7207031,-0.03125,-0.21875,-0.3125,0.0,0.0,0.0
1665676048052,-0.62890625,-0.18359375,0.72558594,-0.09375,-0.40625,-0.125,0.0,0.0,0.0
1665676048052,-0.62890625,-0.18359375,0.72558594,-0.09375,-0.40625,-0.125,0.0,0.0,0.0
1665676048110,-0.6298828,-0.18457031,0.7324219,0.03125,-0.46875,-0.25,0.0,0.0,0.0
1665676048111,-0.6298828,-0.18457031,0.7324219,0.03125,-0.46875,-0.25,0.0,0.0,0.0
1665676048129,-0.63183594,-0.17871094,0.7314453,0.09375,-0.15625,-0.0625,0.0,0.0,0.0
1665676048129,-0.63183594,-0.17871094,0.7314453,0.09375,-0.15625,-0.0625,0.0,0.0,0.0
1665676048176,-0.62890625,-0.1796875,0.72265625,-0.40625,0.3125,-0.59375,0.0,0.0,0.0
1665676048176,-0.62890625,-0.1796875,0.72265625,-0.40625,0.3125,-0.59375,0.0,0.0,0.0
1665676048210,-0.63964844,-0.17285156,0.7167969,-0.15625,-0.28125,-0.375,-53.125,9.5,-109.875
1665676048210,-0.63964844,-0.17285156,0.7167969,-0.15625,-0.28125,-0.375,-53.125,9.5,-109.875
1665676048250,-0.63378906,-0.17675781,0.72753906,-0.03125,-0.53125,-0.125,0.0,0.0,0.0
1665676048250,-0.63378906,-0.17675781,0.72753906,-0.03125,-0.53125,-0.125,0.0,0.0,0.0
1665676048309,-0.63378906,-0.18652344,0.72753906,-0.15625,-0.40625,-0.4375,0.0,0.0,0.0
1665676048310,-0.63378906,-0.18652344,0.72753906,-0.15625,-0.40625,-0.4375,0.0,0.0,0.0
1665676048331,-0.63183594,-0.18164062,0.7167969,-0.09375,0.03125,-0.3125,0.0,0.0,0.0
1665676048331,-0.63183594,-0.18164062,0.7167969,-0.09375,0.03125,-0.3125,0.0,0.0,0.0
1665676048372,-0.62890625,-0.18261719,0.7265625,-0.09375,0.15625,-0.3125,0.0,0.0,0.0
1665676048372,-0.62890625,-0.18261719,0.7265625,-0.09375,0.15625,-0.3125,0.0,0.0,0.0
1665676048411,-0.6308594,-0.18359375,0.73535156,-0.15625,-0.03125,-0.3125,0.0,0.0,0.0
1665676048411,-0.6308594,-0.18359375,0.73535156,-0.15625,-0.03125,-0.3125,0.0,0.0,0.0
1665676048452,-0.6386719,-0.17773438,0.72558594,-0.15625,-0.03125,-0.46875,0.0,0.0,0.0
1665676048452,-0.6386719,-0.17773438,0.72558594,-0.15625,-0.03125,-0.46875,0.0,0.0,0.0
1665676048491,-0.63378906,-0.18554688,0.71972656,-0.03125,-0.21875,-0.25,0.0,0.0,0.0
1665676048491,-0.63378906,-0.18554688,0.71972656,-0.03125,-0.21875,-0.25,0.0,0.0,0.0
1665676048550,-0.6279297,-0.1796875,0.72265625,-0.09375,0.03125,-0.125,0.0,0.0,0.0
1665676048551,-0.6279297,-0.1796875,0.72265625,-0.09375,0.03125,-0.125,0.0,0.0,0.0
1665676048569,-0.6279297,-0.17871094,0.7236328,-0.15625,-0.15625,-0.1875,0.0,0.0,0.0
1665676048569,-0.6279297,-0.17871094,0.7236328,-0.15625,-0.15625,-0.1875,0.0,0.0,0.0
1665676048611,-0.6279297,-0.18652344,0.7207031,-0.15625,0.03125,-0.375,0.0,0.0,0.0
1665676048611,-0.6279297,-0.18652344,0.7207031,-0.15625,0.03125,-0.375,0.0,0.0,0.0
1665676048651,-0.6269531,-0.18457031,0.7109375,0.15625,0.09375,0.125,0.0,0.0,0.0
1665676048650,-0.6269531,-0.18457031,0.7109375,0.15625,0.09375,0.125,0.0,0.0,0.0
1665676048691,-0.63671875,-0.18652344,0.7128906,0.03125,0.1875,0.0,-53.875,8.75,-110.875
1665676048691,-0.63671875,-0.18652344,0.7128906,0.03125,0.1875,0.0,-53.875,8.75,-110.875
1665676048730,-0.6279297,-0.18066406,0.7421875,-0.09375,0.25,0.0,0.0,0.0,0.0
1665676048730,-0.6279297,-0.18066406,0.7421875,-0.09375,0.25,0.0,0.0,0.0,0.0
1665676048772,-0.63183594,-0.18359375,0.7236328,-0.09375,0.1875,0.0625,0.0,0.0,0.0
1665676048772,-0.63183594,-0.18359375,0.7236328,-0.09375,0.1875,0.0625,0.0,0.0,0.0
1665676048810,-0.6308594,-0.18554688,0.72265625,-0.15625,0.09375,0.1875,0.0,0.0,0.0
1665676048810,-0.6308594,-0.18554688,0.72265625,-0.15625,0.09375,0.1875,0.0,0.0,0.0
1665676048849,-0.63183594,-0.18164062,0.7373047,-0.15625,0.25,0.125,0.0,0.0,0.0
1665676048850,-0.63183594,-0.18164062,0.7373047,-0.15625,0.25,0.125,0.0,0.0,0.0
1665676048891,-0.6376953,-0.17285156,0.73339844,-0.15625,0.09375,0.125,0.0,0.0,0.0
1665676048891,-0.6376953,-0.17285156,0.73339844,-0.15625,0.09375,0.125,0.0,0.0,0.0
1665676048930,-0.6376953,-0.17578125,0.7167969,-0.21875,-0.09375,0.125,0.0,0.0,0.0
1665676048930,-0.6376953,-0.17578125,0.7167969,-0.21875,-0.09375,0.125,0.0,0.0,0.0
1665676048970,-0.6230469,-0.18652344,0.72265625,-0.09375,0.03125,0.0625,0.0,0.0,0.0
1665676048970,-0.6230469,-0.18652344,0.72265625,-0.09375,0.03125,0.0625,0.0,0.0,0.0
1665676049011,-0.6308594,-0.18164062,0.73339844,0.09375,0.25,0.25,0.0,0.0,0.0
1665676049011,-0.6308594,-0.18164062,0.73339844,0.09375,0.25,0.25,0.0,0.0,0.0
1665676049051,-0.6230469,-0.16992188,0.7373047,-0.59375,0.6875,-0.25,0.0,0.0,0.0
1665676049053,-0.6230469,-0.16992188,0.7373047,-0.59375,0.6875,-0.25,0.0,0.0,0.0
1665676049090,-0.6298828,-0.1796875,0.71972656,0.1875,-0.25,0.25,0.0,0.0,0.0
1665676049090,-0.6298828,-0.1796875,0.71972656,0.1875,-0.25,0.25,0.0,0.0,0.0
1665676049130,-0.62890625,-0.17675781,0.7324219,-0.125,0.0,0.375,0.0,0.0,0.0
1665676049130,-0.62890625,-0.17675781,0.7324219,-0.125,0.0,0.375,0.0,0.0,0.0
1665676049171,-0.625,-0.18066406,0.7207031,-0.125,0.34375,0.1875,0.0,0.0,0.0
1665676049171,-0.625,-0.18066406,0.7207031,-0.125,0.34375,0.1875,0.0,0.0,0.0
1665676049210,-0.6328125,-0.1796875,0.7236328,0.0,0.34375,0.3125,-52.0625,9.0625,-112.25
1665676049210,-0.6328125,-0.1796875,0.7236328,0.0,0.34375,0.3125,-52.0625,9.0625,-112.25
1665676049250,-0.63183594,-0.18554688,0.7265625,0.0625,0.21875,0.1875,0.0,0.0,0.0
1665676049250,-0.63183594,-0.18554688,0.7265625,0.0625,0.21875,0.1875,0.0,0.0,0.0
1665676049292,-0.6298828,-0.1875,0.7285156,0.0,0.21875,0.25,0.0,0.0,0.0
1665676049292,-0.6298828,-0.1875,0.7285156,0.0,0.21875,0.25,0.0,0.0,0.0
1665676049332,-0.63378906,-0.1796875,0.71777344,-0.125,0.21875,0.375,0.0,0.0,0.0
1665676049331,-0.63378906,-0.1796875,0.71777344,-0.125,0.21875,0.375,0.0,0.0,0.0
1665676049370,-0.6298828,-0.18847656,0.73535156,-0.0625,0.40625,0.375,0.0,0.0,0.0
1665676049370,-0.6298828,-0.18847656,0.73535156,-0.0625,0.40625,0.375,0.0,0.0,0.0
1665676049409,-0.625,-0.17578125,0.7246094,-0.0625,0.21875,0.4375,0.0,0.0,0.0
1665676049410,-0.625,-0.17578125,0.7246094,-0.0625,0.21875,0.4375,0.0,0.0,0.0
1665676049450,-0.62890625,-0.17871094,0.73046875,-0.125,0.34375,0.6875,0.0,0.0,0.0
1665676049450,-0.62890625,-0.17871094,0.73046875,-0.125,0.34375,0.6875,0.0,0.0,0.0
1665676049490,-0.62109375,-0.18554688,0.73046875,-0.3125,0.46875,0.6875,0.0,0.0,0.0
1665676049490,-0.62109375,-0.18554688,0.73046875,-0.3125,0.46875,0.6875,0.0,0.0,0.0
1665676049530,-0.6269531,-0.17675781,0.72265625,-0.0625,0.71875,0.75,0.0,0.0,0.0
1665676049530,-0.6269531,-0.17675781,0.72265625,-0.0625,0.71875,0.75,0.0,0.0,0.0
1665676049570,-0.6279297,-0.18359375,0.7246094,-0.375,0.71875,0.5,0.0,0.0,0.0
1665676049570,-0.6279297,-0.18359375,0.7246094,-0.375,0.71875,0.5,0.0,0.0,0.0
1665676049612,-0.62890625,-0.1875,0.7421875,-0.1875,0.78125,0.5625,0.0,0.0,0.0
1665676049612,-0.62890625,-0.1875,0.7421875,-0.1875,0.78125,0.5625,0.0,0.0,0.0
1665676049652,-0.6279297,-0.18066406,0.73828125,-0.1875,0.65625,0.5625,0.0,0.0,0.0
1665676049652,-0.6279297,-0.18066406,0.73828125,-0.1875,0.65625,0.5625,0.0,0.0,0.0
1665676049690,-0.6328125,-0.18261719,0.72753906,-0.3125,0.96875,0.6875,-51.4375,7.375,-112.375
1665676049690,-0.6328125,-0.18261719,0.72753906,-0.3125,0.96875,0.6875,-51.4375,7.375,-112.375
1665676049731,-0.6308594,-0.18457031,0.72265625,-0.375,1.15625,0.375,0.0,0.0,0.0
1665676049731,-0.6308594,-0.18457031,0.72265625,-0.375,1.15625,0.375,0.0,0.0,0.0
1665676049769,-0.6328125,-0.18164062,0.72753906,-0.1875,0.90625,0.4375,0.0,0.0,0.0
1665676049769,-0.6328125,-0.18164062,0.72753906,-0.1875,0.90625,0.4375,0.0,0.0,0.0
1665676049810,-0.6298828,-0.17382812,0.7236328,-0.3125,0.96875,0.5,0.0,0.0,0.0
1665676049810,-0.6298828,-0.17382812,0.7236328,-0.3125,0.96875,0.5,0.0,0.0,0.0
1665676049851,-0.6386719,-0.19140625,0.71972656,-0.3125,1.15625,0.5625,0.0,0.0,0.0
1665676049851,-0.6386719,-0.19140625,0.71972656,-0.3125,1.15625,0.5625,0.0,0.0,0.0
1665676049892,-0.64746094,-0.18847656,0.71972656,-0.625,1.40625,0.4375,0.0,0.0,0.0
1665676049892,-0.64746094,-0.18847656,0.71972656,-0.625,1.40625,0.4375,0.0,0.0,0.0
1665676049930,-0.63183594,-0.18066406,0.73339844,-0.375,0.78125,0.5,0.0,0.0,0.0
1665676049930,-0.63183594,-0.18066406,0.73339844,-0.375,0.78125,0.5,0.0,0.0,0.0
1665676049971,-0.63378906,-0.17675781,0.7285156,-0.0625,0.59375,0.75,0.0,0.0,0.0
1665676049971,-0.63378906,-0.17675781,0.7285156,-0.0625,0.59375,0.75,0.0,0.0,0.0
1665676050011,-0.62402344,-0.18457031,0.73339844,-0.125,0.78125,0.5,0.0,0.0,0.0
1665676050011,-0.62402344,-0.18457031,0.73339844,-0.125,0.78125,0.5,0.0,0.0,0.0
1665676050050,-0.625,-0.17382812,0.7128906,-0.3125,0.96875,0.5625,0.0,0.0,0.0
1665676050050,-0.625,-0.17382812,0.7128906,-0.3125,0.96875,0.5625,0.0,0.0,0.0
1665676050091,-0.6347656,-0.18066406,0.72265625,-0.25,0.84375,0.75,0.0,0.0,0.0
1665676050091,-0.6347656,-0.18066406,0.72265625,-0.25,0.84375,0.75,0.0,0.0,0.0
1665676050131,-0.6269531,-0.18164062,0.7216797,-0.4375,0.90625,0.75,0.0,0.0,0.0
1665676050131,-0.6269531,-0.18164062,0.7216797,-0.4375,0.90625,0.75,0.0,0.0,0.0
1665676050170,-0.63964844,-0.18359375,0.7294922,-0.5625,0.84375,0.625,0.0,0.0,0.0
1665676050170,-0.63964844,-0.18359375,0.7294922,-0.5625,0.84375,0.625,0.0,0.0,0.0
1665676050210,-0.6386719,-0.17089844,0.7246094,-0.25,0.71875,0.6875,-54.3125,7.375,-110.625
1665676050210,-0.6386719,-0.17089844,0.7246094,-0.25,0.71875,0.6875,-54.3125,7.375,-110.625
1665676050250,-0.6386719,-0.18847656,0.7207031,-0.3125,0.78125,0.625,0.0,0.0,0.0
1665676050250,-0.6386719,-0.18847656,0.7207031,-0.3125,0.78125,0.625,0.0,0.0,0.0
1665676050292,-0.62597656,-0.17871094,0.7216797,-0.25,0.65625,0.625,0.0,0.0,0.0
1665676050292,-0.62597656,-0.17871094,0.7216797,-0.25,0.65625,0.625,0.0,0.0,0.0
1665676050333,-0.6425781,-0.18652344,0.7138672,0.0,0.71875,0.625,0.0,0.0,0.0
1665676050333,-0.6425781,-0.18652344,0.7138672,0.0,0.71875,0.625,0.0,0.0,0.0
1665676050370,-0.640625,-0.18652344,0.7314453,0.0,0.78125,0.5625,0.0,0.0,0.0
1665676050370,-0.640625,-0.18652344,0.7314453,0.0,0.78125,0.5625,0.0,0.0,0.0
1665676050412,-0.63671875,-0.1796875,0.73828125,-0.125,0.46875,0.625,0.0,0.0,0.0
1665676050412,-0.63671875,-0.1796875,0.73828125,-0.125,0.46875,0.625,0.0,0.0,0.0
1665676050450,-0.63183594,-0.18164062,0.7167969,0.0,0.28125,0.5625,0.0,0.0,0.0
1665676050450,-0.63183594,-0.18164062,0.7167969,0.0,0.28125,0.5625,0.0,0.0,0.0
1665676050491,-0.63964844,-0.18164062,0.7246094,-0.25,0.71875,0.3125,0.0,0.0,0.0
1665676050491,-0.63964844,-0.18164062,0.7246094,-0.25,0.71875,0.3125,0.0,0.0,0.0
1665676050532,-0.63964844,-0.18359375,0.7158203,-0.25,0.71875,0.5,0.0,0.0,0.0
1665676050532,-0.63964844,-0.18359375,0.7158203,-0.25,0.71875,0.5,0.0,0.0,0.0
1665676050570,-0.63378906,-0.17578125,0.71972656,-0.125,0.40625,0.625,0.0,0.0,0.0
1665676050570,-0.63378906,-0.17578125,0.71972656,-0.125,0.40625,0.625,0.0,0.0,0.0
1665676050609,-0.6386719,-0.18457031,0.71972656,-0.1875,0.46875,0.3125,0.0,0.0,0.0
1665676050609,-0.6386719,-0.18457031,0.71972656,-0.1875,0.46875,0.3125,0.0,0.0,0.0
1665676050650,-0.6298828,-0.17675781,0.7285156,0.0,0.46875,0.4375,0.0,0.0,0.0
1665676050650,-0.6298828,-0.17675781,0.7285156,0.0,0.46875,0.4375,0.0,0.0,0.0
1665676050690,-0.6376953,-0.17871094,0.734375,-0.25,0.28125,0.5625,-54.3125,8.125,-111.0625
1665676050689,-0.6376953,-0.17871094,0.734375,-0.25,0.28125,0.5625,-54.3125,8.125,-111.0625
1665676050730,-0.63671875,-0.18261719,0.7236328,-0.5,0.84375,0.1875,0.0,0.0,0.0
1665676050730,-0.63671875,-0.18261719,0.7236328,-0.5,0.84375,0.1875,0.0,0.0,0.0
1665676050770,-0.6357422,-0.17382812,0.72753906,-0.0625,0.46875,0.5625,0.0,0.0,0.0
1665676050770,-0.6357422,-0.17382812,0.72753906,-0.0625,0.46875,0.5625,0.0,0.0,0.0
1665676050809,-0.6347656,-0.18652344,0.7392578,-0.4375,0.34375,0.4375,0.0,0.0,0.0
1665676050809,-0.6347656,-0.18652344,0.7392578,-0.4375,0.34375,0.4375,0.0,0.0,0.0
1665676050851,-0.63183594,-0.18164062,0.7109375,-0.1875,0.78125,0.375,0.0,0.0,0.0
1665676050851,-0.63183594,-0.18164062,0.7109375,-0.1875,0.78125,0.375,0.0,0.0,0.0
1665676050890,-0.640625,-0.17773438,0.71972656,-0.25,0.96875,0.6875,0.0,0.0,0.0
1665676050890,-0.640625,-0.17773438,0.71972656,-0.25,0.96875,0.6875,0.0,0.0,0.0
1665676050930,-0.64160156,-0.18945312,0.72265625,-0.125,0.84375,0.6875,0.0,0.0,0.0
1665676050930,-0.64160156,-0.18945312,0.72265625,-0.125,0.84375,0.6875,0.0,0.0,0.0
1665676050969,-0.6308594,-0.17675781,0.72753906,-0.375,1.03125,0.4375,0.0,0.0,0.0
1665676050969,-0.6308594,-0.17675781,0.72753906,-0.375,1.03125,0.4375,0.0,0.0,0.0
1665676051011,-0.6386719,-0.17578125,0.71972656,-0.375,0.78125,0.5625,0.0,0.0,0.0
1665676051011,-0.6386719,-0.17578125,0.71972656,-0.375,0.78125,0.5625,0.0,0.0,0.0
1665676051052,-0.6513672,-0.19042969,0.73339844,-0.4375,0.46875,0.5625,0.0,0.0,0.0
1665676051052,-0.6513672,-0.19042969,0.73339844,-0.4375,0.46875,0.5625,0.0,0.0,0.0
1665676051092,-0.63964844,-0.18652344,0.71875,-0.0625,0.53125,0.625,0.0,0.0,0.0
1665676051092,-0.63964844,-0.18652344,0.71875,-0.0625,0.53125,0.625,0.0,0.0,0.0
1665676051131,-0.6386719,-0.17773438,0.7285156,-0.1875,0.65625,0.5,0.0,0.0,0.0
1665676051131,-0.6386719,-0.17773438,0.7285156,-0.1875,0.65625,0.5,0.0,0.0,0.0
1665676051170,-0.6308594,-0.17382812,0.73339844,-0.125,0.59375,0.5,0.0,0.0,0.0
1665676051170,-0.6308594,-0.17382812,0.73339844,-0.125,0.59375,0.5,0.0,0.0,0.0
1665676051209,-0.63671875,-0.18066406,0.7128906,-0.0625,0.53125,0.5,-52.1875,8.5625,-112.375
1665676051209,-0.63671875,-0.18066406,0.7128906,-0.0625,0.53125,0.5,-52.1875,8.5625,-112.375
1665676051249,-0.6308594,-0.18164062,0.7246094,0.125,0.28125,0.4375,0.0,0.0,0.0
1665676051250,-0.6308594,-0.18164062,0.7246094,0.125,0.28125,0.4375,0.0,0.0,0.0
1665676051290,-0.6425781,-0.17480469,0.7285156,-0.125,0.71875,0.5,0.0,0.0,0.0
1665676051290,-0.6425781,-0.17480469,0.7285156,-0.125,0.71875,0.5,0.0,0.0,0.0
1665676051330,-0.6347656,-0.18457031,0.7109375,-0.0625,0.59375,0.4375,0.0,0.0,0.0
1665676051330,-0.6347656,-0.18457031,0.7109375,-0.0625,0.59375,0.4375,0.0,0.0,0.0
1665676051371,-0.6455078,-0.1875,0.7109375,0.0,0.21875,0.375,0.0,0.0,0.0
1665676051371,-0.6455078,-0.1875,0.7109375,0.0,0.21875,0.375,0.0,0.0,0.0
1665676051410,-0.6347656,-0.17285156,0.7246094,-0.1875,0.28125,0.375,0.0,0.0,0.0
1665676051410,-0.6347656,-0.17285156,0.7246094,-0.1875,0.28125,0.375,0.0,0.0,0.0
1665676051451,-0.6357422,-0.18066406,0.7392578,-0.0625,0.46875,0.5625,0.0,0.0,0.0
1665676051451,-0.6357422,-0.18066406,0.7392578,-0.0625,0.46875,0.5625,0.0,0.0,0.0
1665676051492,-0.6503906,-0.17871094,0.7216797,-0.125,0.46875,0.4375,0.0,0.0,0.0
1665676051492,-0.6503906,-0.17871094,0.7216797,-0.125,0.46875,0.4375,0.0,0.0,0.0
1665676051531,-0.6455078,-0.18457031,0.72753906,0.0,0.53125,0.1875,0.0,0.0,0.0
1665676051531,-0.6455078,-0.18457031,0.72753906,0.0,0.53125,0.1875,0.0,0.0,0.0
1665676051570,-0.6376953,-0.17480469,0.73046875,-0.25,0.28125,0.4375,0.0,0.0,0.0
1665676051570,-0.6376953,-0.17480469,0.73046875,-0.25,0.28125,0.4375,0.0,0.0,0.0
1665676051611,-0.640625,-0.17578125,0.72265625,-0.25,0.40625,0.125,0.0,0.0,0.0
1665676051612,-0.640625,-0.17578125,0.72265625,-0.25,0.40625,0.125,0.0,0.0,0.0
1665676051650,-0.64746094,-0.18066406,0.71191406,0.0,0.15625,0.3125,0.0,0.0,0.0
1665676051650,-0.64746094,-0.18066406,0.71191406,0.0,0.15625,0.3125,0.0,0.0,0.0
1665676051690,-0.6503906,-0.17578125,0.7246094,0.0,0.65625,0.3125,-52.375,8.3125,-111.8125
1665676051691,-0.6503906,-0.17578125,0.7246094,0.0,0.65625,0.3125,-52.375,8.3125,-111.8125
1665676051729,-0.6435547,-0.17382812,0.7080078,-0.1875,0.53125,0.5,0.0,0.0,0.0
1665676051729,-0.6435547,-0.17382812,0.7080078,-0.1875,0.53125,0.5,0.0,0.0,0.0
1665676051810,-0.64160156,-0.17871094,0.7128906,-0.1875,0.40625,0.375,0.0,0.0,0.0
1665676051810,-0.64160156,-0.17871094,0.7128906,-0.1875,0.40625,0.375,0.0,0.0,0.0
1665676051812,-0.64160156,-0.17480469,0.71972656,-0.125,0.28125,0.375,0.0,0.0,0.0
1665676051812,-0.64160156,-0.17480469,0.71972656,-0.125,0.28125,0.375,0.0,0.0,0.0
1665676051854,-0.6386719,-0.17773438,0.7207031,-0.0625,0.15625,0.25,0.0,0.0,0.0
1665676051854,-0.6386719,-0.17773438,0.7207031,-0.0625,0.15625,0.25,0.0,0.0,0.0
1665676051890,-0.6425781,-0.18164062,0.7050781,0.125,0.21875,0.25,0.0,0.0,0.0
1665676051890,-0.6425781,-0.18164062,0.7050781,0.125,0.21875,0.25,0.0,0.0,0.0
1665676051930,-0.6425781,-0.18261719,0.72265625,0.0625,0.21875,0.1875,0.0,0.0,0.0
1665676051930,-0.6425781,-0.18261719,0.72265625,0.0625,0.21875,0.1875,0.0,0.0,0.0
1665676051971,-0.6376953,-0.18359375,0.7138672,-0.0625,0.0625,0.375,0.0,0.0,0.0
1665676051971,-0.6376953,-0.18359375,0.7138672,-0.0625,0.0625,0.375,0.0,0.0,0.0
1665676052011,-0.6386719,-0.18359375,0.7158203,0.0,0.125,0.375,0.0,0.0,0.0
1665676052011,-0.6386719,-0.18359375,0.7158203,0.0,0.125,0.375,0.0,0.0,0.0
1665676052050,-0.63183594,-0.18457031,0.7265625,-0.0625,0.28125,0.25,0.0,0.0,0.0
1665676052050,-0.63183594,-0.18457031,0.7265625,-0.0625,0.28125,0.25,0.0,0.0,0.0
1665676052092,-0.6376953,-0.17773438,0.71875,0.0,0.125,0.25,0.0,0.0,0.0
1665676052092,-0.6376953,-0.17773438,0.71875,0.0,0.125,0.25,0.0,0.0,0.0
1665676052133,-0.6279297,-0.17578125,0.7236328,0.0,0.15625,0.375,0.0,0.0,0.0
1665676052133,-0.6279297,-0.17578125,0.7236328,0.0,0.15625,0.375,0.0,0.0,0.0
1665676052171,-0.6455078,-0.18457031,0.7265625,0.1875,0.21875,0.125,0.0,0.0,0.0
1665676052171,-0.6455078,-0.18457031,0.7265625,0.1875,0.21875,0.125,0.0,0.0,0.0
1665676052210,-0.6484375,-0.17480469,0.7216797,0.0,0.0625,0.3125,-52.625,8.3125,-111.8125
1665676052210,-0.6484375,-0.17480469,0.7216797,0.0,0.0625,0.3125,-52.625,8.3125,-111.8125
1665676052270,-0.6357422,-0.18457031,0.71191406,0.0,0.15625,-0.0625,0.0,0.0,0.0
1665676052270,-0.6357422,-0.18457031,0.71191406,0.0,0.15625,-0.0625,0.0,0.0,0.0
1665676052289,-0.6425781,-0.18261719,0.71191406,0.125,-0.3125,0.125,0.0,0.0,0.0
1665676052289,-0.6425781,-0.18261719,0.71191406,0.125,-0.3125,0.125,0.0,0.0,0.0
1665676052331,-0.6386719,-0.18554688,0.7324219,-0.0625,-0.3125,0.0625,0.0,0.0,0.0
1665676052331,-0.6386719,-0.18554688,0.7324219,-0.0625,-0.3125,0.0625,0.0,0.0,0.0
1665676052370,-0.63671875,-0.17773438,0.7285156,0.125,-0.1875,0.125,0.0,0.0,0.0
1665676052370,-0.63671875,-0.17773438,0.7285156,0.125,-0.1875,0.125,0.0,0.0,0.0
1665676052412,-0.6376953,-0.18066406,0.71875,0.125,-0.1875,0.0625,0.0,0.0,0.0
1665676052413,-0.6376953,-0.18066406,0.71875,0.125,-0.1875,0.0625,0.0,0.0,0.0
1665676052451,-0.6425781,-0.17480469,0.7128906,0.40625,-0.0625,0.0625,0.0,0.0,0.0
1665676052451,-0.6425781,-0.17480469,0.7128906,0.40625,-0.0625,0.0625,0.0,0.0,0.0
1665676052490,-0.640625,-0.17871094,0.7324219,0.0625,0.15625,0.125,0.0,0.0,0.0
1665676052490,-0.640625,-0.17871094,0.7324219,0.0625,0.15625,0.125,0.0,0.0,0.0
1665676052530,-0.6455078,-0.18261719,0.7324219,0.0,-0.25,-0.125,0.0,0.0,0.0
1665676052531,-0.6455078,-0.18261719,0.7324219,0.0,-0.25,-0.125,0.0,0.0,0.0
1665676052569,-0.6347656,-0.17480469,0.72265625,0.125,-0.125,0.0,0.0,0.0,0.0
1665676052570,-0.6347656,-0.17480469,0.72265625,0.125,-0.125,0.0,0.0,0.0,0.0
1665676052610,-0.63671875,-0.17480469,0.7128906,0.125,-0.3125,0.0625,0.0,0.0,0.0
1665676052610,-0.63671875,-0.17480469,0.7128906,0.125,-0.3125,0.0625,0.0,0.0,0.0
1665676052654,-0.6376953,-0.17285156,0.7246094,0.1875,-0.25,-0.0625,0.0,0.0,0.0
1665676052654,-0.6376953,-0.17285156,0.7246094,0.1875,-0.25,-0.0625,0.0,0.0,0.0
1665676052690,-0.6347656,-0.17675781,0.69921875,0.375,-0.375,-0.125,-53.875,8.75,-112.25
1665676052691,-0.6347656,-0.17675781,0.69921875,0.375,-0.375,-0.125,-53.875,8.75,-112.25
1665676052734,-0.6328125,-0.1796875,0.7246094,0.3125,-0.5,0.0625,0.0,0.0,0.0
1665676052733,-0.6328125,-0.1796875,0.7246094,0.3125,-0.5,0.0625,0.0,0.0,0.0
1665676052771,-0.6230469,-0.18066406,0.7236328,0.1875,-0.25,0.1875,0.0,0.0,0.0
1665676052770,-0.6230469,-0.18066406,0.7236328,0.1875,-0.25,0.1875,0.0,0.0,0.0
1665676052810,-0.6435547,-0.18066406,0.71484375,0.0,0.0,0.0,0.0,0.0,0.0
1665676052810,-0.6435547,-0.18066406,0.71484375,0.0,0.0,0.0,0.0,0.0,0.0
1665676052850,-0.6298828,-0.171875,0.71484375,0.25,-0.4375,0.0625,0.0,0.0,0.0
1665676052850,-0.6298828,-0.171875,0.71484375,0.25,-0.4375,0.0625,0.0,0.0,0.0
1665676052890,-0.6376953,-0.18359375,0.73046875,0.0625,-0.1875,0.0,0.0,0.0,0.0
1665676052890,-0.6376953,-0.18359375,0.73046875,0.0625,-0.1875,0.0,0.0,0.0,0.0
1665676052930,-0.63183594,-0.18066406,0.7167969,-0.0625,0.0,0.25,0.0,0.0,0.0
1665676052930,-0.63183594,-0.18066406,0.7167969,-0.0625,0.0,0.25,0.0,0.0,0.0
1665676052971,-0.6347656,-0.18457031,0.7246094,-0.1875,0.21875,-0.40625,0.0,0.0,0.0
1665676052971,-0.6347656,-0.18457031,0.7246094,-0.1875,0.21875,-0.40625,0.0,0.0,0.0
1665676053010,-0.6328125,-0.171875,0.7236328,0.125,-0.6875,-0.1875,0.0,0.0,0.0
1665676053010,-0.6328125,-0.171875,0.7236328,0.125,-0.6875,-0.1875,0.0,0.0,0.0
1665676053053,-0.6386719,-0.17773438,0.7216797,0.125,-0.4375,-0.125,0.0,0.0,0.0
1665676053053,-0.6386719,-0.17773438,0.7216797,0.125,-0.4375,-0.125,0.0,0.0,0.0
1665676053091,-0.62890625,-0.19140625,0.7158203,0.125,-0.25,-0.1875,0.0,0.0,0.0
1665676053091,-0.62890625,-0.19140625,0.7158203,0.125,-0.25,-0.1875,0.0,0.0,0.0
1665676053131,-0.6386719,-0.17382812,0.7167969,0.3125,-0.125,0.0625,0.0,0.0,0.0
1665676053130,-0.6386719,-0.17382812,0.7167969,0.3125,-0.125,0.0625,0.0,0.0,0.0
1665676053172,-0.6347656,-0.18261719,0.7265625,0.3125,-0.25,0.0625,0.0,0.0,0.0
1665676053172,-0.6347656,-0.18261719,0.7265625,0.3125,-0.25,0.0625,0.0,0.0,0.0
1665676053211,-0.6308594,-0.17480469,0.7294922,0.0625,0.0625,0.125,-52.0625,9.0625,-110.875
1665676053211,-0.6308594,-0.17480469,0.7294922,0.0625,0.0625,0.125,-52.0625,9.0625,-110.875
1665676053253,-0.625,-0.18066406,0.7421875,0.0625,-0.1875,-0.0625,0.0,0.0,0.0
1665676053253,-0.625,-0.18066406,0.7421875,0.0625,-0.1875,-0.0625,0.0,0.0,0.0
1665676053290,-0.6279297,-0.17382812,0.7265625,0.0625,-0.3125,0.0,0.0,0.0,0.0
1665676053290,-0.6279297,-0.17382812,0.7265625,0.0625,-0.3125,0.0,0.0,0.0,0.0
1665676053331,-0.6357422,-0.17675781,0.7421875,0.0,-0.0625,0.0,0.0,0.0,0.0
1665676053331,-0.6357422,-0.17675781,0.7421875,0.0,-0.0625,0.0,0.0,0.0,0.0
1665676053371,-0.6298828,-0.18261719,0.71875,0.0,0.125,0.0,0.0,0.0,0.0
1665676053371,-0.6298828,-0.18261719,0.71875,0.0,0.125,0.0,0.0,0.0,0.0
1665676053410,-0.63671875,-0.19140625,0.7324219,0.125,-0.125,0.125,0.0,0.0,0.0
1665676053410,-0.63671875,-0.19140625,0.7324219,0.125,-0.125,0.125,0.0,0.0,0.0
1665676053451,-0.6308594,-0.1796875,0.7324219,0.125,-0.0625,0.125,0.0,0.0,0.0
1665676053451,-0.6308594,-0.1796875,0.7324219,0.125,-0.0625,0.125,0.0,0.0,0.0
1665676053490,-0.6279297,-0.18261719,0.7236328,0.1875,-0.125,0.1875,0.0,0.0,0.0
1665676053490,-0.6279297,-0.18261719,0.7236328,0.1875,-0.125,0.1875,0.0,0.0,0.0
1665676053531,-0.6298828,-0.18359375,0.7167969,0.0,0.0625,0.1875,0.0,0.0,0.0
1665676053531,-0.6298828,-0.18359375,0.7167969,0.0,0.0625,0.1875,0.0,0.0,0.0
1665676053570,-0.6357422,-0.17773438,0.7246094,-0.125,-0.0625,0.125,0.0,0.0,0.0
1665676053570,-0.6357422,-0.17773438,0.7246094,-0.125,-0.0625,0.125,0.0,0.0,0.0
1665676053609,-0.63378906,-0.18164062,0.7314453,0.0,-0.1875,0.0,0.0,0.0,0.0
1665676053609,-0.63378906,-0.18164062,0.7314453,0.0,-0.1875,0.0,0.0,0.0,0.0
1665676053650,-0.625,-0.1796875,0.7324219,0.0625,-0.0625,0.125,0.0,0.0,0.0
1665676053649,-0.625,-0.1796875,0.7324219,0.0625,-0.0625,0.125,0.0,0.0,0.0
1665676053690,-0.6308594,-0.18359375,0.7236328,0.125,0.0,0.1875,-53.125,8.3125,-111.8125
1665676053692,-0.6308594,-0.18359375,0.7236328,0.125,0.0,0.1875,-53.125,8.3125,-111.8125
1665676053730,-0.6298828,-0.17675781,0.734375,-0.0625,0.40625,-0.21875,0.0,0.0,0.0
1665676053731,-0.6298828,-0.17675781,0.734375,-0.0625,0.40625,-0.21875,0.0,0.0,0.0
1665676053770,-0.6279297,-0.17480469,0.7285156,0.0625,-0.625,-0.0625,0.0,0.0,0.0
1665676053770,-0.6279297,-0.17480469,0.7285156,0.0625,-0.625,-0.0625,0.0,0.0,0.0
1665676053810,-0.625,-0.18164062,0.73535156,0.125,-0.1875,0.0625,0.0,0.0,0.0
1665676053810,-0.625,-0.18164062,0.73535156,0.125,-0.1875,0.0625,0.0,0.0,0.0
1665676053849,-0.6347656,-0.18164062,0.73535156,0.0625,-0.125,0.0,0.0,0.0,0.0
1665676053849,-0.6347656,-0.18164062,0.73535156,0.0625,-0.125,0.0,0.0,0.0,0.0
1665676053890,-0.6279297,-0.18261719,0.7373047,-0.0625,0.0,0.125,0.0,0.0,0.0
1665676053890,-0.6279297,-0.18261719,0.7373047,-0.0625,0.0,0.125,0.0,0.0,0.0
1665676053930,-0.6279297,-0.1796875,0.7167969,0.3125,0.0625,-0.125,0.0,0.0,0.0
1665676053930,-0.6279297,-0.1796875,0.7167969,0.3125,0.0625,-0.125,0.0,0.0,0.0
1665676053970,-0.640625,-0.17578125,0.74316406,-0.0625,-0.125,0.3125,0.0,0.0,0.0
1665676053970,-0.640625,-0.17578125,0.74316406,-0.0625,-0.125,0.3125,0.0,0.0,0.0
1665676054032,-0.62597656,-0.18554688,0.7216797,-0.125,0.0625,-0.0625,0.0,0.0,0.0
1665676054032,-0.62597656,-0.18554688,0.7216797,-0.125,0.0625,-0.0625,0.0,0.0,0.0
1665676054049,-0.62890625,-0.17382812,0.72265625,-0.0625,0.0,0.1875,0.0,0.0,0.0
1665676054049,-0.62890625,-0.17382812,0.72265625,-0.0625,0.0,0.1875,0.0,0.0,0.0
1665676054092,-0.6191406,-0.18359375,0.7324219,0.0,0.28125,0.125,0.0,0.0,0.0
1665676054092,-0.6191406,-0.18359375,0.7324219,0.0,0.28125,0.125,0.0,0.0,0.0
1665676054131,-0.62597656,-0.17480469,0.72753906,0.0,0.125,0.125,0.0,0.0,0.0
1665676054131,-0.62597656,-0.17480469,0.72753906,0.0,0.125,0.125,0.0,0.0,0.0
1665676054170,-0.6171875,-0.17675781,0.7314453,0.0625,-0.0625,0.25,0.0,0.0,0.0
1665676054170,-0.6171875,-0.17675781,0.7314453,0.0625,-0.0625,0.25,0.0,0.0,0.0
1665676054210,-0.6269531,-0.18457031,0.74316406,0.0625,0.125,0.0625,-52.1875,7.8125,-110.3125
1665676054210,-0.6269531,-0.18457031,0.74316406,0.0625,0.125,0.0625,-52.1875,7.8125,-110.3125
1665676054250,-0.63964844,-0.17675781,0.7314453,0.0,0.0625,0.125,0.0,0.0,0.0
1665676054250,-0.63964844,-0.17675781,0.7314453,0.0,0.0625,0.125,0.0,0.0,0.0
1665676054290,-0.62402344,-0.18164062,0.7265625,0.125,0.0625,0.125,0.0,0.0,0.0
1665676054290,-0.62402344,-0.18164062,0.7265625,0.125,0.0625,0.125,0.0,0.0,0.0
1665676054331,-0.61816406,-0.18457031,0.7236328,0.125,0.15625,0.0625,0.0,0.0,0.0
1665676054331,-0.61816406,-0.18457031,0.7236328,0.125,0.15625,0.0625,0.0,0.0,0.0
1665676054369,-0.625,-0.18457031,0.71972656,0.0625,0.15625,0.1875,0.0,0.0,0.0
1665676054370,-0.625,-0.18457031,0.71972656,0.0625,0.15625,0.1875,0.0,0.0,0.0
1665676054412,-0.6357422,-0.1796875,0.72753906,0.0625,0.28125,-0.0625,0.0,0.0,0.0
1665676054412,-0.6357422,-0.1796875,0.72753906,0.0625,0.28125,-0.0625,0.0,0.0,0.0
1665676054453,-0.6279297,-0.17480469,0.71972656,0.0,-0.125,0.0625,0.0,0.0,0.0
1665676054453,-0.6279297,-0.17480469,0.71972656,0.0,-0.125,0.0625,0.0,0.0,0.0
1665676054490,-0.62890625,-0.19140625,0.7392578,0.125,-0.3125,-0.0625,0.0,0.0,0.0
1665676054490,-0.62890625,-0.19140625,0.7392578,0.125,-0.3125,-0.0625,0.0,0.0,0.0
1665676054532,-0.625,-0.1796875,0.7314453,0.1875,-0.1875,-0.0625,0.0,0.0,0.0
1665676054532,-0.625,-0.1796875,0.7314453,0.1875,-0.1875,-0.0625,0.0,0.0,0.0
1665676054570,-0.6230469,-0.17578125,0.73535156,0.0,0.21875,0.125,0.0,0.0,0.0
1665676054570,-0.6230469,-0.17578125,0.73535156,0.0,0.21875,0.125,0.0,0.0,0.0
1665676054613,-0.6230469,-0.17578125,0.7285156,-0.375,0.53125,-0.34375,0.0,0.0,0.0
1665676054613,-0.6230469,-0.17578125,0.7285156,-0.375,0.53125,-0.34375,0.0,0.0,0.0
1665676054652,-0.62890625,-0.17578125,0.71484375,-0.0625,-0.3125,0.0625,0.0,0.0,0.0
1665676054652,-0.62890625,-0.17578125,0.71484375,-0.0625,-0.3125,0.0625,0.0,0.0,0.0
1665676054689,-0.62402344,-0.17382812,0.7294922,-0.0625,-0.0625,0.125,-51.625,8.75,-110.125
1665676054689,-0.62402344,-0.17382812,0.7294922,-0.0625,-0.0625,0.125,-51.625,8.75,-110.125
1665676054730,-0.62890625,-0.1796875,0.75,-0.3125,0.21875,0.1875,0.0,0.0,0.0
1665676054730,-0.62890625,-0.1796875,0.75,-0.3125,0.21875,0.1875,0.0,0.0,0.0
1665676054772,-0.6347656,-0.17089844,0.7392578,-0.25,0.40625,0.125,0.0,0.0,0.0
1665676054772,-0.6347656,-0.17089844,0.7392578,-0.25,0.40625,0.125,0.0,0.0,0.0
1665676054810,-0.625,-0.17871094,0.73535156,0.125,0.21875,0.25,0.0,0.0,0.0
1665676054810,-0.625,-0.17871094,0.73535156,0.125,0.21875,0.25,0.0,0.0,0.0
1665676054850,-0.6201172,-0.17578125,0.7314453,-0.125,0.21875,0.1875,0.0,0.0,0.0
1665676054850,-0.6201172,-0.17578125,0.7314453,-0.125,0.21875,0.1875,0.0,0.0,0.0
1665676054891,-0.6230469,-0.18652344,0.7246094,-0.125,0.0625,0.1875,0.0,0.0,0.0
1665676054891,-0.6230469,-0.18652344,0.7246094,-0.125,0.0625,0.1875,0.0,0.0,0.0
1665676054933,-0.61328125,-0.17675781,0.7236328,0.0,0.15625,0.375,0.0,0.0,0.0
1665676054933,-0.61328125,-0.17675781,0.7236328,0.0,0.15625,0.375,0.0,0.0,0.0
1665676054971,-0.6220703,-0.1796875,0.7285156,0.0625,0.15625,0.25,0.0,0.0,0.0
1665676054972,-0.6220703,-0.1796875,0.7285156,0.0625,0.15625,0.25,0.0,0.0,0.0
1665676055012,-0.62597656,-0.18554688,0.73046875,0.0625,0.15625,0.3125,0.0,0.0,0.0
1665676055013,-0.62597656,-0.18554688,0.73046875,0.0625,0.15625,0.3125,0.0,0.0,0.0
1665676055051,-0.63378906,-0.171875,0.7138672,0.0,-0.0625,0.25,0.0,0.0,0.0
1665676055051,-0.63378906,-0.171875,0.7138672,0.0,-0.0625,0.25,0.0,0.0,0.0
1665676055150,-0.62597656,-0.17480469,0.73339844,0.0,0.21875,0.0,0.0,0.0,0.0
1665676055151,-0.62597656,-0.17480469,0.73339844,0.0,0.21875,0.0,0.0,0.0,0.0
1665676055155,-0.62890625,-0.17480469,0.7324219,0.0,0.34375,0.1875,0.0,0.0,0.0
1665676055155,-0.62890625,-0.17480469,0.7324219,0.0,0.34375,0.1875,0.0,0.0,0.0
1665676055170,-0.625,-0.17773438,0.7294922,-0.1875,0.28125,0.1875,0.0,0.0,0.0
1665676055170,-0.625,-0.17773438,0.7294922,-0.1875,0.28125,0.1875,0.0,0.0,0.0
1665676055212,-0.6308594,-0.17871094,0.7363281,0.0,0.28125,0.1875,-53.375,8.0,-111.1875
1665676055212,-0.6308594,-0.17871094,0.7363281,0.0,0.28125,0.1875,-53.375,8.0,-111.1875
1665676055252,-0.6269531,-0.171875,0.7402344,-0.125,0.21875,0.1875,0.0,0.0,0.0
1665676055252,-0.6269531,-0.171875,0.7402344,-0.125,0.21875,0.1875,0.0,0.0,0.0
1665676055291,-0.6269531,-0.17871094,0.7324219,-0.1875,0.34375,0.25,0.0,0.0,0.0
1665676055291,-0.6269531,-0.17871094,0.7324219,-0.1875,0.34375,0.25,0.0,0.0,0.0
1665676055329,-0.6308594,-0.17871094,0.7402344,-0.25,0.34375,0.25,0.0,0.0,0.0
1665676055329,-0.6308594,-0.17871094,0.7402344,-0.25,0.34375,0.25,0.0,0.0,0.0
1665676055370,-0.6220703,-0.18945312,0.7246094,-0.125,0.0625,0.1875,0.0,0.0,0.0
1665676055369,-0.6220703,-0.18945312,0.7246094,-0.125,0.0625,0.1875,0.0,0.0,0.0
1665676055411,-0.6142578,-0.18457031,0.73339844,0.0625,0.21875,0.1875,0.0,0.0,0.0
1665676055411,-0.6142578,-0.18457031,0.73339844,0.0625,0.21875,0.1875,0.0,0.0,0.0
1665676055451,-0.6230469,-0.1875,0.7314453,-0.0625,0.21875,0.1875,0.0,0.0,0.0
1665676055451,-0.6230469,-0.1875,0.7314453,-0.0625,0.21875,0.1875,0.0,0.0,0.0
1665676055512,-0.6220703,-0.17871094,0.7314453,-0.5,0.65625,0.0625,0.0,0.0,0.0
1665676055512,-0.6220703,-0.17871094,0.7314453,-0.5,0.65625,0.0625,0.0,0.0,0.0
1665676055530,-0.6347656,-0.18457031,0.7207031,-0.0625,0.0625,0.125,0.0,0.0,0.0
1665676055530,-0.6347656,-0.18457031,0.7207031,-0.0625,0.0625,0.125,0.0,0.0,0.0
1665676055573,-0.6113281,-0.17675781,0.74121094,-0.125,0.15625,0.1875,0.0,0.0,0.0
1665676055573,-0.6113281,-0.17675781,0.74121094,-0.125,0.15625,0.1875,0.0,0.0,0.0
1665676055609,-0.6308594,-0.19042969,0.7138672,-0.1875,0.21875,0.0625,0.0,0.0,0.0
1665676055610,-0.6308594,-0.19042969,0.7138672,-0.1875,0.21875,0.0625,0.0,0.0,0.0
1665676055650,-0.61621094,-0.18066406,0.7285156,-0.125,0.34375,0.25,0.0,0.0,0.0
1665676055650,-0.61621094,-0.18066406,0.7285156,-0.125,0.34375,0.25,0.0,0.0,0.0
1665676055692,-0.625,-0.18066406,0.7373047,-0.0625,0.125,0.25,-52.375,9.0625,-110.875
1665676055691,-0.625,-0.18066406,0.7373047,-0.0625,0.125,0.25,-52.375,9.0625,-110.875
1665676055733,-0.6230469,-0.18164062,0.73046875,-0.1875,0.40625,0.3125,0.0,0.0,0.0
1665676055733,-0.6230469,-0.18164062,0.73046875,-0.1875,0.40625,0.3125,0.0,0.0,0.0
1665676055770,-0.6191406,-0.19433594,0.74609375,-0.25,0.0625,0.25,0.0,0.0,0.0
1665676055770,-0.6191406,-0.19433594,0.74609375,-0.25,0.0625,0.25,0.0,0.0,0.0
1665676055811,-0.61816406,-0.18554688,0.7265625,0.0625,0.28125,0.25,0.0,0.0,0.0
1665676055811,-0.61816406,-0.18554688,0.7265625,0.0625,0.28125,0.25,0.0,0.0,0.0
1665676055850,-0.63183594,-0.17773438,0.7285156,0.0,0.34375,0.1875,0.0,0.0,0.0
1665676055850,-0.63183594,-0.17773438,0.7285156,0.0,0.34375,0.1875,0.0,0.0,0.0
1665676055890,-0.6064453,-0.18066406,0.7373047,-0.0625,0.21875,0.25,0.0,0.0,0.0
1665676055892,-0.6064453,-0.18066406,0.7373047,-0.0625,0.21875,0.25,0.0,0.0,0.0
1665676055930,-0.6298828,-0.18261719,0.72753906,0.125,0.21875,0.1875,0.0,0.0,0.0
1665676055930,-0.6298828,-0.18261719,0.72753906,0.125,0.21875,0.1875,0.0,0.0,0.0
1665676055970,-0.62890625,-0.1796875,0.7236328,0.0,0.40625,0.375,0.0,0.0,0.0
1665676055970,-0.62890625,-0.1796875,0.7236328,0.0,0.40625,0.375,0.0,0.0,0.0
1665676056012,-0.625,-0.18066406,0.7373047,0.0,0.21875,0.375,0.0,0.0,0.0
1665676056012,-0.625,-0.18066406,0.7373047,0.0,0.21875,0.375,0.0,0.0,0.0
1665676056050,-0.6220703,-0.18359375,0.7285156,0.0,0.46875,0.4375,0.0,0.0,0.0
1665676056050,-0.6220703,-0.18359375,0.7285156,0.0,0.46875,0.4375,0.0,0.0,0.0
1665676056093,-0.6308594,-0.17578125,0.73339844,-0.375,0.53125,0.375,0.0,0.0,0.0
1665676056093,-0.6308594,-0.17578125,0.73339844,-0.375,0.53125,0.375,0.0,0.0,0.0
1665676056130,-0.6298828,-0.18164062,0.73339844,-0.3125,0.53125,0.375,0.0,0.0,0.0
1665676056131,-0.6298828,-0.18164062,0.73339844,-0.3125,0.53125,0.375,0.0,0.0,0.0
1665676056170,-0.6308594,-0.18261719,0.734375,-0.3125,0.71875,0.1875,0.0,0.0,0.0
1665676056170,-0.6308594,-0.18261719,0.734375,-0.3125,0.71875,0.1875,0.0,0.0,0.0
1665676056214,-0.62109375,-0.18359375,0.7246094,-0.4375,0.90625,0.4375,-52.0625,7.6875,-111.1875
1665676056214,-0.62109375,-0.18359375,0.7246094,-0.4375,0.90625,0.4375,-52.0625,7.6875,-111.1875
1665676056250,-0.6328125,-0.18066406,0.73339844,-0.625,0.90625,0.375,0.0,0.0,0.0
1665676056250,-0.6328125,-0.18066406,0.73339844,-0.625,0.90625,0.375,0.0,0.0,0.0
1665676056290,-0.625,-0.18261719,0.7402344,-0.4375,0.78125,0.1875,0.0,0.0,0.0
1665676056290,-0.625,-0.18261719,0.7402344,-0.4375,0.78125,0.1875,0.0,0.0,0.0
1665676056329,-0.62402344,-0.17578125,0.7451172,-0.5,0.78125,0.5,0.0,0.0,0.0
1665676056330,-0.62402344,-0.17578125,0.7451172,-0.5,0.78125,0.5,0.0,0.0,0.0
1665676056370,-0.62890625,-0.18847656,0.7236328,-1.09375,1.28125,0.1875,0.0,0.0,0.0
1665676056370,-0.62890625,-0.18847656,0.7236328,-1.09375,1.28125,0.1875,0.0,0.0,0.0
1665676056410,-0.6308594,-0.19238281,0.7470703,-0.75,1.03125,0.25,0.0,0.0,0.0
1665676056410,-0.6308594,-0.19238281,0.7470703,-0.75,1.03125,0.25,0.0,0.0,0.0
1665676056450,-0.6201172,-0.17675781,0.73046875,-0.5625,0.59375,0.4375,0.0,0.0,0.0
1665676056450,-0.6201172,-0.17675781,0.73046875,-0.5625,0.59375,0.4375,0.0,0.0,0.0
1665676056489,-0.62597656,-0.19628906,0.734375,-1.03125,1.15625,0.25,0.0,0.0,0.0
1665676056491,-0.62597656,-0.19628906,0.734375,-1.03125,1.15625,0.25,0.0,0.0,0.0
1665676056530,-0.63183594,-0.18164062,0.7402344,-0.5,0.96875,0.5,0.0,0.0,0.0
1665676056530,-0.63183594,-0.18164062,0.7402344,-0.5,0.96875,0.5,0.0,0.0,0.0
1665676056570,-0.62402344,-0.1875,0.71777344,-0.4375,0.78125,0.3125,0.0,0.0,0.0
1665676056569,-0.62402344,-0.1875,0.71777344,-0.4375,0.78125,0.3125,0.0,0.0,0.0
1665676056610,-0.62597656,-0.19824219,0.7314453,-0.5625,1.09375,0.3125,0.0,0.0,0.0
1665676056610,-0.62597656,-0.19824219,0.7314453,-0.5625,1.09375,0.3125,0.0,0.0,0.0
1665676056651,-0.63671875,-0.19433594,0.7324219,-0.5,0.78125,0.375,0.0,0.0,0.0
1665676056651,-0.63671875,-0.19433594,0.7324219,-0.5,0.78125,0.375,0.0,0.0,0.0
1665676056690,-0.6269531,-0.18261719,0.7294922,-0.375,0.53125,0.5,-52.625,8.75,-110.4375
1665676056690,-0.6269531,-0.18261719,0.7294922,-0.375,0.53125,0.5,-52.625,8.75,-110.4375
1665676056730,-0.6376953,-0.18261719,0.7207031,-0.4375,0.84375,0.375,0.0,0.0,0.0
1665676056730,-0.6376953,-0.18261719,0.7207031,-0.4375,0.84375,0.375,0.0,0.0,0.0
1665676056770,-0.6279297,-0.1875,0.7324219,-0.625,0.84375,0.25,0.0,0.0,0.0
1665676056770,-0.6279297,-0.1875,0.7324219,-0.625,0.84375,0.25,0.0,0.0,0.0
1665676056810,-0.6269531,-0.18261719,0.73339844,-0.375,0.96875,0.4375,0.0,0.0,0.0
1665676056810,-0.6269531,-0.18261719,0.73339844,-0.375,0.96875,0.4375,0.0,0.0,0.0
1665676056850,-0.6269531,-0.18164062,0.7246094,-0.6875,0.96875,0.375,0.0,0.0,0.0
1665676056850,-0.6269531,-0.18164062,0.7246094,-0.6875,0.96875,0.375,0.0,0.0,0.0
1665676056892,-0.6201172,-0.1875,0.73046875,-0.75,1.21875,0.1875,0.0,0.0,0.0
1665676056892,-0.6201172,-0.1875,0.73046875,-0.75,1.21875,0.1875,0.0,0.0,0.0
1665676056931,-0.6357422,-0.19433594,0.734375,-0.90625,1.5,0.375,0.0,0.0,0.0
1665676056932,-0.6357422,-0.19433594,0.734375,-0.90625,1.5,0.375,0.0,0.0,0.0
1665676056970,-0.63671875,-0.18652344,0.73339844,-0.8125,1.21875,0.3125,0.0,0.0,0.0
1665676056970,-0.63671875,-0.18652344,0.73339844,-0.8125,1.21875,0.3125,0.0,0.0,0.0
1665676057010,-0.640625,-0.1875,0.7294922,-0.75,1.40625,0.1875,0.0,0.0,0.0
1665676057010,-0.640625,-0.1875,0.7294922,-0.75,1.40625,0.1875,0.0,0.0,0.0
1665676057070,-0.640625,-0.18847656,0.71972656,-0.6875,1.34375,0.3125,0.0,0.0,0.0
1665676057070,-0.640625,-0.18847656,0.71972656,-0.6875,1.34375,0.3125,0.0,0.0,0.0
1665676057090,-0.6376953,-0.19238281,0.71484375,-0.6875,0.96875,0.375,0.0,0.0,0.0
1665676057090,-0.6376953,-0.19238281,0.71484375,-0.6875,0.96875,0.375,0.0,0.0,0.0
1665676057130,-0.63378906,-0.19042969,0.7236328,-0.875,1.40625,0.125,0.0,0.0,0.0
1665676057130,-0.63378906,-0.19042969,0.7236328,-0.875,1.40625,0.125,0.0,0.0,0.0
1665676057170,-0.6376953,-0.19042969,0.7314453,-0.75,0.90625,0.3125,0.0,0.0,0.0
1665676057170,-0.6376953,-0.19042969,0.7314453,-0.75,0.90625,0.3125,0.0,0.0,0.0
1665676057210,-0.63671875,-0.19238281,0.70703125,-1.09375,1.5,0.125,-52.9375,7.8125,-111.625
1665676057210,-0.63671875,-0.19238281,0.70703125,-1.09375,1.5,0.125,-52.9375,7.8125,-111.625
1665676057250,-0.64160156,-0.19042969,0.72558594,-0.75,1.5,0.1875,0.0,0.0,0.0
1665676057251,-0.64160156,-0.19042969,0.72558594,-0.75,1.5,0.1875,0.0,0.0,0.0
1665676057291,-0.640625,-0.19140625,0.7236328,-1.09375,0.78125,0.125,0.0,0.0,0.0
1665676057291,-0.640625,-0.19140625,0.7236328,-1.09375,0.78125,0.125,0.0,0.0,0.0
1665676057330,-0.6357422,-0.20214844,0.7080078,-0.875,0.90625,0.125,0.0,0.0,0.0
1665676057330,-0.6357422,-0.20214844,0.7080078,-0.875,0.90625,0.125,0.0,0.0,0.0
1665676057369,-0.64160156,-0.19335938,0.70410156,-0.6875,1.03125,0.3125,0.0,0.0,0.0
1665676057369,-0.64160156,-0.19335938,0.70410156,-0.6875,1.03125,0.3125,0.0,0.0,0.0
1665676057414,-0.640625,-0.1953125,0.71191406,-0.5625,0.90625,0.3125,0.0,0.0,0.0
1665676057413,-0.640625,-0.1953125,0.71191406,-0.5625,0.90625,0.3125,0.0,0.0,0.0
1665676057451,-0.6435547,-0.18847656,0.7158203,-0.75,1.34375,0.3125,0.0,0.0,0.0
1665676057453,-0.6435547,-0.18847656,0.7158203,-0.75,1.34375,0.3125,0.0,0.0,0.0
1665676057489,-0.6455078,-0.1875,0.71484375,-0.75,0.96875,0.3125,0.0,0.0,0.0
1665676057489,-0.6455078,-0.1875,0.71484375,-0.75,0.96875,0.3125,0.0,0.0,0.0
1665676057534,-0.63671875,-0.1953125,0.7167969,-0.875,0.96875,0.125,0.0,0.0,0.0
1665676057534,-0.63671875,-0.1953125,0.7167969,-0.875,0.96875,0.125,0.0,0.0,0.0
1665676057570,-0.640625,-0.19433594,0.7167969,-0.625,0.96875,0.5,0.0,0.0,0.0
1665676057570,-0.640625,-0.19433594,0.7167969,-0.625,0.96875,0.5,0.0,0.0,0.0
1665676057612,-0.6425781,-0.19628906,0.71484375,-0.5,0.65625,0.3125,0.0,0.0,0.0
1665676057612,-0.6425781,-0.19628906,0.71484375,-0.5,0.65625,0.3125,0.0,0.0,0.0
1665676057650,-0.63671875,-0.1953125,0.71777344,-0.125,0.46875,0.1875,0.0,0.0,0.0
1665676057650,-0.63671875,-0.1953125,0.71777344,-0.125,0.46875,0.1875,0.0,0.0,0.0
1665676057691,-0.63964844,-0.18945312,0.7001953,-0.25,0.40625,0.0625,-52.9375,6.8125,-112.125
1665676057691,-0.63964844,-0.18945312,0.7001953,-0.25,0.40625,0.0625,-52.9375,6.8125,-112.125
1665676057730,-0.6376953,-0.1953125,0.7138672,-0.125,0.34375,0.0625,0.0,0.0,0.0
1665676057730,-0.6376953,-0.1953125,0.7138672,-0.125,0.34375,0.0625,0.0,0.0,0.0
1665676057770,-0.63671875,-0.20117188,0.7207031,-0.1875,0.46875,0.3125,0.0,0.0,0.0
1665676057772,-0.63671875,-0.20117188,0.7207031,-0.1875,0.46875,0.3125,0.0,0.0,0.0
1665676057809,-0.6455078,-0.19238281,0.7109375,-0.1875,0.21875,0.25,0.0,0.0,0.0
1665676057810,-0.6455078,-0.19238281,0.7109375,-0.1875,0.21875,0.25,0.0,0.0,0.0
1665676057849,-0.6455078,-0.19335938,0.7128906,-0.1875,0.15625,0.3125,0.0,0.0,0.0
1665676057849,-0.6455078,-0.19335938,0.7128906,-0.1875,0.15625,0.3125,0.0,0.0,0.0
1665676057891,-0.6425781,-0.19433594,0.7109375,-0.3125,0.46875,0.125,0.0,0.0,0.0
1665676057890,-0.6425781,-0.19433594,0.7109375,-0.3125,0.46875,0.125,0.0,0.0,0.0
1665676057932,-0.64746094,-0.19335938,0.7207031,0.0,-0.0625,0.375,0.0,0.0,0.0
1665676057932,-0.64746094,-0.19335938,0.7207031,0.0,-0.0625,0.375,0.0,0.0,0.0
1665676057970,-0.6435547,-0.20019531,0.7089844,-0.25,0.15625,0.0625,0.0,0.0,0.0
1665676057970,-0.6435547,-0.20019531,0.7089844,-0.25,0.15625,0.0625,0.0,0.0,0.0
1665676058010,-0.6308594,-0.1953125,0.71484375,-0.0625,0.46875,0.0,0.0,0.0,0.0
1665676058010,-0.6308594,-0.1953125,0.71484375,-0.0625,0.46875,0.0,0.0,0.0,0.0
1665676058051,-0.6435547,-0.19628906,0.7089844,-0.3125,-0.125,0.125,0.0,0.0,0.0
1665676058050,-0.6435547,-0.19628906,0.7089844,-0.3125,-0.125,0.125,0.0,0.0,0.0
1665676058090,-0.64746094,-0.1875,0.71191406,-0.0625,-0.0625,0.125,0.0,0.0,0.0
1665676058090,-0.64746094,-0.1875,0.71191406,-0.0625,-0.0625,0.125,0.0,0.0,0.0
1665676058151,-0.6542969,-0.18164062,0.70410156,0.0,0.28125,0.0625,0.0,0.0,0.0
1665676058150,-0.6542969,-0.18164062,0.70410156,0.0,0.28125,0.0625,0.0,0.0,0.0
1665676058170,-0.6435547,-0.19433594,0.70410156,0.125,0.46875,0.125,0.0,0.0,0.0
1665676058170,-0.6435547,-0.19433594,0.70410156,0.125,0.46875,0.125,0.0,0.0,0.0
1665676058210,-0.6357422,-0.20507812,0.71875,-0.0625,0.40625,0.25,-52.625,8.3125,-111.8125
1665676058210,-0.6357422,-0.20507812,0.71875,-0.0625,0.40625,0.25,-52.625,8.3125,-111.8125
1665676058251,-0.65234375,-0.20019531,0.7128906,-0.3125,0.53125,0.1875,0.0,0.0,0.0
1665676058251,-0.65234375,-0.20019531,0.7128906,-0.3125,0.53125,0.1875,0.0,0.0,0.0
1665676058291,-0.6455078,-0.19140625,0.7060547,-0.1875,-0.125,0.1875,0.0,0.0,0.0
1665676058291,-0.6455078,-0.19140625,0.7060547,-0.1875,-0.125,0.1875,0.0,0.0,0.0
1665676058332,-0.640625,-0.20019531,0.71972656,0.0625,-0.0625,0.0,0.0,0.0,0.0
1665676058332,-0.640625,-0.20019531,0.71972656,0.0625,-0.0625,0.0,0.0,0.0,0.0
1665676058374,-0.6347656,-0.19433594,0.70703125,-0.0625,0.0625,0.25,0.0,0.0,0.0
1665676058374,-0.6347656,-0.19433594,0.70703125,-0.0625,0.0625,0.25,0.0,0.0,0.0
1665676058410,-0.64746094,-0.19921875,0.7167969,0.125,-0.0625,0.25,0.0,0.0,0.0
1665676058410,-0.64746094,-0.19921875,0.7167969,0.125,-0.0625,0.25,0.0,0.0,0.0
1665676058450,-0.6435547,-0.19824219,0.7089844,0.0625,0.125,0.3125,0.0,0.0,0.0
1665676058450,-0.6435547,-0.19824219,0.7089844,0.0625,0.125,0.3125,0.0,0.0,0.0
1665676058490,-0.6542969,-0.20019531,0.71484375,0.125,-0.125,0.25,0.0,0.0,0.0
1665676058490,-0.6542969,-0.20019531,0.71484375,0.125,-0.125,0.25,0.0,0.0,0.0
1665676058531,-0.64746094,-0.19140625,0.7080078,-0.0625,0.0625,0.1875,0.0,0.0,0.0
1665676058530,-0.64746094,-0.19140625,0.7080078,-0.0625,0.0625,0.1875,0.0,0.0,0.0
1665676058571,-0.6455078,-0.19628906,0.72558594,0.0,0.0,0.1875,0.0,0.0,0.0
1665676058571,-0.6455078,-0.19628906,0.72558594,0.0,0.0,0.1875,0.0,0.0,0.0
1665676058611,-0.6298828,-0.19726562,0.71875,0.25,0.21875,0.125,0.0,0.0,0.0
1665676058611,-0.6298828,-0.19726562,0.71875,0.25,0.21875,0.125,0.0,0.0,0.0
1665676058654,-0.64160156,-0.19140625,0.70703125,0.25,-0.125,0.375,0.0,0.0,0.0
1665676058654,-0.64160156,-0.19140625,0.70703125,0.25,-0.125,0.375,0.0,0.0,0.0
1665676058690,-0.640625,-0.19628906,0.7089844,-0.0625,0.21875,0.0625,-53.125,6.9375,-112.5625
1665676058690,-0.640625,-0.19628906,0.7089844,-0.0625,0.21875,0.0625,-53.125,6.9375,-112.5625
1665676058735,-0.640625,-0.19140625,0.71191406,0.3125,-0.3125,0.0625,0.0,0.0,0.0
1665676058735,-0.640625,-0.19140625,0.71191406,0.3125,-0.3125,0.0625,0.0,0.0,0.0
1665676058771,-0.63964844,-0.1953125,0.7128906,0.125,-0.8125,-0.125,0.0,0.0,0.0
1665676058771,-0.63964844,-0.1953125,0.7128906,0.125,-0.8125,-0.125,0.0,0.0,0.0
1665676058809,-0.6503906,-0.18652344,0.71191406,0.40625,-0.4375,0.125,0.0,0.0,0.0
1665676058809,-0.6503906,-0.18652344,0.71191406,0.40625,-0.4375,0.125,0.0,0.0,0.0
1665676058872,-0.6464844,-0.19921875,0.7158203,0.25,-0.4375,0.0625,0.0,0.0,0.0
1665676058872,-0.6464844,-0.19921875,0.7158203,0.25,-0.4375,0.0625,0.0,0.0,0.0
1665676058890,-0.6435547,-0.19433594,0.71777344,0.59375,-0.75,0.0625,0.0,0.0,0.0
1665676058889,-0.6435547,-0.19433594,0.71777344,0.59375,-0.75,0.0625,0.0,0.0,0.0
1665676058930,-0.6435547,-0.19433594,0.7294922,0.1875,-0.3125,0.1875,0.0,0.0,0.0
1665676058930,-0.6435547,-0.19433594,0.7294922,0.1875,-0.3125,0.1875,0.0,0.0,0.0
1665676058973,-0.6464844,-0.19140625,0.7167969,0.3125,-0.4375,0.0625,0.0,0.0,0.0
1665676058972,-0.6464844,-0.19140625,0.7167969,0.3125,-0.4375,0.0625,0.0,0.0,0.0
1665676059009,-0.63378906,-0.19140625,0.7236328,0.53125,-0.625,0.0,0.0,0.0,0.0
1665676059009,-0.63378906,-0.19140625,0.7236328,0.53125,-0.625,0.0,0.0,0.0,0.0
1665676059050,-0.6455078,-0.19628906,0.71972656,0.25,-0.5,0.125,0.0,0.0,0.0
1665676059050,-0.6455078,-0.19628906,0.71972656,0.25,-0.5,0.125,0.0,0.0,0.0
1665676059091,-0.64453125,-0.18945312,0.7109375,0.40625,-0.875,0.0625,0.0,0.0,0.0
1665676059091,-0.64453125,-0.18945312,0.7109375,0.40625,-0.875,0.0625,0.0,0.0,0.0
1665676059130,-0.6347656,-0.1953125,0.71972656,0.40625,-0.625,0.0,0.0,0.0,0.0
1665676059130,-0.6347656,-0.1953125,0.71972656,0.40625,-0.625,0.0,0.0,0.0,0.0
1665676059170,-0.6464844,-0.19140625,0.7246094,0.40625,-0.6875,0.125,0.0,0.0,0.0
1665676059170,-0.6464844,-0.19140625,0.7246094,0.40625,-0.6875,0.125,0.0,0.0,0.0
1665676059210,-0.6386719,-0.19335938,0.7246094,0.53125,-0.875,-0.0625,-54.75,9.625,-113.4375
1665676059210,-0.6386719,-0.19335938,0.7246094,0.53125,-0.875,-0.0625,-54.75,9.625,-113.4375
1665676059250,-0.640625,-0.19433594,0.7324219,0.1875,-0.5,0.0,0.0,0.0,0.0
1665676059250,-0.640625,-0.19433594,0.7324219,0.1875,-0.5,0.0,0.0,0.0,0.0
1665676059291,-0.63964844,-0.19238281,0.7265625,0.40625,-0.875,-0.0625,0.0,0.0,0.0
1665676059291,-0.63964844,-0.19238281,0.7265625,0.40625,-0.875,-0.0625,0.0,0.0,0.0
1665676059331,-0.6298828,-0.1953125,0.7109375,0.0625,-0.5625,-0.125,0.0,0.0,0.0
1665676059330,-0.6298828,-0.1953125,0.7109375,0.0625,-0.5625,-0.125,0.0,0.0,0.0
1665676059370,-0.6425781,-0.19335938,0.7285156,0.40625,-0.5625,0.0625,0.0,0.0,0.0
1665676059370,-0.6425781,-0.19335938,0.7285156,0.40625,-0.5625,0.0625,0.0,0.0,0.0
1665676059412,-0.63378906,-0.18945312,0.7109375,-0.3125,-0.125,-0.28125,0.0,0.0,0.0
1665676059412,-0.63378906,-0.18945312,0.7109375,-0.3125,-0.125,-0.28125,0.0,0.0,0.0
1665676059452,-0.6425781,-0.19335938,0.7265625,0.25,-0.625,-0.125,0.0,0.0,0.0
1665676059452,-0.6425781,-0.19335938,0.7265625,0.25,-0.625,-0.125,0.0,0.0,0.0
1665676059490,-0.62890625,-0.19726562,0.7363281,0.125,-0.8125,-0.125,0.0,0.0,0.0
1665676059490,-0.62890625,-0.19726562,0.7363281,0.125,-0.8125,-0.125,0.0,0.0,0.0
1665676059530,-0.6376953,-0.19335938,0.72753906,0.25,-0.75,0.0625,0.0,0.0,0.0
1665676059530,-0.6376953,-0.19335938,0.72753906,0.25,-0.75,0.0625,0.0,0.0,0.0
1665676059572,-0.640625,-0.19042969,0.7314453,0.375,-0.3125,-0.0625,0.0,0.0,0.0
1665676059572,-0.640625,-0.19042969,0.7314453,0.375,-0.3125,-0.0625,0.0,0.0,0.0
1665676059613,-0.6386719,-0.18945312,0.7167969,0.59375,-0.5625,0.125,0.0,0.0,0.0
1665676059613,-0.6386719,-0.18945312,0.7167969,0.59375,-0.5625,0.125,0.0,0.0,0.0
1665676059673,-0.6357422,-0.19921875,0.73535156,0.3125,-0.375,0.125,0.0,0.0,0.0
1665676059673,-0.6357422,-0.19921875,0.73535156,0.3125,-0.375,0.125,0.0,0.0,0.0
1665676059710,-0.62402344,-0.19824219,0.7285156,0.0,-0.4375,0.1875,-53.25,7.8125,-112.375
1665676059710,-0.62402344,-0.19824219,0.7285156,0.0,-0.4375,0.1875,-53.25,7.8125,-112.375
1665676059730,-0.6347656,-0.203125,0.71777344,0.375,-0.5,0.1875,0.0,0.0,0.0
1665676059730,-0.6347656,-0.203125,0.71777344,0.375,-0.5,0.1875,0.0,0.0,0.0
1665676059772,-0.63671875,-0.18554688,0.71875,0.3125,-0.375,-0.0625,0.0,0.0,0.0
1665676059772,-0.63671875,-0.18554688,0.71875,0.3125,-0.375,-0.0625,0.0,0.0,0.0
1665676059810,-0.64160156,-0.18652344,0.72265625,0.40625,-0.6875,0.1875,0.0,0.0,0.0
1665676059810,-0.64160156,-0.18652344,0.72265625,0.40625,-0.6875,0.1875,0.0,0.0,0.0
1665676059854,-0.62402344,-0.1953125,0.71972656,0.40625,-0.25,0.125,0.0,0.0,0.0
1665676059854,-0.62402344,-0.1953125,0.71972656,0.40625,-0.25,0.125,0.0,0.0,0.0
1665676059892,-0.640625,-0.19433594,0.71484375,0.46875,-0.625,0.1875,0.0,0.0,0.0
1665676059892,-0.640625,-0.19433594,0.71484375,0.46875,-0.625,0.1875,0.0,0.0,0.0
1665676059932,-0.6357422,-0.19433594,0.7265625,0.40625,-0.75,0.0625,0.0,0.0,0.0
1665676059932,-0.6357422,-0.19433594,0.7265625,0.40625,-0.75,0.0625,0.0,0.0,0.0
1665676059971,-0.6298828,-0.18261719,0.72753906,0.25,-0.25,0.0625,0.0,0.0,0.0
1665676059972,-0.6298828,-0.18261719,0.72753906,0.25,-0.25,0.0625,0.0,0.0,0.0
1665676060009,-0.6230469,-0.19238281,0.72265625,0.1875,-0.25,0.0625,0.0,0.0,0.0
1665676060009,-0.6230469,-0.19238281,0.72265625,0.1875,-0.25,0.0625,0.0,0.0,0.0
1665676060050,-0.6376953,-0.19042969,0.7285156,0.25,-0.5,-0.125,0.0,0.0,0.0
1665676060050,-0.6376953,-0.19042969,0.7285156,0.25,-0.5,-0.125,0.0,0.0,0.0
1665676060092,-0.6308594,-0.18554688,0.72558594,0.40625,-0.625,0.0,0.0,0.0,0.0
1665676060092,-0.6308594,-0.18554688,0.72558594,0.40625,-0.625,0.0,0.0,0.0,0.0
1665676060130,-0.62402344,-0.18261719,0.7294922,0.3125,-0.375,-0.125,0.0,0.0,0.0
1665676060130,-0.62402344,-0.18261719,0.7294922,0.3125,-0.375,-0.125,0.0,0.0,0.0
1665676060170,-0.63378906,-0.18066406,0.71875,-0.0625,-0.125,0.0625,0.0,0.0,0.0
1665676060170,-0.63378906,-0.18066406,0.71875,-0.0625,-0.125,0.0625,0.0,0.0,0.0
1665676060211,-0.6230469,-0.20117188,0.7294922,0.25,-0.3125,-0.0625,-51.75,8.5625,-110.3125
1665676060211,-0.6230469,-0.20117188,0.7294922,0.25,-0.3125,-0.0625,-51.75,8.5625,-110.3125
1665676060250,-0.6328125,-0.19042969,0.7109375,0.53125,-0.875,0.0625,0.0,0.0,0.0
1665676060250,-0.6328125,-0.19042969,0.7109375,0.53125,-0.875,0.0625,0.0,0.0,0.0
1665676060290,-0.62402344,-0.18847656,0.71777344,0.25,-0.9375,-0.0625,0.0,0.0,0.0
1665676060290,-0.62402344,-0.18847656,0.71777344,0.25,-0.9375,-0.0625,0.0,0.0,0.0
1665676060331,-0.6269531,-0.18261719,0.74121094,0.40625,-0.5625,-0.0625,0.0,0.0,0.0
1665676060331,-0.6269531,-0.18261719,0.74121094,0.40625,-0.5625,-0.0625,0.0,0.0,0.0
1665676060370,-0.62890625,-0.19238281,0.7265625,0.96875,-0.8125,0.0625,0.0,0.0,0.0
1665676060370,-0.62890625,-0.19238281,0.7265625,0.96875,-0.8125,0.0625,0.0,0.0,0.0
1665676060410,-0.62109375,-0.1953125,0.73535156,0.78125,-0.6875,-0.125,0.0,0.0,0.0
1665676060410,-0.62109375,-0.1953125,0.73535156,0.78125,-0.6875,-0.125,0.0,0.0,0.0
1665676060454,-0.63183594,-0.19433594,0.72753906,0.53125,-0.6875,-0.0625,0.0,0.0,0.0
1665676060454,-0.63183594,-0.19433594,0.72753906,0.53125,-0.6875,-0.0625,0.0,0.0,0.0
1665676060490,-0.6230469,-0.19433594,0.7265625,0.25,-0.375,0.125,0.0,0.0,0.0
1665676060490,-0.6230469,-0.19433594,0.7265625,0.25,-0.375,0.125,0.0,0.0,0.0
1665676060533,-0.6269531,-0.18261719,0.7265625,0.40625,-0.5,0.125,0.0,0.0,0.0
1665676060533,-0.6269531,-0.18261719,0.7265625,0.40625,-0.5,0.125,0.0,0.0,0.0
1665676060574,-0.6230469,-0.20019531,0.7363281,0.40625,-0.4375,0.125,0.0,0.0,0.0
1665676060574,-0.6230469,-0.20019531,0.7363281,0.40625,-0.4375,0.125,0.0,0.0,0.0
1665676060611,-0.62597656,-0.19238281,0.7402344,0.25,-0.625,0.0,0.0,0.0,0.0
1665676060612,-0.62597656,-0.19238281,0.7402344,0.25,-0.625,0.0,0.0,0.0,0.0
1665676060651,-0.6201172,-0.1796875,0.73046875,0.40625,-0.375,0.0,0.0,0.0,0.0
1665676060651,-0.6201172,-0.1796875,0.73046875,0.40625,-0.375,0.0,0.0,0.0,0.0
1665676060691,-0.625,-0.18652344,0.7314453,0.25,-0.375,0.1875,-51.3125,6.9375,-110.875
1665676060691,-0.625,-0.18652344,0.7314453,0.25,-0.375,0.1875,-51.3125,6.9375,-110.875
1665676060729,-0.62402344,-0.18945312,0.7402344,0.25,-0.5,0.125,0.0,0.0,0.0
1665676060729,-0.62402344,-0.18945312,0.7402344,0.25,-0.5,0.125,0.0,0.0,0.0
1665676060790,-0.62402344,-0.18652344,0.7324219,0.3125,-0.1875,0.0,0.0,0.0,0.0
1665676060790,-0.62402344,-0.18652344,0.7324219,0.3125,-0.1875,0.0,0.0,0.0,0.0
1665676060811,-0.6298828,-0.18847656,0.7451172,0.1875,-0.125,0.125,0.0,0.0,0.0
1665676060811,-0.6298828,-0.18847656,0.7451172,0.1875,-0.125,0.125,0.0,0.0,0.0
1665676060850,-0.6171875,-0.18457031,0.7402344,0.125,-0.25,0.1875,0.0,0.0,0.0
1665676060850,-0.6171875,-0.18457031,0.7402344,0.125,-0.25,0.1875,0.0,0.0,0.0
1665676060890,-0.62597656,-0.1875,0.7265625,0.1875,-0.0625,0.1875,0.0,0.0,0.0
1665676060890,-0.62597656,-0.1875,0.7265625,0.1875,-0.0625,0.1875,0.0,0.0,0.0
1665676060931,-0.62402344,-0.18261719,0.7246094,0.125,-0.5,0.25,0.0,0.0,0.0
1665676060933,-0.62402344,-0.18261719,0.7246094,0.125,-0.5,0.25,0.0,0.0,0.0
1665676060970,-0.62597656,-0.18652344,0.7314453,0.46875,-0.375,-0.0625,0.0,0.0,0.0
1665676060970,-0.62597656,-0.18652344,0.7314453,0.46875,-0.375,-0.0625,0.0,0.0,0.0
1665676061010,-0.62890625,-0.18847656,0.73828125,0.3125,-0.25,0.1875,0.0,0.0,0.0
1665676061010,-0.62890625,-0.18847656,0.73828125,0.3125,-0.25,0.1875,0.0,0.0,0.0
1665676061051,-0.61621094,-0.1953125,0.73046875,0.0625,0.125,-0.34375,0.0,0.0,0.0
1665676061051,-0.61621094,-0.1953125,0.73046875,0.0625,0.125,-0.34375,0.0,0.0,0.0
1665676061090,-0.6191406,-0.18457031,0.7236328,0.46875,-0.75,0.0625,0.0,0.0,0.0
1665676061089,-0.6191406,-0.18457031,0.7236328,0.46875,-0.75,0.0625,0.0,0.0,0.0
1665676061130,-0.6152344,-0.17871094,0.7285156,0.0625,-0.375,0.1875,0.0,0.0,0.0
1665676061130,-0.6152344,-0.17871094,0.7285156,0.0625,-0.375,0.1875,0.0,0.0,0.0
1665676061173,-0.61621094,-0.18457031,0.7363281,0.1875,-0.125,0.1875,0.0,0.0,0.0
1665676061173,-0.61621094,-0.18457031,0.7363281,0.1875,-0.125,0.1875,0.0,0.0,0.0
1665676061210,-0.6191406,-0.18554688,0.7402344,-0.0625,0.0625,0.125,-52.0625,8.0,-110.875
1665676061210,-0.6191406,-0.18554688,0.7402344,-0.0625,0.0625,0.125,-52.0625,8.0,-110.875
1665676061269,-0.6191406,-0.18066406,0.7236328,0.1875,-0.375,0.1875,0.0,0.0,0.0
1665676061269,-0.6191406,-0.18066406,0.7236328,0.1875,-0.375,0.1875,0.0,0.0,0.0
1665676061291,-0.6201172,-0.1875,0.7392578,-0.0625,0.0625,0.375,0.0,0.0,0.0
1665676061291,-0.6201172,-0.1875,0.7392578,-0.0625,0.0625,0.375,0.0,0.0,0.0
1665676061330,-0.62402344,-0.20019531,0.7392578,-0.0625,0.0,0.0625,0.0,0.0,0.0
1665676061330,-0.62402344,-0.20019531,0.7392578,-0.0625,0.0,0.0625,0.0,0.0,0.0
1665676061371,-0.61816406,-0.18066406,0.7314453,0.125,-0.1875,0.1875,0.0,0.0,0.0
1665676061372,-0.61816406,-0.18066406,0.7314453,0.125,-0.1875,0.1875,0.0,0.0,0.0
1665676061410,-0.61328125,-0.18359375,0.73339844,0.125,0.0,0.25,0.0,0.0,0.0
1665676061410,-0.61328125,-0.18359375,0.73339844,0.125,0.0,0.25,0.0,0.0,0.0
1665676061450,-0.61621094,-0.18652344,0.74316406,0.0625,-0.1875,0.4375,0.0,0.0,0.0
1665676061450,-0.61621094,-0.18652344,0.74316406,0.0625,-0.1875,0.4375,0.0,0.0,0.0
1665676061491,-0.61816406,-0.17773438,0.7294922,0.1875,0.125,0.1875,0.0,0.0,0.0
1665676061491,-0.61816406,-0.17773438,0.7294922,0.1875,0.125,0.1875,0.0,0.0,0.0
1665676061534,-0.6269531,-0.18945312,0.73339844,0.0625,0.125,0.0,0.0,0.0,0.0
1665676061534,-0.6269531,-0.18945312,0.73339844,0.0625,0.125,0.0,0.0,0.0,0.0
1665676061570,-0.6142578,-0.18359375,0.7324219,0.0,0.125,0.1875,0.0,0.0,0.0
1665676061570,-0.6142578,-0.18359375,0.7324219,0.0,0.125,0.1875,0.0,0.0,0.0
1665676061610,-0.6191406,-0.18847656,0.73828125,-0.0625,0.0625,0.1875,0.0,0.0,0.0
1665676061610,-0.6191406,-0.18847656,0.73828125,-0.0625,0.0625,0.1875,0.0,0.0,0.0
1665676061650,-0.61816406,-0.18945312,0.7373047,0.0,0.15625,0.0,0.0,0.0,0.0
1665676061650,-0.61816406,-0.18945312,0.7373047,0.0,0.15625,0.0,0.0,0.0,0.0
1665676061690,-0.6142578,-0.1875,0.7402344,0.1875,0.21875,0.25,-52.0625,7.6875,-112.25
1665676061690,-0.6142578,-0.1875,0.7402344,0.1875,0.21875,0.25,-52.0625,7.6875,-112.25
1665676061730,-0.61816406,-0.18261719,0.73339844,-0.0625,0.125,0.1875,0.0,0.0,0.0
1665676061730,-0.61816406,-0.18261719,0.73339844,-0.0625,0.125,0.1875,0.0,0.0,0.0
1665676061770,-0.6201172,-0.18457031,0.7373047,-0.0625,0.125,0.1875,0.0,0.0,0.0
1665676061770,-0.6201172,-0.18457031,0.7373047,-0.0625,0.125,0.1875,0.0,0.0,0.0
1665676061809,-0.6220703,-0.18945312,0.7421875,-0.125,-0.0625,0.25,0.0,0.0,0.0
1665676061810,-0.6220703,-0.18945312,0.7421875,-0.125,-0.0625,0.25,0.0,0.0,0.0
1665676061853,-0.61816406,-0.18359375,0.7314453,0.0,0.125,0.0625,0.0,0.0,0.0
1665676061853,-0.61816406,-0.18359375,0.7314453,0.0,0.125,0.0625,0.0,0.0,0.0
1665676061893,-0.6171875,-0.18945312,0.7421875,0.0625,0.125,0.1875,0.0,0.0,0.0
1665676061893,-0.6171875,-0.18945312,0.7421875,0.0625,0.125,0.1875,0.0,0.0,0.0
1665676061929,-0.625,-0.18652344,0.7421875,-0.0625,0.21875,0.1875,0.0,0.0,0.0
1665676061930,-0.625,-0.18652344,0.7421875,-0.0625,0.21875,0.1875,0.0,0.0,0.0
1665676061971,-0.61816406,-0.19238281,0.72753906,-0.1875,0.21875,-0.1875,0.0,0.0,0.0
1665676061971,-0.61816406,-0.19238281,0.72753906,-0.1875,0.21875,-0.1875,0.0,0.0,0.0
1665676062010,-0.62402344,-0.18847656,0.74121094,0.25,-0.1875,0.3125,0.0,0.0,0.0
1665676062010,-0.62402344,-0.18847656,0.74121094,0.25,-0.1875,0.3125,0.0,0.0,0.0
1665676062049,-0.6123047,-0.19433594,0.7441406,-0.25,-0.0625,0.1875,0.0,0.0,0.0
1665676062049,-0.6123047,-0.19433594,0.7441406,-0.25,-0.0625,0.1875,0.0,0.0,0.0
1665676062090,-0.6201172,-0.1875,0.74316406,0.0625,0.15625,0.125,0.0,0.0,0.0
1665676062090,-0.6201172,-0.1875,0.74316406,0.0625,0.15625,0.125,0.0,0.0,0.0
1665676062133,-0.6220703,-0.18457031,0.73339844,0.0625,0.28125,0.1875,0.0,0.0,0.0
1665676062133,-0.6220703,-0.18457031,0.73339844,0.0625,0.28125,0.1875,0.0,0.0,0.0
1665676062171,-0.6201172,-0.18945312,0.7265625,-0.0625,-0.0625,0.125,0.0,0.0,0.0
1665676062171,-0.6201172,-0.18945312,0.7265625,-0.0625,-0.0625,0.125,0.0,0.0,0.0
1665676062210,-0.6171875,-0.19726562,0.75,0.0625,0.125,0.0625,-52.375,8.0,-110.4375
1665676062210,-0.6171875,-0.19726562,0.75,0.0625,0.125,0.0625,-52.375,8.0,-110.4375
1665676062290,-0.61816406,-0.19140625,0.72753906,0.0625,0.125,0.1875,0.0,0.0,0.0
1665676062290,-0.61816406,-0.19140625,0.72753906,0.0625,0.125,0.1875,0.0,0.0,0.0
1665676062310,-0.6220703,-0.18652344,0.7324219,-0.0625,-0.0625,0.25,0.0,0.0,0.0
1665676062310,-0.6220703,-0.18652344,0.7324219,-0.0625,-0.0625,0.25,0.0,0.0,0.0
1665676062337,-0.625,-0.18945312,0.74902344,0.0,0.0,0.25,0.0,0.0,0.0
1665676062337,-0.625,-0.18945312,0.74902344,0.0,0.0,0.25,0.0,0.0,0.0
1665676062372,-0.6191406,-0.19628906,0.7402344,0.0,-0.0625,0.25,0.0,0.0,0.0
1665676062372,-0.6191406,-0.19628906,0.7402344,0.0,-0.0625,0.25,0.0,0.0,0.0
1665676062412,-0.6201172,-0.19433594,0.74902344,0.0,0.28125,0.125,0.0,0.0,0.0
1665676062412,-0.6201172,-0.19433594,0.74902344,0.0,0.28125,0.125,0.0,0.0,0.0
1665676062449,-0.61816406,-0.18261719,0.7421875,0.0,-0.0625,0.25,0.0,0.0,0.0
1665676062449,-0.61816406,-0.18261719,0.7421875,0.0,-0.0625,0.25,0.0,0.0,0.0
1665676062490,-0.6201172,-0.18261719,0.74316406,-0.0625,0.0,0.3125,0.0,0.0,0.0
1665676062490,-0.6201172,-0.18261719,0.74316406,-0.0625,0.0,0.3125,0.0,0.0,0.0
1665676062551,-0.61816406,-0.18457031,0.73828125,-0.125,0.0625,0.3125,0.0,0.0,0.0
1665676062551,-0.61816406,-0.18457031,0.73828125,-0.125,0.0625,0.3125,0.0,0.0,0.0
1665676062570,-0.6201172,-0.19042969,0.73828125,0.0,0.28125,0.3125,0.0,0.0,0.0
1665676062570,-0.6201172,-0.19042969,0.73828125,0.0,0.28125,0.3125,0.0,0.0,0.0
1665676062610,-0.61816406,-0.18359375,0.734375,-0.1875,0.21875,0.375,0.0,0.0,0.0
1665676062610,-0.61816406,-0.18359375,0.734375,-0.1875,0.21875,0.375,0.0,0.0,0.0
1665676062650,-0.6191406,-0.18164062,0.72558594,-0.3125,0.125,0.4375,0.0,0.0,0.0
1665676062650,-0.6191406,-0.18164062,0.72558594,-0.3125,0.125,0.4375,0.0,0.0,0.0
1665676062690,-0.61816406,-0.18945312,0.7421875,-0.1875,0.34375,0.375,-52.1875,7.8125,-111.375
1665676062690,-0.61816406,-0.18945312,0.7421875,-0.1875,0.34375,0.375,-52.1875,7.8125,-111.375
1665676062730,-0.6152344,-0.1796875,0.7373047,-0.25,0.21875,0.375,0.0,0.0,0.0
1665676062730,-0.6152344,-0.1796875,0.7373047,-0.25,0.21875,0.375,0.0,0.0,0.0
1665676062770,-0.6113281,-0.18261719,0.7294922,-0.3125,0.125,0.5,0.0,0.0,0.0
1665676062772,-0.6113281,-0.18261719,0.7294922,-0.3125,0.125,0.5,0.0,0.0,0.0
1665676062812,-0.6191406,-0.1796875,0.7421875,0.0,0.21875,0.375,0.0,0.0,0.0
1665676062813,-0.6191406,-0.1796875,0.7421875,0.0,0.21875,0.375,0.0,0.0,0.0
1665676062850,-0.6171875,-0.19238281,0.74609375,-0.0625,0.0,0.8125,0.0,0.0,0.0
1665676062850,-0.6171875,-0.19238281,0.74609375,-0.0625,0.0,0.8125,0.0,0.0,0.0
1665676062891,-0.6230469,-0.18164062,0.7363281,-0.5,0.53125,0.75,0.0,0.0,0.0
1665676062891,-0.6230469,-0.18164062,0.7363281,-0.5,0.53125,0.75,0.0,0.0,0.0
1665676062930,-0.61816406,-0.18945312,0.7324219,-0.0625,0.28125,0.4375,0.0,0.0,0.0
1665676062930,-0.61816406,-0.18945312,0.7324219,-0.0625,0.28125,0.4375,0.0,0.0,0.0
1665676062990,-0.6220703,-0.19921875,0.73046875,-0.0625,-0.25,0.8125,0.0,0.0,0.0
1665676062990,-0.6220703,-0.19921875,0.73046875,-0.0625,-0.25,0.8125,0.0,0.0,0.0
1665676063009,-0.60839844,-0.1953125,0.7392578,-0.25,-0.0625,0.375,0.0,0.0,0.0
1665676063009,-0.60839844,-0.1953125,0.7392578,-0.25,-0.0625,0.375,0.0,0.0,0.0
1665676063051,-0.6308594,-0.18261719,0.7265625,0.0,0.46875,0.4375,0.0,0.0,0.0
1665676063051,-0.6308594,-0.18261719,0.7265625,0.0,0.46875,0.4375,0.0,0.0,0.0
1665676063089,-0.6142578,-0.19140625,0.73046875,-0.125,0.15625,0.5,0.0,0.0,0.0
1665676063089,-0.6142578,-0.19140625,0.73046875,-0.125,0.15625,0.5,0.0,0.0,0.0
1665676063150,-0.62402344,-0.18945312,0.7314453,-0.25,0.59375,0.4375,0.0,0.0,0.0
1665676063150,-0.62402344,-0.18945312,0.7314453,-0.25,0.59375,0.4375,0.0,0.0,0.0
1665676063170,-0.61621094,-0.18652344,0.7314453,-0.375,0.53125,0.3125,0.0,0.0,0.0
1665676063170,-0.61621094,-0.18652344,0.7314453,-0.375,0.53125,0.3125,0.0,0.0,0.0
1665676063210,-0.61621094,-0.18945312,0.7236328,-0.375,0.53125,0.625,-52.0625,8.0,-110.875
1665676063210,-0.61621094,-0.18945312,0.7236328,-0.375,0.53125,0.625,-52.0625,8.0,-110.875
1665676063250,-0.62109375,-0.18945312,0.7246094,-0.4375,0.78125,0.375,0.0,0.0,0.0
1665676063250,-0.62109375,-0.18945312,0.7246094,-0.4375,0.78125,0.375,0.0,0.0,0.0
1665676063290,-0.6230469,-0.19335938,0.7421875,-0.375,0.53125,0.625,0.0,0.0,0.0
1665676063290,-0.6230469,-0.19335938,0.7421875,-0.375,0.53125,0.625,0.0,0.0,0.0
1665676063331,-0.6308594,-0.18945312,0.7392578,0.0,0.71875,0.5,0.0,0.0,0.0
1665676063331,-0.6308594,-0.18945312,0.7392578,0.0,0.71875,0.5,0.0,0.0,0.0
1665676063371,-0.6123047,-0.17871094,0.7470703,0.1875,0.59375,0.5625,0.0,0.0,0.0
1665676063371,-0.6123047,-0.17871094,0.7470703,0.1875,0.59375,0.5625,0.0,0.0,0.0
1665676063430,-0.62597656,-0.19140625,0.7294922,0.0,0.53125,0.3125,0.0,0.0,0.0
1665676063430,-0.62597656,-0.19140625,0.7294922,0.0,0.53125,0.3125,0.0,0.0,0.0
1665676063471,-0.61328125,-0.17578125,0.74316406,0.0,0.40625,0.625,0.0,0.0,0.0
1665676063471,-0.61328125,-0.17578125,0.74316406,0.0,0.40625,0.625,0.0,0.0,0.0
1665676063491,-0.6220703,-0.19824219,0.7480469,-0.1875,0.65625,0.625,0.0,0.0,0.0
1665676063491,-0.6220703,-0.19824219,0.7480469,-0.1875,0.65625,0.625,0.0,0.0,0.0
1665676063533,-0.62597656,-0.18164062,0.7294922,-0.1875,0.65625,0.4375,0.0,0.0,0.0
1665676063533,-0.62597656,-0.18164062,0.7294922,-0.1875,0.65625,0.4375,0.0,0.0,0.0
1665676063571,-0.61621094,-0.18847656,0.7314453,-0.25,0.59375,0.3125,0.0,0.0,0.0
1665676063571,-0.61621094,-0.18847656,0.7314453,-0.25,0.59375,0.3125,0.0,0.0,0.0
1665676063610,-0.6269531,-0.18359375,0.72558594,-0.25,0.78125,0.3125,0.0,0.0,0.0
1665676063610,-0.6269531,-0.18359375,0.72558594,-0.25,0.78125,0.3125,0.0,0.0,0.0
1665676063651,-0.6308594,-0.18261719,0.71875,-0.375,0.84375,0.3125,0.0,0.0,0.0
1665676063651,-0.6308594,-0.18261719,0.71875,-0.375,0.84375,0.3125,0.0,0.0,0.0
1665676063690,-0.6220703,-0.18261719,0.7402344,-0.25,0.78125,0.1875,-52.625,9.5,-112.5625
1665676063692,-0.6220703,-0.18261719,0.7402344,-0.25,0.78125,0.1875,-52.625,9.5,-112.5625
1665676063729,-0.6279297,-0.18554688,0.7363281,-0.1875,0.46875,0.5,0.0,0.0,0.0
1665676063730,-0.6279297,-0.18554688,0.7363281,-0.1875,0.46875,0.5,0.0,0.0,0.0
1665676063811,-0.62597656,-0.17773438,0.71972656,-0.625,0.96875,0.375,0.0,0.0,0.0
1665676063811,-0.62597656,-0.17773438,0.71972656,-0.625,0.96875,0.375,0.0,0.0,0.0
1665676063813,-0.625,-0.20019531,0.7314453,-0.3125,0.65625,0.4375,0.0,0.0,0.0
1665676063813,-0.625,-0.20019531,0.7314453,-0.3125,0.65625,0.4375,0.0,0.0,0.0
1665676063850,-0.625,-0.19335938,0.73339844,-0.375,0.34375,0.125,0.0,0.0,0.0
1665676063850,-0.625,-0.19335938,0.73339844,-0.375,0.34375,0.125,0.0,0.0,0.0
1665676063891,-0.6298828,-0.18945312,0.72558594,-0.375,0.65625,0.1875,0.0,0.0,0.0
1665676063891,-0.6298828,-0.18945312,0.72558594,-0.375,0.65625,0.1875,0.0,0.0,0.0
1665676063934,-0.6220703,-0.1875,0.7373047,-0.1875,0.84375,0.375,0.0,0.0,0.0
1665676063934,-0.6220703,-0.1875,0.7373047,-0.1875,0.84375,0.375,0.0,0.0,0.0
1665676063972,-0.625,-0.18652344,0.7363281,-0.25,0.40625,0.3125,0.0,0.0,0.0
1665676063972,-0.625,-0.18652344,0.7363281,-0.25,0.40625,0.3125,0.0,0.0,0.0
1665676064011,-0.6298828,-0.18554688,0.7236328,-0.5,0.65625,0.5625,0.0,0.0,0.0
1665676064011,-0.6298828,-0.18554688,0.7236328,-0.5,0.65625,0.5625,0.0,0.0,0.0
1665676064050,-0.62597656,-0.18945312,0.73339844,-0.25,0.71875,0.25,0.0,0.0,0.0
1665676064050,-0.62597656,-0.18945312,0.73339844,-0.25,0.71875,0.25,0.0,0.0,0.0
1665676064090,-0.63183594,-0.1796875,0.7285156,-0.1875,0.40625,0.1875,0.0,0.0,0.0
1665676064090,-0.63183594,-0.1796875,0.7285156,-0.1875,0.40625,0.1875,0.0,0.0,0.0
1665676064130,-0.62890625,-0.18652344,0.7421875,-0.125,0.34375,0.0625,0.0,0.0,0.0
1665676064130,-0.62890625,-0.18652344,0.7421875,-0.125,0.34375,0.0625,0.0,0.0,0.0
1665676064171,-0.6298828,-0.18261719,0.7167969,0.0625,0.15625,0.25,0.0,0.0,0.0
1665676064171,-0.6298828,-0.18261719,0.7167969,0.0625,0.15625,0.25,0.0,0.0,0.0
1665676064230,-0.6298828,-0.18554688,0.7265625,-0.125,0.34375,0.1875,-52.5,7.8125,-110.3125
1665676064230,-0.6298828,-0.18554688,0.7265625,-0.125,0.34375,0.1875,-52.5,7.8125,-110.3125
1665676064250,-0.6220703,-0.18066406,0.7246094,0.0,0.21875,0.1875,0.0,0.0,0.0
1665676064249,-0.6220703,-0.18066406,0.7246094,0.0,0.21875,0.1875,0.0,0.0,0.0
1665676064290,-0.6347656,-0.18066406,0.73828125,-0.125,-0.0625,0.1875,0.0,0.0,0.0
1665676064291,-0.6347656,-0.18066406,0.73828125,-0.125,-0.0625,0.1875,0.0,0.0,0.0
1665676064331,-0.6191406,-0.19140625,0.7392578,0.0625,0.0625,0.125,0.0,0.0,0.0
1665676064331,-0.6191406,-0.19140625,0.7392578,0.0625,0.0625,0.125,0.0,0.0,0.0
1665676064370,-0.6425781,-0.1953125,0.7285156,0.0,0.28125,0.25,0.0,0.0,0.0
1665676064370,-0.6425781,-0.1953125,0.7285156,0.0,0.28125,0.25,0.0,0.0,0.0
1665676064412,-0.63671875,-0.18945312,0.7285156,-0.125,0.21875,0.3125,0.0,0.0,0.0
1665676064412,-0.63671875,-0.18945312,0.7285156,-0.125,0.21875,0.3125,0.0,0.0,0.0
1665676064450,-0.62890625,-0.19335938,0.7158203,0.0,0.53125,0.3125,0.0,0.0,0.0
1665676064450,-0.62890625,-0.19335938,0.7158203,0.0,0.53125,0.3125,0.0,0.0,0.0
1665676064490,-0.62109375,-0.19042969,0.7324219,-0.25,0.0,0.125,0.0,0.0,0.0
1665676064490,-0.62109375,-0.19042969,0.7324219,-0.25,0.0,0.125,0.0,0.0,0.0
1665676064531,-0.62597656,-0.1953125,0.73046875,-0.1875,0.34375,0.0,0.0,0.0,0.0
1665676064532,-0.62597656,-0.1953125,0.73046875,-0.1875,0.34375,0.0,0.0,0.0,0.0
1665676064570,-0.6279297,-0.18359375,0.7392578,-0.125,0.0,0.5625,0.0,0.0,0.0
1665676064570,-0.6279297,-0.18359375,0.7392578,-0.125,0.0,0.5625,0.0,0.0,0.0
1665676064610,-0.6298828,-0.19140625,0.73535156,-0.5625,0.65625,0.1875,0.0,0.0,0.0
1665676064610,-0.6298828,-0.19140625,0.73535156,-0.5625,0.65625,0.1875,0.0,0.0,0.0
1665676064651,-0.6308594,-0.19238281,0.7363281,0.0,0.15625,0.1875,0.0,0.0,0.0
1665676064652,-0.6308594,-0.19238281,0.7363281,0.0,0.15625,0.1875,0.0,0.0,0.0
1665676064690,-0.6308594,-0.1953125,0.71875,-0.5625,0.0,0.0,-53.875,7.6875,-111.1875
1665676064690,-0.6308594,-0.1953125,0.71875,-0.5625,0.0,0.0,-53.875,7.6875,-111.1875
1665676064732,-0.6347656,-0.19238281,0.7207031,0.0,0.28125,0.0,0.0,0.0,0.0
1665676064731,-0.6347656,-0.19238281,0.7207031,0.0,0.28125,0.0,0.0,0.0,0.0
1665676064771,-0.62890625,-0.18554688,0.73046875,-0.125,0.28125,0.1875,0.0,0.0,0.0
1665676064771,-0.62890625,-0.18554688,0.73046875,-0.125,0.28125,0.1875,0.0,0.0,0.0
1665676064810,-0.63183594,-0.18652344,0.71777344,0.0,0.125,0.0625,0.0,0.0,0.0
1665676064810,-0.63183594,-0.18652344,0.71777344,0.0,0.125,0.0625,0.0,0.0,0.0
1665676064851,-0.63378906,-0.18945312,0.7294922,-0.25,0.28125,0.3125,0.0,0.0,0.0
1665676064851,-0.63378906,-0.18945312,0.7294922,-0.25,0.28125,0.3125,0.0,0.0,0.0
1665676064892,-0.63378906,-0.19726562,0.72753906,-0.4375,0.46875,0.1875,0.0,0.0,0.0
1665676064892,-0.63378906,-0.19726562,0.72753906,-0.4375,0.46875,0.1875,0.0,0.0,0.0
1665676064930,-0.6269531,-0.19140625,0.71972656,-0.375,0.28125,0.0,0.0,0.0,0.0
1665676064930,-0.6269531,-0.19140625,0.71972656,-0.375,0.28125,0.0,0.0,0.0,0.0
1665676064970,-0.6347656,-0.19140625,0.71777344,-0.1875,-0.25,0.0625,0.0,0.0,0.0
1665676064970,-0.6347656,-0.19140625,0.71777344,-0.1875,-0.25,0.0625,0.0,0.0,0.0
1665676065011,-0.6230469,-0.18652344,0.71777344,0.0,0.125,-0.0625,0.0,0.0,0.0
1665676065013,-0.6230469,-0.18652344,0.71777344,0.0,0.125,-0.0625,0.0,0.0,0.0
1665676065050,-0.63378906,-0.18847656,0.7314453,0.125,0.0,0.125,0.0,0.0,0.0
1665676065050,-0.63378906,-0.18847656,0.7314453,0.125,0.0,0.125,0.0,0.0,0.0
1665676065090,-0.6298828,-0.19238281,0.7207031,0.0625,-0.125,0.0625,0.0,0.0,0.0
1665676065090,-0.6298828,-0.19238281,0.7207031,0.0625,-0.125,0.0625,0.0,0.0,0.0
1665676065130,-0.6298828,-0.18652344,0.7324219,0.0625,-0.0625,0.0625,0.0,0.0,0.0
1665676065130,-0.6298828,-0.18652344,0.7324219,0.0625,-0.0625,0.0625,0.0,0.0,0.0
1665676065171,-0.63671875,-0.18847656,0.74609375,0.0625,-0.0625,0.25,0.0,0.0,0.0
1665676065170,-0.63671875,-0.18847656,0.74609375,0.0625,-0.0625,0.25,0.0,0.0,0.0
1665676065210,-0.6298828,-0.18164062,0.7314453,-0.0625,0.0625,0.125,-53.5625,8.125,-111.0625
1665676065210,-0.6298828,-0.18164062,0.7314453,-0.0625,0.0625,0.125,-53.5625,8.125,-111.0625
1665676065250,-0.62597656,-0.19238281,0.72265625,0.0,-0.1875,0.125,0.0,0.0,0.0
1665676065251,-0.62597656,-0.19238281,0.72265625,0.0,-0.1875,0.125,0.0,0.0,0.0
1665676065290,-0.6171875,-0.18945312,0.7167969,0.1875,-0.25,0.0625,0.0,0.0,0.0
1665676065290,-0.6171875,-0.18945312,0.7167969,0.1875,-0.25,0.0625,0.0,0.0,0.0
1665676065329,-0.6308594,-0.19335938,0.7246094,0.125,-0.1875,0.0625,0.0,0.0,0.0
1665676065329,-0.6308594,-0.19335938,0.7246094,0.125,-0.1875,0.0625,0.0,0.0,0.0
1665676065372,-0.6279297,-0.19921875,0.7294922,0.0625,-0.4375,0.0625,0.0,0.0,0.0
1665676065372,-0.6279297,-0.19921875,0.7294922,0.0625,-0.4375,0.0625,0.0,0.0,0.0
1665676065410,-0.64160156,-0.18457031,0.7207031,0.375,-0.8125,-0.0625,0.0,0.0,0.0
1665676065411,-0.64160156,-0.18457031,0.7207031,0.375,-0.8125,-0.0625,0.0,0.0,0.0
1665676065449,-0.6298828,-0.20214844,0.7324219,0.3125,-0.875,-0.125,0.0,0.0,0.0
1665676065449,-0.6298828,-0.20214844,0.7324219,0.3125,-0.875,-0.125,0.0,0.0,0.0
1665676065490,-0.6357422,-0.18945312,0.71875,0.40625,-0.5625,-0.0625,0.0,0.0,0.0
1665676065490,-0.6357422,-0.18945312,0.71875,0.40625,-0.5625,-0.0625,0.0,0.0,0.0
1665676065530,-0.62597656,-0.19042969,0.72558594,0.3125,-0.4375,0.0625,0.0,0.0,0.0
1665676065530,-0.62597656,-0.19042969,0.72558594,0.3125,-0.4375,0.0625,0.0,0.0,0.0
1665676065570,-0.62890625,-0.18945312,0.72265625,0.375,-0.5625,0.125,0.0,0.0,0.0
1665676065570,-0.62890625,-0.18945312,0.72265625,0.375,-0.5625,0.125,0.0,0.0,0.0
1665676065610,-0.6308594,-0.1875,0.7402344,0.0625,-0.1875,0.0625,0.0,0.0,0.0
1665676065610,-0.6308594,-0.1875,0.7402344,0.0625,-0.1875,0.0625,0.0,0.0,0.0
1665676065651,-0.62890625,-0.19433594,0.7392578,-0.0625,-0.1875,0.0625,0.0,0.0,0.0
1665676065651,-0.62890625,-0.19433594,0.7392578,-0.0625,-0.1875,0.0625,0.0,0.0,0.0
1665676065689,-0.6328125,-0.19042969,0.7314453,0.125,-0.3125,-0.125,-52.0625,8.0,-110.875
1665676065689,-0.6328125,-0.19042969,0.7314453,0.125,-0.3125,-0.125,-52.0625,8.0,-110.875
1665676065733,-0.6425781,-0.19921875,0.734375,0.1875,-0.75,-0.0625,0.0,0.0,0.0
1665676065733,-0.6425781,-0.19921875,0.734375,0.1875,-0.75,-0.0625,0.0,0.0,0.0
1665676065790,-0.6279297,-0.18945312,0.73046875,0.125,-0.25,0.0,0.0,0.0,0.0
1665676065790,-0.6279297,-0.18945312,0.73046875,0.125,-0.25,0.0,0.0,0.0,0.0
1665676065810,-0.6201172,-0.18359375,0.7207031,0.40625,-0.5,0.0625,0.0,0.0,0.0
1665676065810,-0.6201172,-0.18359375,0.7207031,0.40625,-0.5,0.0625,0.0,0.0,0.0
1665676065852,-0.6230469,-0.18652344,0.734375,0.40625,-0.6875,0.0625,0.0,0.0,0.0
1665676065852,-0.6230469,-0.18652344,0.734375,0.40625,-0.6875,0.0625,0.0,0.0,0.0
1665676065891,-0.62402344,-0.18652344,0.73828125,0.3125,-0.4375,0.0,0.0,0.0,0.0
1665676065892,-0.62402344,-0.18652344,0.73828125,0.3125,-0.4375,0.0,0.0,0.0,0.0
1665676065931,-0.63378906,-0.18652344,0.71875,0.375,-0.3125,-0.0625,0.0,0.0,0.0
1665676065931,-0.63378906,-0.18652344,0.71875,0.375,-0.3125,-0.0625,0.0,0.0,0.0
1665676065991,-0.63183594,-0.19824219,0.72265625,0.125,-0.375,0.0625,0.0,0.0,0.0
1665676065991,-0.63183594,-0.19824219,0.72265625,0.125,-0.375,0.0625,0.0,0.0,0.0
1665676066010,-0.62402344,-0.19042969,0.73046875,0.375,-0.4375,-0.125,0.0,0.0,0.0
1665676066010,-0.62402344,-0.19042969,0.73046875,0.375,-0.4375,-0.125,0.0,0.0,0.0
1665676066052,-0.6328125,-0.19433594,0.7373047,0.71875,-0.875,0.125,0.0,0.0,0.0
1665676066052,-0.6328125,-0.19433594,0.7373047,0.71875,-0.875,0.125,0.0,0.0,0.0
1665676066090,-0.6279297,-0.18945312,0.7207031,0.0625,0.34375,-0.125,0.0,0.0,0.0
1665676066090,-0.6279297,-0.18945312,0.7207031,0.0625,0.34375,-0.125,0.0,0.0,0.0
1665676066129,-0.62597656,-0.19042969,0.73535156,0.25,-0.1875,-0.1875,0.0,0.0,0.0
1665676066130,-0.62597656,-0.19042969,0.73535156,0.25,-0.1875,-0.1875,0.0,0.0,0.0
1665676066172,-0.6269531,-0.18847656,0.72558594,0.0,-0.75,-0.0625,0.0,0.0,0.0
1665676066172,-0.6269531,-0.18847656,0.72558594,0.0,-0.75,-0.0625,0.0,0.0,0.0
1665676066210,-0.61816406,-0.19824219,0.72753906,-0.1875,-0.3125,-0.125,-51.75,7.8125,-111.375
1665676066210,-0.61816406,-0.19824219,0.72753906,-0.1875,-0.3125,-0.125,-51.75,7.8125,-111.375
1665676066251,-0.62597656,-0.18261719,0.7451172,0.125,-0.125,0.125,0.0,0.0,0.0
1665676066253,-0.62597656,-0.18261719,0.7451172,0.125,-0.125,0.125,0.0,0.0,0.0
1665676066290,-0.6298828,-0.18847656,0.7324219,0.125,-0.5,-0.0625,0.0,0.0,0.0
1665676066290,-0.6298828,-0.18847656,0.7324219,0.125,-0.5,-0.0625,0.0,0.0,0.0
1665676066330,-0.6269531,-0.18652344,0.7216797,0.3125,-0.25,0.0,0.0,0.0,0.0
1665676066330,-0.6269531,-0.18652344,0.7216797,0.3125,-0.25,0.0,0.0,0.0,0.0
1665676066369,-0.6308594,-0.19140625,0.72753906,0.0,-0.4375,0.0,0.0,0.0,0.0
1665676066369,-0.6308594,-0.19140625,0.72753906,0.0,-0.4375,0.0,0.0,0.0,0.0
1665676066414,-0.6279297,-0.18066406,0.72558594,0.25,-0.4375,-0.0625,0.0,0.0,0.0
1665676066414,-0.6279297,-0.18066406,0.72558594,0.25,-0.4375,-0.0625,0.0,0.0,0.0
1665676066450,-0.6279297,-0.19042969,0.7265625,0.1875,-0.375,0.0,0.0,0.0,0.0
1665676066451,-0.6279297,-0.19042969,0.7265625,0.1875,-0.375,0.0,0.0,0.0,0.0
1665676066490,-0.62402344,-0.19238281,0.73046875,0.3125,-0.625,0.0625,0.0,0.0,0.0
1665676066490,-0.62402344,-0.19238281,0.73046875,0.3125,-0.625,0.0625,0.0,0.0,0.0
1665676066530,-0.62890625,-0.1875,0.7285156,0.375,-0.5625,-0.0625,0.0,0.0,0.0
1665676066532,-0.62890625,-0.1875,0.7285156,0.375,-0.5625,-0.0625,0.0,0.0,0.0
1665676066570,-0.63183594,-0.18652344,0.73828125,0.25,-0.375,0.125,0.0,0.0,0.0
1665676066570,-0.63183594,-0.18652344,0.73828125,0.25,-0.375,0.125,0.0,0.0,0.0
1665676066609,-0.6269531,-0.1875,0.7285156,0.3125,-0.6875,-0.0625,0.0,0.0,0.0
1665676066610,-0.6269531,-0.1875,0.7285156,0.3125,-0.6875,-0.0625,0.0,0.0,0.0
1665676066652,-0.62597656,-0.19042969,0.7294922,0.40625,-0.5625,0.0,0.0,0.0,0.0
1665676066652,-0.62597656,-0.19042969,0.7294922,0.40625,-0.5625,0.0,0.0,0.0,0.0
1665676066690,-0.63183594,-0.19140625,0.73828125,0.125,-0.3125,-0.125,-51.4375,8.5625,-111.625
1665676066690,-0.63183594,-0.19140625,0.73828125,0.125,-0.3125,-0.125,-51.4375,8.5625,-111.625
1665676066731,-0.625,-0.1875,0.7246094,0.375,-0.375,0.0,0.0,0.0,0.0
1665676066731,-0.625,-0.1875,0.7246094,0.375,-0.375,0.0,0.0,0.0,0.0
1665676066771,-0.6191406,-0.18652344,0.7324219,0.3125,-0.6875,-0.125,0.0,0.0,0.0
1665676066771,-0.6191406,-0.18652344,0.7324219,0.3125,-0.6875,-0.125,0.0,0.0,0.0
1665676066810,-0.6230469,-0.18554688,0.734375,0.40625,-0.8125,0.0,0.0,0.0,0.0
1665676066811,-0.6230469,-0.18554688,0.734375,0.40625,-0.8125,0.0,0.0,0.0,0.0
1665676066851,-0.62597656,-0.18359375,0.73046875,0.0,-0.1875,-0.125,0.0,0.0,0.0
1665676066851,-0.62597656,-0.18359375,0.73046875,0.0,-0.1875,-0.125,0.0,0.0,0.0
1665676066894,-0.6201172,-0.19335938,0.7246094,0.125,-0.0625,-0.28125,0.0,0.0,0.0
1665676066894,-0.6201172,-0.19335938,0.7246094,0.125,-0.0625,-0.28125,0.0,0.0,0.0
1665676066931,-0.62597656,-0.18164062,0.7265625,0.53125,-0.8125,-0.125,0.0,0.0,0.0
1665676066931,-0.62597656,-0.18164062,0.7265625,0.53125,-0.8125,-0.125,0.0,0.0,0.0
1665676066970,-0.62597656,-0.18554688,0.72265625,0.125,-0.6875,-0.125,0.0,0.0,0.0
1665676066970,-0.62597656,-0.18554688,0.72265625,0.125,-0.6875,-0.125,0.0,0.0,0.0
1665676067011,-0.6152344,-0.18847656,0.7421875,0.3125,-0.4375,-0.0625,0.0,0.0,0.0
1665676067011,-0.6152344,-0.18847656,0.7421875,0.3125,-0.4375,-0.0625,0.0,0.0,0.0
1665676067051,-0.62597656,-0.18261719,0.7324219,0.3125,-0.5625,0.0625,0.0,0.0,0.0
1665676067051,-0.62597656,-0.18261719,0.7324219,0.3125,-0.5625,0.0625,0.0,0.0,0.0
1665676067092,-0.6142578,-0.18652344,0.74902344,0.3125,-0.5625,0.0,0.0,0.0,0.0
1665676067092,-0.6142578,-0.18652344,0.74902344,0.3125,-0.5625,0.0,0.0,0.0,0.0
1665676067153,-0.6279297,-0.19042969,0.7324219,0.0625,-0.1875,0.125,0.0,0.0,0.0
1665676067153,-0.6279297,-0.19042969,0.7324219,0.0625,-0.1875,0.125,0.0,0.0,0.0
1665676067193,-0.6074219,-0.19140625,0.72753906,0.1875,-0.4375,-0.0625,0.0,0.0,0.0
1665676067193,-0.6074219,-0.19140625,0.72753906,0.1875,-0.4375,-0.0625,0.0,0.0,0.0
1665676067209,-0.6191406,-0.18359375,0.7363281,0.25,-0.5,0.0,-52.0625,8.0,-110.125
1665676067209,-0.6191406,-0.18359375,0.7363281,0.25,-0.5,0.0,-52.0625,8.0,-110.125
1665676067251,-0.6220703,-0.19042969,0.73339844,0.375,-0.625,0.0,0.0,0.0,0.0
1665676067251,-0.6220703,-0.19042969,0.73339844,0.375,-0.625,0.0,0.0,0.0,0.0
1665676067290,-0.6230469,-0.19042969,0.74609375,0.125,-0.5,-0.1875,0.0,0.0,0.0
1665676067290,-0.6230469,-0.19042969,0.74609375,0.125,-0.5,-0.1875,0.0,0.0,0.0
1665676067351,-0.6201172,-0.19042969,0.7451172,0.40625,-0.4375,0.0625,0.0,0.0,0.0
1665676067350,-0.6201172,-0.19042969,0.7451172,0.40625,-0.4375,0.0625,0.0,0.0,0.0
1665676067390,-0.6201172,-0.1875,0.7441406,0.25,-0.75,-0.0625,0.0,0.0,0.0
1665676067390,-0.6201172,-0.1875,0.7441406,0.25,-0.75,-0.0625,0.0,0.0,0.0
1665676067409,-0.6152344,-0.18847656,0.74121094,0.3125,-0.625,0.0625,0.0,0.0,0.0
1665676067409,-0.6152344,-0.18847656,0.74121094,0.3125,-0.625,0.0625,0.0,0.0,0.0
1665676067452,-0.6123047,-0.18554688,0.74609375,0.25,-0.75,0.0,0.0,0.0,0.0
1665676067452,-0.6123047,-0.18554688,0.74609375,0.25,-0.75,0.0,0.0,0.0,0.0
1665676067490,-0.6142578,-0.1875,0.7373047,0.0625,-0.5,-0.1875,0.0,0.0,0.0
1665676067490,-0.6142578,-0.1875,0.7373047,0.0625,-0.5,-0.1875,0.0,0.0,0.0
1665676067530,-0.6142578,-0.18261719,0.72753906,0.1875,-0.5625,0.0,0.0,0.0,0.0
1665676067531,-0.6142578,-0.18261719,0.72753906,0.1875,-0.5625,0.0,0.0,0.0,0.0
1665676067571,-0.6230469,-0.18359375,0.7294922,0.40625,-0.6875,-0.125,0.0,0.0,0.0
1665676067572,-0.6230469,-0.18359375,0.7294922,0.40625,-0.6875,-0.125,0.0,0.0,0.0
1665676067610,-0.61816406,-0.18652344,0.74121094,0.1875,-0.375,0.0625,0.0,0.0,0.0
1665676067610,-0.61816406,-0.18652344,0.74121094,0.1875,-0.375,0.0625,0.0,0.0,0.0
1665676067653,-0.625,-0.18066406,0.7470703,-0.125,-0.1875,-0.1875,0.0,0.0,0.0
1665676067653,-0.625,-0.18066406,0.7470703,-0.125,-0.1875,-0.1875,0.0,0.0,0.0
1665676067690,-0.6171875,-0.18847656,0.7392578,-0.0625,-0.5,-0.0625,-50.875,8.75,-110.875
1665676067690,-0.6171875,-0.18847656,0.7392578,-0.0625,-0.5,-0.0625,-50.875,8.75,-110.875
1665676067730,-0.6191406,-0.18164062,0.7519531,0.125,-0.5625,0.1875,0.0,0.0,0.0
1665676067730,-0.6191406,-0.18164062,0.7519531,0.125,-0.5625,0.1875,0.0,0.0,0.0
1665676067770,-0.609375,-0.18457031,0.7402344,-0.0625,-0.5,0.0,0.0,0.0,0.0
1665676067770,-0.609375,-0.18457031,0.7402344,-0.0625,-0.5,0.0,0.0,0.0,0.0
1665676067810,-0.61816406,-0.18457031,0.7314453,0.0,-0.1875,-0.0625,0.0,0.0,0.0
1665676067810,-0.61816406,-0.18457031,0.7314453,0.0,-0.1875,-0.0625,0.0,0.0,0.0
1665676067873,-0.6123047,-0.18554688,0.7363281,0.25,-0.3125,-0.1875,0.0,0.0,0.0
1665676067873,-0.6123047,-0.18554688,0.7363281,0.25,-0.3125,-0.1875,0.0,0.0,0.0
1665676067889,-0.6191406,-0.18554688,0.72753906,0.25,-0.125,-0.0625,0.0,0.0,0.0
1665676067889,-0.6191406,-0.18554688,0.72753906,0.25,-0.125,-0.0625,0.0,0.0,0.0
1665676067931,-0.6152344,-0.19042969,0.74609375,0.125,-0.25,-0.125,0.0,0.0,0.0
1665676067930,-0.6152344,-0.19042969,0.74609375,0.125,-0.25,-0.125,0.0,0.0,0.0
1665676067971,-0.6269531,-0.19042969,0.73046875,0.1875,-0.1875,-0.0625,0.0,0.0,0.0
1665676067971,-0.6269531,-0.19042969,0.73046875,0.1875,-0.1875,-0.0625,0.0,0.0,0.0
1665676068010,-0.6171875,-0.18457031,0.7373047,0.125,-0.25,0.125,0.0,0.0,0.0
1665676068010,-0.6171875,-0.18457031,0.7373047,0.125,-0.25,0.125,0.0,0.0,0.0
1665676068052,-0.6201172,-0.18066406,0.7402344,0.0,-0.375,0.1875,0.0,0.0,0.0
1665676068052,-0.6201172,-0.18066406,0.7402344,0.0,-0.375,0.1875,0.0,0.0,0.0
1665676068095,-0.6123047,-0.18554688,0.75097656,0.0625,-0.125,0.25,0.0,0.0,0.0
1665676068095,-0.6123047,-0.18554688,0.75097656,0.0625,-0.125,0.25,0.0,0.0,0.0
1665676068131,-0.61035156,-0.18554688,0.75,0.0625,-0.0625,0.1875,0.0,0.0,0.0
1665676068131,-0.61035156,-0.18554688,0.75,0.0625,-0.0625,0.1875,0.0,0.0,0.0
1665676068170,-0.6171875,-0.18652344,0.7421875,0.125,-0.125,-0.0625,0.0,0.0,0.0
1665676068170,-0.6171875,-0.18652344,0.7421875,0.125,-0.125,-0.0625,0.0,0.0,0.0
1665676068211,-0.61621094,-0.18554688,0.7392578,0.0,-0.125,0.125,-50.875,8.0,-110.4375
1665676068211,-0.61621094,-0.18554688,0.7392578,0.0,-0.125,0.125,-50.875,8.0,-110.4375
1665676068250,-0.61328125,-0.1875,0.7373047,0.0625,-0.0625,0.125,0.0,0.0,0.0
1665676068250,-0.61328125,-0.1875,0.7373047,0.0625,-0.0625,0.125,0.0,0.0,0.0
1665676068290,-0.61621094,-0.18554688,0.73339844,0.0,0.125,0.125,0.0,0.0,0.0
1665676068290,-0.61621094,-0.18554688,0.73339844,0.0,0.125,0.125,0.0,0.0,0.0
1665676068370,-0.61328125,-0.17578125,0.73046875,-0.0625,-0.25,0.1875,0.0,0.0,0.0
1665676068371,-0.61328125,-0.17578125,0.73046875,-0.0625,-0.25,0.1875,0.0,0.0,0.0
1665676068373,-0.6142578,-0.18554688,0.734375,-0.0625,-0.0625,-0.0625,0.0,0.0,0.0
1665676068373,-0.6142578,-0.18554688,0.734375,-0.0625,-0.0625,-0.0625,0.0,0.0,0.0
1665676068410,-0.609375,-0.18847656,0.7480469,0.0625,0.0,0.1875,0.0,0.0,0.0
1665676068410,-0.609375,-0.18847656,0.7480469,0.0625,0.0,0.1875,0.0,0.0,0.0
1665676068450,-0.61816406,-0.18164062,0.74121094,-0.0625,0.125,0.0625,0.0,0.0,0.0
1665676068450,-0.61816406,-0.18164062,0.74121094,-0.0625,0.125,0.0625,0.0,0.0,0.0
1665676068489,-0.62402344,-0.19238281,0.74609375,-0.1875,0.28125,-0.125,0.0,0.0,0.0
1665676068489,-0.62402344,-0.19238281,0.74609375,-0.1875,0.28125,-0.125,0.0,0.0,0.0
1665676068530,-0.6142578,-0.18066406,0.73828125,-0.09375,0.0625,0.28125,0.0,0.0,0.0
1665676068530,-0.6142578,-0.18066406,0.73828125,-0.09375,0.0625,0.28125,0.0,0.0,0.0
1665676068570,-0.6191406,-0.17675781,0.7392578,-0.46875,0.1875,-0.03125,0.0,0.0,0.0
1665676068570,-0.6191406,-0.17675781,0.7392578,-0.46875,0.1875,-0.03125,0.0,0.0,0.0
1665676068610,-0.62109375,-0.19140625,0.7392578,-0.09375,0.625,0.09375,0.0,0.0,0.0
1665676068611,-0.62109375,-0.19140625,0.7392578,-0.09375,0.625,0.09375,0.0,0.0,0.0
1665676068650,-0.6142578,-0.19140625,0.7363281,-0.21875,0.4375,0.28125,0.0,0.0,0.0
1665676068650,-0.6142578,-0.19140625,0.7363281,-0.21875,0.4375,0.28125,0.0,0.0,0.0
1665676068690,-0.6142578,-0.18164062,0.73828125,-0.09375,0.5,0.03125,-52.375,8.0,-111.1875
1665676068690,-0.6142578,-0.18164062,0.73828125,-0.09375,0.5,0.03125,-52.375,8.0,-111.1875
1665676068732,-0.61621094,-0.19042969,0.7373047,-0.15625,0.4375,0.03125,0.0,0.0,0.0
1665676068732,-0.61621094,-0.19042969,0.7373047,-0.15625,0.4375,0.03125,0.0,0.0,0.0
1665676068771,-0.61816406,-0.18847656,0.7363281,-0.21875,0.3125,0.03125,0.0,0.0,0.0
1665676068771,-0.61816406,-0.18847656,0.7363281,-0.21875,0.3125,0.03125,0.0,0.0,0.0
1665676068810,-0.61328125,-0.18554688,0.7324219,-0.09375,0.4375,0.09375,0.0,0.0,0.0
1665676068810,-0.61328125,-0.18554688,0.7324219,-0.09375,0.4375,0.09375,0.0,0.0,0.0
1665676068851,-0.6123047,-0.18457031,0.7402344,-0.15625,0.25,0.15625,0.0,0.0,0.0
1665676068851,-0.6123047,-0.18457031,0.7402344,-0.15625,0.25,0.15625,0.0,0.0,0.0
1665676068891,-0.6123047,-0.1796875,0.73535156,-0.21875,0.5,0.03125,0.0,0.0,0.0
1665676068891,-0.6123047,-0.1796875,0.73535156,-0.21875,0.5,0.03125,0.0,0.0,0.0
1665676068930,-0.625,-0.1796875,0.7314453,-0.28125,0.4375,0.15625,0.0,0.0,0.0
1665676068931,-0.625,-0.1796875,0.7314453,-0.28125,0.4375,0.15625,0.0,0.0,0.0
1665676068970,-0.62109375,-0.18457031,0.73828125,-0.28125,0.5625,0.15625,0.0,0.0,0.0
1665676068970,-0.62109375,-0.18457031,0.73828125,-0.28125,0.5625,0.15625,0.0,0.0,0.0
1665676069013,-0.62109375,-0.19140625,0.7441406,-0.28125,0.5,0.15625,0.0,0.0,0.0
1665676069013,-0.62109375,-0.19140625,0.7441406,-0.28125,0.5,0.15625,0.0,0.0,0.0
