# Sensor type: Thingy
# Activity type: Sitting
# Activity code: 0
# Subject id: s1800825
# Notes: 
timestamp,accel_x,accel_y,accel_z,gyro_x,gyro_y,gyro_z,mag_x,mag_y,mag_z
1665675944414,-1.0,0.107421875,0.033203125,0.03125,0.03125,-0.09375,0.0,0.0,0.0
1665675944414,-1.0,0.107421875,0.033203125,0.03125,0.03125,-0.09375,0.0,0.0,0.0
1665675944451,-1.0029297,0.10546875,0.015625,0.09375,-0.28125,-0.09375,0.0,0.0,0.0
1665675944451,-1.0029297,0.10546875,0.015625,0.09375,-0.28125,-0.09375,0.0,0.0,0.0
1665675944489,-1.0126953,0.11425781,0.040039062,0.03125,-0.46875,-0.09375,0.0,0.0,0.0
1665675944489,-1.0126953,0.11425781,0.040039062,0.03125,-0.46875,-0.09375,0.0,0.0,0.0
1665675944530,-1.0107422,0.10253906,0.030273438,-0.21875,0.03125,-0.03125,0.0,0.0,0.0
1665675944530,-1.0107422,0.10253906,0.030273438,-0.21875,0.03125,-0.03125,0.0,0.0,0.0
1665675944590,-1.0029297,0.10644531,0.040039062,0.09375,-0.34375,0.34375,0.0,0.0,0.0
1665675944590,-1.0029297,0.10644531,0.040039062,0.09375,-0.34375,0.34375,0.0,0.0,0.0
1665675944610,-0.9970703,0.099609375,0.03125,0.46875,-0.21875,-0.03125,0.0,0.0,0.0
1665675944610,-0.9970703,0.099609375,0.03125,0.46875,-0.21875,-0.03125,0.0,0.0,0.0
1665675944651,-1.0009766,0.119140625,0.018554688,0.09375,-0.09375,0.09375,0.0,0.0,0.0
1665675944651,-1.0009766,0.119140625,0.018554688,0.09375,-0.09375,0.09375,0.0,0.0,0.0
1665675944690,-1.0048828,0.109375,0.040039062,0.15625,-0.40625,0.15625,-65.375,20.875,-145.125
1665675944690,-1.0048828,0.109375,0.040039062,0.15625,-0.40625,0.15625,-65.375,20.875,-145.125
1665675944729,-1.0078125,0.11621094,0.041992188,0.15625,-0.34375,0.03125,0.0,0.0,0.0
1665675944729,-1.0078125,0.11621094,0.041992188,0.15625,-0.34375,0.03125,0.0,0.0,0.0
1665675944770,-1.0,0.1015625,0.045898438,-0.03125,-0.03125,-0.03125,0.0,0.0,0.0
1665675944770,-1.0,0.1015625,0.045898438,-0.03125,-0.03125,-0.03125,0.0,0.0,0.0
1665675944809,-1.0,0.099609375,0.03515625,0.21875,-0.15625,0.03125,0.0,0.0,0.0
1665675944809,-1.0,0.099609375,0.03515625,0.21875,-0.15625,0.03125,0.0,0.0,0.0
1665675944852,-1.0068359,0.11328125,0.046875,0.28125,-0.09375,-0.15625,0.0,0.0,0.0
1665675944852,-1.0068359,0.11328125,0.046875,0.28125,-0.09375,-0.15625,0.0,0.0,0.0
1665675944889,-1.0087891,0.09863281,0.028320312,0.21875,-0.09375,-0.03125,0.0,0.0,0.0
1665675944889,-1.0087891,0.09863281,0.028320312,0.21875,-0.09375,-0.03125,0.0,0.0,0.0
1665675944929,-1.0107422,0.109375,0.048828125,0.03125,-0.21875,-0.09375,0.0,0.0,0.0
1665675944929,-1.0107422,0.109375,0.048828125,0.03125,-0.21875,-0.09375,0.0,0.0,0.0
1665675944970,-0.9980469,0.11035156,0.04296875,0.28125,-0.40625,0.03125,0.0,0.0,0.0
1665675944970,-0.9980469,0.11035156,0.04296875,0.28125,-0.40625,0.03125,0.0,0.0,0.0
1665675945009,-1.0048828,0.107421875,0.05078125,0.03125,-0.21875,0.03125,0.0,0.0,0.0
1665675945009,-1.0048828,0.107421875,0.05078125,0.03125,-0.21875,0.03125,0.0,0.0,0.0
1665675945050,-1.0,0.11035156,0.041992188,-0.03125,-0.34375,-0.03125,0.0,0.0,0.0
1665675945050,-1.0,0.11035156,0.041992188,-0.03125,-0.34375,-0.03125,0.0,0.0,0.0
1665675945089,-0.9970703,0.10058594,0.0390625,0.03125,0.1875,-0.28125,0.0,0.0,0.0
1665675945089,-0.9970703,0.10058594,0.0390625,0.03125,0.1875,-0.28125,0.0,0.0,0.0
1665675945131,-1.0029297,0.10449219,0.048828125,0.28125,-0.21875,-0.15625,0.0,0.0,0.0
1665675945131,-1.0029297,0.10449219,0.048828125,0.28125,-0.21875,-0.15625,0.0,0.0,0.0
1665675945171,-1.0,0.11230469,0.0390625,-0.03125,-0.34375,-0.03125,0.0,0.0,0.0
1665675945171,-1.0,0.11230469,0.0390625,-0.03125,-0.34375,-0.03125,0.0,0.0,0.0
1665675945211,-0.9970703,0.109375,0.03125,0.09375,-0.28125,-0.03125,-64.625,22.375,-144.625
1665675945211,-0.9970703,0.109375,0.03125,0.09375,-0.28125,-0.03125,-64.625,22.375,-144.625
1665675945254,-1.0039062,0.109375,0.026367188,0.09375,-0.34375,0.09375,0.0,0.0,0.0
1665675945255,-1.0039062,0.109375,0.026367188,0.09375,-0.34375,0.09375,0.0,0.0,0.0
1665675945311,-1.0029297,0.09765625,0.04296875,0.21875,-0.46875,-0.09375,0.0,0.0,0.0
1665675945311,-1.0029297,0.09765625,0.04296875,0.21875,-0.46875,-0.09375,0.0,0.0,0.0
1665675945330,-1.0068359,0.11035156,0.052734375,-0.03125,-0.03125,0.03125,0.0,0.0,0.0
1665675945330,-1.0068359,0.11035156,0.052734375,-0.03125,-0.03125,0.03125,0.0,0.0,0.0
1665675945370,-0.9921875,0.10546875,0.0234375,0.03125,-0.03125,-0.15625,0.0,0.0,0.0
1665675945370,-0.9921875,0.10546875,0.0234375,0.03125,-0.03125,-0.15625,0.0,0.0,0.0
1665675945410,-1.0029297,0.1015625,0.045898438,0.03125,-0.21875,0.28125,0.0,0.0,0.0
1665675945410,-1.0029297,0.1015625,0.045898438,0.03125,-0.21875,0.28125,0.0,0.0,0.0
1665675945451,-0.99902344,0.11425781,0.036132812,-0.03125,-0.34375,0.03125,0.0,0.0,0.0
1665675945451,-0.99902344,0.11425781,0.036132812,-0.03125,-0.34375,0.03125,0.0,0.0,0.0
1665675945490,-0.9951172,0.109375,0.041015625,-0.03125,-0.03125,0.21875,0.0,0.0,0.0
1665675945489,-0.9951172,0.109375,0.041015625,-0.03125,-0.03125,0.21875,0.0,0.0,0.0
1665675945529,-1.0087891,0.11035156,0.038085938,0.03125,-0.15625,-0.09375,0.0,0.0,0.0
1665675945530,-1.0087891,0.11035156,0.038085938,0.03125,-0.15625,-0.09375,0.0,0.0,0.0
1665675945569,-1.0019531,0.119140625,0.0390625,0.03125,-0.09375,0.09375,0.0,0.0,0.0
1665675945569,-1.0019531,0.119140625,0.0390625,0.03125,-0.09375,0.09375,0.0,0.0,0.0
1665675945612,-0.9980469,0.09863281,0.052734375,-0.03125,-0.15625,0.09375,0.0,0.0,0.0
1665675945612,-0.9980469,0.09863281,0.052734375,-0.03125,-0.15625,0.09375,0.0,0.0,0.0
1665675945651,-0.9970703,0.10839844,0.03515625,-0.03125,-0.34375,0.15625,0.0,0.0,0.0
1665675945650,-0.9970703,0.10839844,0.03515625,-0.03125,-0.34375,0.15625,0.0,0.0,0.0
1665675945691,-1.0039062,0.11035156,0.043945312,0.03125,-0.34375,0.03125,-67.375,20.3125,-144.5
1665675945693,-1.0039062,0.11035156,0.043945312,0.03125,-0.34375,0.03125,-67.375,20.3125,-144.5
1665675945730,-1.0009766,0.11035156,0.038085938,0.09375,-0.09375,-0.03125,0.0,0.0,0.0
1665675945730,-1.0009766,0.11035156,0.038085938,0.09375,-0.09375,-0.03125,0.0,0.0,0.0
1665675945770,-1.0087891,0.10644531,0.040039062,0.09375,0.0625,-0.15625,0.0,0.0,0.0
1665675945770,-1.0087891,0.10644531,0.040039062,0.09375,0.0625,-0.15625,0.0,0.0,0.0
1665675945812,-1.0019531,0.10644531,0.025390625,-0.03125,0.125,0.03125,0.0,0.0,0.0
1665675945811,-1.0019531,0.10644531,0.025390625,-0.03125,0.125,0.03125,0.0,0.0,0.0
1665675945850,-0.9941406,0.103515625,0.049804688,0.03125,0.0625,0.03125,0.0,0.0,0.0
1665675945850,-0.9941406,0.103515625,0.049804688,0.03125,0.0625,0.03125,0.0,0.0,0.0
1665675945910,-0.9951172,0.11230469,0.044921875,-0.09375,0.375,0.21875,0.0,0.0,0.0
1665675945910,-0.9951172,0.11230469,0.044921875,-0.09375,0.375,0.21875,0.0,0.0,0.0
1665675945929,-0.9941406,0.11035156,0.046875,0.03125,0.75,-0.21875,0.0,0.0,0.0
1665675945929,-0.9941406,0.11035156,0.046875,0.03125,0.75,-0.21875,0.0,0.0,0.0
1665675945970,-0.99902344,0.11230469,0.045898438,0.21875,0.1875,0.03125,0.0,0.0,0.0
1665675945970,-0.99902344,0.11230469,0.045898438,0.21875,0.1875,0.03125,0.0,0.0,0.0
1665675946010,-1.0019531,0.10839844,0.034179688,0.03125,0.25,-0.03125,0.0,0.0,0.0
1665675946010,-1.0019531,0.10839844,0.034179688,0.03125,0.25,-0.03125,0.0,0.0,0.0
1665675946050,-1.0,0.10546875,0.026367188,0.03125,0.375,-0.15625,0.0,0.0,0.0
1665675946050,-1.0,0.10546875,0.026367188,0.03125,0.375,-0.15625,0.0,0.0,0.0
1665675946090,-0.99902344,0.11816406,0.040039062,-0.15625,0.125,-0.09375,0.0,0.0,0.0
1665675946090,-0.99902344,0.11816406,0.040039062,-0.15625,0.125,-0.09375,0.0,0.0,0.0
1665675946130,-1.0078125,0.11230469,0.040039062,0.03125,0.03125,-0.03125,0.0,0.0,0.0
1665675946130,-1.0078125,0.11230469,0.040039062,0.03125,0.03125,-0.03125,0.0,0.0,0.0
1665675946171,-1.0009766,0.107421875,0.052734375,0.03125,0.3125,-0.09375,0.0,0.0,0.0
1665675946171,-1.0009766,0.107421875,0.052734375,0.03125,0.3125,-0.09375,0.0,0.0,0.0
1665675946209,-0.9951172,0.107421875,0.044921875,0.03125,0.375,-0.09375,-66.0,20.5625,-144.625
1665675946209,-0.9951172,0.107421875,0.044921875,0.03125,0.375,-0.09375,-66.0,20.5625,-144.625
1665675946251,-1.0029297,0.109375,0.044921875,0.03125,0.03125,0.03125,0.0,0.0,0.0
1665675946251,-1.0029297,0.109375,0.044921875,0.03125,0.03125,0.03125,0.0,0.0,0.0
1665675946291,-0.99902344,0.109375,0.032226562,-0.09375,0.0625,0.03125,0.0,0.0,0.0
1665675946291,-0.99902344,0.109375,0.032226562,-0.09375,0.0625,0.03125,0.0,0.0,0.0
1665675946331,-1.0117188,0.10644531,0.037109375,-0.09375,0.0625,0.21875,0.0,0.0,0.0
1665675946333,-1.0117188,0.10644531,0.037109375,-0.09375,0.0625,0.21875,0.0,0.0,0.0
1665675946371,-1.0107422,0.1171875,0.052734375,0.03125,0.1875,0.03125,0.0,0.0,0.0
1665675946371,-1.0107422,0.1171875,0.052734375,0.03125,0.1875,0.03125,0.0,0.0,0.0
1665675946410,-1.0019531,0.107421875,0.041992188,-0.09375,0.25,0.03125,0.0,0.0,0.0
1665675946410,-1.0019531,0.107421875,0.041992188,-0.09375,0.25,0.03125,0.0,0.0,0.0
1665675946450,-1.0039062,0.11230469,0.029296875,0.03125,0.3125,0.03125,0.0,0.0,0.0
1665675946450,-1.0039062,0.11230469,0.029296875,0.03125,0.3125,0.03125,0.0,0.0,0.0
1665675946490,-1.0,0.111328125,0.045898438,0.03125,0.25,0.03125,0.0,0.0,0.0
1665675946490,-1.0,0.111328125,0.045898438,0.03125,0.25,0.03125,0.0,0.0,0.0
1665675946530,-1.0029297,0.10449219,0.041015625,0.09375,0.25,-0.03125,0.0,0.0,0.0
1665675946530,-1.0029297,0.10449219,0.041015625,0.09375,0.25,-0.03125,0.0,0.0,0.0
1665675946570,-1.0039062,0.103515625,0.053710938,-0.09375,0.3125,0.03125,0.0,0.0,0.0
1665675946570,-1.0039062,0.103515625,0.053710938,-0.09375,0.3125,0.03125,0.0,0.0,0.0
1665675946650,-0.99316406,0.10839844,0.057617188,-0.03125,0.375,-0.09375,0.0,0.0,0.0
1665675946651,-1.0078125,0.103515625,0.047851562,-0.15625,0.375,0.09375,0.0,0.0,0.0
1665675946650,-0.99316406,0.10839844,0.057617188,-0.03125,0.375,-0.09375,0.0,0.0,0.0
1665675946653,-1.0078125,0.103515625,0.047851562,-0.15625,0.375,0.09375,0.0,0.0,0.0
1665675946689,-0.9941406,0.10644531,0.046875,0.09375,0.1875,0.03125,-67.8125,21.9375,-143.625
1665675946689,-0.9941406,0.10644531,0.046875,0.09375,0.1875,0.03125,-67.8125,21.9375,-143.625
1665675946730,-0.99902344,0.10839844,0.041992188,-0.03125,0.3125,-0.15625,0.0,0.0,0.0
1665675946730,-0.99902344,0.10839844,0.041992188,-0.03125,0.3125,-0.15625,0.0,0.0,0.0
1665675946769,-1.0058594,0.11230469,0.051757812,-0.28125,0.4375,0.03125,0.0,0.0,0.0
1665675946770,-1.0058594,0.11230469,0.051757812,-0.28125,0.4375,0.03125,0.0,0.0,0.0
1665675946810,-1.0166016,0.09667969,0.041992188,0.09375,0.25,-0.15625,0.0,0.0,0.0
1665675946810,-1.0166016,0.09667969,0.041992188,0.09375,0.25,-0.15625,0.0,0.0,0.0
1665675946851,-1.0009766,0.119140625,0.053710938,0.03125,0.3125,0.03125,0.0,0.0,0.0
1665675946851,-1.0009766,0.119140625,0.053710938,0.03125,0.3125,0.03125,0.0,0.0,0.0
1665675946891,-1.0039062,0.10644531,0.030273438,-0.03125,0.4375,-0.28125,0.0,0.0,0.0
1665675946891,-1.0039062,0.10644531,0.030273438,-0.03125,0.4375,-0.28125,0.0,0.0,0.0
1665675946933,-1.0009766,0.107421875,0.0546875,-0.09375,0.03125,-0.09375,0.0,0.0,0.0
1665675946933,-1.0009766,0.107421875,0.0546875,-0.09375,0.03125,-0.09375,0.0,0.0,0.0
1665675946970,-1.0019531,0.103515625,0.0390625,0.03125,0.4375,-0.21875,0.0,0.0,0.0
1665675946970,-1.0019531,0.103515625,0.0390625,0.03125,0.4375,-0.21875,0.0,0.0,0.0
1665675947030,-0.9970703,0.107421875,0.03125,-0.21875,0.4375,-0.21875,0.0,0.0,0.0
1665675947030,-0.9970703,0.107421875,0.03125,-0.21875,0.4375,-0.21875,0.0,0.0,0.0
1665675947050,-1.0058594,0.10546875,0.046875,-0.28125,0.125,-0.21875,0.0,0.0,0.0
1665675947050,-1.0058594,0.10546875,0.046875,-0.28125,0.125,-0.21875,0.0,0.0,0.0
1665675947091,-1.0009766,0.11035156,0.049804688,-0.15625,0.125,0.21875,0.0,0.0,0.0
1665675947091,-1.0009766,0.11035156,0.049804688,-0.15625,0.125,0.21875,0.0,0.0,0.0
1665675947130,-1.0048828,0.10546875,0.043945312,-0.15625,0.375,0.03125,0.0,0.0,0.0
1665675947130,-1.0048828,0.10546875,0.043945312,-0.15625,0.375,0.03125,0.0,0.0,0.0
1665675947170,-1.0087891,0.10546875,0.043945312,-0.15625,0.25,-0.03125,0.0,0.0,0.0
1665675947170,-1.0087891,0.10546875,0.043945312,-0.15625,0.25,-0.03125,0.0,0.0,0.0
1665675947232,-0.9941406,0.11035156,0.03125,-0.03125,-0.09375,0.21875,-65.6875,20.875,-143.625
1665675947232,-0.9941406,0.11035156,0.03125,-0.03125,-0.09375,0.21875,-65.6875,20.875,-143.625
1665675947249,-1.0019531,0.10058594,0.043945312,-0.03125,0.5,0.09375,0.0,0.0,0.0
1665675947249,-1.0019531,0.10058594,0.043945312,-0.03125,0.5,0.09375,0.0,0.0,0.0
1665675947290,-1.0166016,0.115234375,0.045898438,-0.09375,0.1875,-0.09375,0.0,0.0,0.0
1665675947290,-1.0166016,0.115234375,0.045898438,-0.09375,0.1875,-0.09375,0.0,0.0,0.0
1665675947330,-1.0,0.10546875,0.05078125,-0.21875,0.4375,0.09375,0.0,0.0,0.0
1665675947330,-1.0,0.10546875,0.05078125,-0.21875,0.4375,0.09375,0.0,0.0,0.0
1665675947390,-1.0039062,0.10546875,0.0390625,-0.03125,0.4375,0.09375,0.0,0.0,0.0
1665675947390,-1.0039062,0.10546875,0.0390625,-0.03125,0.4375,0.09375,0.0,0.0,0.0
1665675947410,-1.0048828,0.111328125,0.05078125,-0.15625,0.375,-0.09375,0.0,0.0,0.0
1665675947410,-1.0048828,0.111328125,0.05078125,-0.15625,0.375,-0.09375,0.0,0.0,0.0
1665675947451,-1.0068359,0.10058594,0.036132812,-0.15625,0.5625,0.15625,0.0,0.0,0.0
1665675947451,-1.0068359,0.10058594,0.036132812,-0.15625,0.5625,0.15625,0.0,0.0,0.0
1665675947489,-0.9941406,0.10546875,0.047851562,-0.09375,0.25,0.09375,0.0,0.0,0.0
1665675947490,-0.9941406,0.10546875,0.047851562,-0.09375,0.25,0.09375,0.0,0.0,0.0
1665675947532,-0.99902344,0.10546875,0.059570312,0.03125,0.1875,0.03125,0.0,0.0,0.0
1665675947532,-0.99902344,0.10546875,0.059570312,0.03125,0.1875,0.03125,0.0,0.0,0.0
1665675947570,-1.0087891,0.109375,0.041992188,-0.34375,0.25,0.09375,0.0,0.0,0.0
1665675947570,-1.0087891,0.109375,0.041992188,-0.34375,0.25,0.09375,0.0,0.0,0.0
1665675947610,-1.0068359,0.10058594,0.045898438,-0.34375,0.8125,-0.21875,0.0,0.0,0.0
1665675947610,-1.0068359,0.10058594,0.045898438,-0.34375,0.8125,-0.21875,0.0,0.0,0.0
1665675947651,-1.0029297,0.107421875,0.040039062,-0.28125,0.4375,-0.03125,0.0,0.0,0.0
1665675947651,-1.0029297,0.107421875,0.040039062,-0.28125,0.4375,-0.03125,0.0,0.0,0.0
1665675947690,-1.0029297,0.11035156,0.04296875,-0.21875,0.625,-0.15625,-66.875,21.5,-143.4375
1665675947690,-1.0029297,0.11035156,0.04296875,-0.21875,0.625,-0.15625,-66.875,21.5,-143.4375
1665675947730,-1.0,0.11035156,0.049804688,0.03125,0.25,-0.03125,0.0,0.0,0.0
1665675947730,-1.0,0.11035156,0.049804688,0.03125,0.25,-0.03125,0.0,0.0,0.0
1665675947770,-0.99316406,0.103515625,0.03515625,-0.15625,0.375,-0.03125,0.0,0.0,0.0
1665675947770,-0.99316406,0.103515625,0.03515625,-0.15625,0.375,-0.03125,0.0,0.0,0.0
1665675947810,-0.9970703,0.10449219,0.03515625,-0.15625,0.375,-0.03125,0.0,0.0,0.0
1665675947810,-0.9970703,0.10449219,0.03515625,-0.15625,0.375,-0.03125,0.0,0.0,0.0
1665675947854,-1.0019531,0.10546875,0.04296875,-0.34375,0.625,-0.09375,0.0,0.0,0.0
1665675947854,-1.0019531,0.10546875,0.04296875,-0.34375,0.625,-0.09375,0.0,0.0,0.0
1665675947890,-1.0009766,0.10058594,0.028320312,0.03125,0.25,0.03125,0.0,0.0,0.0
1665675947890,-1.0009766,0.10058594,0.028320312,0.03125,0.25,0.03125,0.0,0.0,0.0
1665675947929,-1.0,0.11328125,0.040039062,-0.09375,0.5625,-0.15625,0.0,0.0,0.0
1665675947929,-1.0,0.11328125,0.040039062,-0.09375,0.5625,-0.15625,0.0,0.0,0.0
1665675947969,-1.0,0.10546875,0.03515625,-0.03125,0.5,0.03125,0.0,0.0,0.0
1665675947969,-1.0,0.10546875,0.03515625,-0.03125,0.5,0.03125,0.0,0.0,0.0
1665675948030,-1.0009766,0.10644531,0.041015625,-0.28125,0.25,-0.09375,0.0,0.0,0.0
1665675948032,-1.0009766,0.10644531,0.041015625,-0.28125,0.25,-0.09375,0.0,0.0,0.0
1665675948049,-0.9941406,0.109375,0.0390625,-0.15625,0.5625,-0.15625,0.0,0.0,0.0
1665675948049,-0.9941406,0.109375,0.0390625,-0.15625,0.5625,-0.15625,0.0,0.0,0.0
1665675948090,-1.0009766,0.10839844,0.032226562,-0.15625,0.0625,-0.21875,0.0,0.0,0.0
1665675948090,-1.0009766,0.10839844,0.032226562,-0.15625,0.0625,-0.21875,0.0,0.0,0.0
1665675948131,-0.99609375,0.10449219,0.03515625,-0.15625,0.375,0.09375,0.0,0.0,0.0
1665675948131,-0.99609375,0.10449219,0.03515625,-0.15625,0.375,0.09375,0.0,0.0,0.0
1665675948171,-1.0048828,0.10058594,0.051757812,-0.09375,0.375,0.21875,0.0,0.0,0.0
1665675948171,-1.0048828,0.10058594,0.051757812,-0.09375,0.375,0.21875,0.0,0.0,0.0
1665675948211,-1.0009766,0.10546875,0.043945312,-0.09375,0.1875,0.15625,-66.3125,19.25,-144.9375
1665675948212,-1.0009766,0.10546875,0.043945312,-0.09375,0.1875,0.15625,-66.3125,19.25,-144.9375
1665675948251,-1.0058594,0.10546875,0.041992188,0.03125,0.6875,0.15625,0.0,0.0,0.0
1665675948251,-1.0058594,0.10546875,0.041992188,0.03125,0.6875,0.15625,0.0,0.0,0.0
1665675948290,-1.0029297,0.10253906,0.046875,0.09375,0.3125,0.46875,0.0,0.0,0.0
1665675948290,-1.0029297,0.10253906,0.046875,0.09375,0.3125,0.46875,0.0,0.0,0.0
1665675948332,-0.99902344,0.115234375,0.044921875,-0.09375,0.5625,-0.21875,0.0,0.0,0.0
1665675948332,-0.99902344,0.115234375,0.044921875,-0.09375,0.5625,-0.21875,0.0,0.0,0.0
1665675948371,-0.9980469,0.103515625,0.030273438,-0.28125,0.125,0.03125,0.0,0.0,0.0
1665675948371,-0.9980469,0.103515625,0.030273438,-0.28125,0.125,0.03125,0.0,0.0,0.0
1665675948410,-1.0039062,0.107421875,0.0390625,-0.5625,0.625,-0.34375,0.0,0.0,0.0
1665675948410,-1.0039062,0.107421875,0.0390625,-0.5625,0.625,-0.34375,0.0,0.0,0.0
1665675948452,-0.9980469,0.09765625,0.020507812,-0.03125,0.3125,-0.09375,0.0,0.0,0.0
1665675948452,-0.9980469,0.09765625,0.020507812,-0.03125,0.3125,-0.09375,0.0,0.0,0.0
1665675948489,-0.9970703,0.103515625,0.03515625,-0.28125,0.25,-0.21875,0.0,0.0,0.0
1665675948489,-0.9970703,0.103515625,0.03515625,-0.28125,0.25,-0.21875,0.0,0.0,0.0
1665675948530,-1.0068359,0.10644531,0.028320312,0.03125,0.375,0.34375,0.0,0.0,0.0
1665675948530,-1.0068359,0.10644531,0.028320312,0.03125,0.375,0.34375,0.0,0.0,0.0
1665675948590,-1.0009766,0.103515625,0.033203125,0.03125,0.125,0.15625,0.0,0.0,0.0
1665675948590,-1.0009766,0.103515625,0.033203125,0.03125,0.125,0.15625,0.0,0.0,0.0
1665675948609,-1.0019531,0.115234375,0.028320312,-0.21875,0.125,0.09375,0.0,0.0,0.0
1665675948609,-1.0019531,0.115234375,0.028320312,-0.21875,0.125,0.09375,0.0,0.0,0.0
1665675948650,-0.99902344,0.111328125,0.034179688,-0.28125,0.4375,0.21875,0.0,0.0,0.0
1665675948650,-0.99902344,0.111328125,0.034179688,-0.28125,0.4375,0.21875,0.0,0.0,0.0
1665675948691,-1.0009766,0.10449219,0.046875,-0.03125,0.3125,-0.09375,-66.625,21.0625,-143.4375
1665675948691,-1.0009766,0.10449219,0.046875,-0.03125,0.3125,-0.09375,-66.625,21.0625,-143.4375
1665675948750,-1.0039062,0.10058594,0.041992188,-0.15625,0.4375,0.03125,0.0,0.0,0.0
1665675948750,-1.0039062,0.10058594,0.041992188,-0.15625,0.4375,0.03125,0.0,0.0,0.0
1665675948770,-1.0107422,0.111328125,0.037109375,-0.09375,0.1875,-0.15625,0.0,0.0,0.0
1665675948770,-1.0107422,0.111328125,0.037109375,-0.09375,0.1875,-0.15625,0.0,0.0,0.0
1665675948810,-1.0009766,0.111328125,0.048828125,-0.09375,0.25,0.15625,0.0,0.0,0.0
1665675948811,-1.0009766,0.111328125,0.048828125,-0.09375,0.25,0.15625,0.0,0.0,0.0
1665675948851,-1.0126953,0.10449219,0.045898438,-0.15625,0.25,-0.03125,0.0,0.0,0.0
1665675948853,-1.0126953,0.10449219,0.045898438,-0.15625,0.25,-0.03125,0.0,0.0,0.0
1665675948890,-0.9970703,0.107421875,0.0390625,-0.03125,-0.21875,-0.46875,0.0,0.0,0.0
1665675948890,-0.9970703,0.107421875,0.0390625,-0.03125,-0.21875,-0.46875,0.0,0.0,0.0
1665675948930,-1.0048828,0.11328125,0.036132812,-0.03125,-0.28125,-0.34375,0.0,0.0,0.0
1665675948930,-1.0048828,0.11328125,0.036132812,-0.03125,-0.28125,-0.34375,0.0,0.0,0.0
1665675948969,-1.0117188,0.10058594,0.030273438,-0.03125,0.1875,-0.03125,0.0,0.0,0.0
1665675948969,-1.0117188,0.10058594,0.030273438,-0.03125,0.1875,-0.03125,0.0,0.0,0.0
1665675949009,-0.99609375,0.099609375,0.033203125,0.15625,0.0625,0.09375,0.0,0.0,0.0
1665675949010,-0.99609375,0.099609375,0.033203125,0.15625,0.0625,0.09375,0.0,0.0,0.0
1665675949051,-0.99902344,0.09472656,0.049804688,0.15625,0.03125,-0.09375,0.0,0.0,0.0
1665675949051,-0.99902344,0.09472656,0.049804688,0.15625,0.03125,-0.09375,0.0,0.0,0.0
1665675949091,-1.0039062,0.10546875,0.040039062,0.03125,0.5,-0.03125,0.0,0.0,0.0
1665675949091,-1.0039062,0.10546875,0.040039062,0.03125,0.5,-0.03125,0.0,0.0,0.0
1665675949129,-1.0,0.109375,0.03515625,-0.03125,0.03125,0.09375,0.0,0.0,0.0
1665675949131,-1.0,0.109375,0.03515625,-0.03125,0.03125,0.09375,0.0,0.0,0.0
1665675949171,-1.0087891,0.10253906,0.029296875,-0.09375,0.75,-0.15625,0.0,0.0,0.0
1665675949171,-1.0087891,0.10253906,0.029296875,-0.09375,0.75,-0.15625,0.0,0.0,0.0
1665675949210,-1.0009766,0.1015625,0.051757812,-0.03125,0.1875,0.03125,-66.625,21.0625,-144.9375
1665675949210,-1.0009766,0.1015625,0.051757812,-0.03125,0.1875,0.03125,-66.625,21.0625,-144.9375
1665675949249,-1.0019531,0.10546875,0.028320312,-0.03125,0.1875,0.03125,0.0,0.0,0.0
1665675949250,-1.0019531,0.10546875,0.028320312,-0.03125,0.1875,0.03125,0.0,0.0,0.0
1665675949290,-1.0058594,0.11035156,0.041992188,0.03125,0.25,0.03125,0.0,0.0,0.0
1665675949290,-1.0058594,0.11035156,0.041992188,0.03125,0.25,0.03125,0.0,0.0,0.0
1665675949331,-1.0019531,0.099609375,0.033203125,0.15625,0.3125,0.03125,0.0,0.0,0.0
1665675949331,-1.0019531,0.099609375,0.033203125,0.15625,0.3125,0.03125,0.0,0.0,0.0
1665675949370,-0.9980469,0.10449219,0.049804688,0.03125,0.0625,0.15625,0.0,0.0,0.0
1665675949370,-0.9980469,0.10449219,0.049804688,0.03125,0.0625,0.15625,0.0,0.0,0.0
1665675949413,-1.0,0.103515625,0.02734375,-0.03125,0.375,-0.09375,0.0,0.0,0.0
1665675949413,-1.0,0.103515625,0.02734375,-0.03125,0.375,-0.09375,0.0,0.0,0.0
1665675949451,-1.0068359,0.10546875,0.03125,0.03125,0.3125,0.15625,0.0,0.0,0.0
1665675949452,-1.0068359,0.10546875,0.03125,0.03125,0.3125,0.15625,0.0,0.0,0.0
1665675949491,-1.0058594,0.1015625,0.02734375,-0.09375,0.125,-0.15625,0.0,0.0,0.0
1665675949491,-1.0058594,0.1015625,0.02734375,-0.09375,0.125,-0.15625,0.0,0.0,0.0
1665675949530,-1.0058594,0.10253906,0.037109375,-0.03125,0.375,0.28125,0.0,0.0,0.0
1665675949531,-1.0058594,0.10253906,0.037109375,-0.03125,0.375,0.28125,0.0,0.0,0.0
1665675949570,-1.0,0.11621094,0.036132812,-0.03125,0.03125,-0.03125,0.0,0.0,0.0
1665675949570,-1.0,0.11621094,0.036132812,-0.03125,0.03125,-0.03125,0.0,0.0,0.0
1665675949610,-0.99609375,0.10839844,0.041015625,0.09375,0.0625,0.09375,0.0,0.0,0.0
1665675949610,-0.99609375,0.10839844,0.041015625,0.09375,0.0625,0.09375,0.0,0.0,0.0
1665675949651,-0.99902344,0.115234375,0.041015625,0.03125,0.25,0.03125,0.0,0.0,0.0
1665675949651,-0.99902344,0.115234375,0.041015625,0.03125,0.25,0.03125,0.0,0.0,0.0
1665675949691,-1.0107422,0.10253906,0.045898438,-0.03125,0.125,0.15625,-65.875,19.25,-143.4375
1665675949691,-1.0107422,0.10253906,0.045898438,-0.03125,0.125,0.15625,-65.875,19.25,-143.4375
1665675949730,-1.0068359,0.111328125,0.041015625,0.03125,0.375,0.03125,0.0,0.0,0.0
1665675949730,-1.0068359,0.111328125,0.041015625,0.03125,0.375,0.03125,0.0,0.0,0.0
1665675949773,-0.9980469,0.10644531,0.028320312,0.03125,0.25,0.28125,0.0,0.0,0.0
1665675949773,-0.9980469,0.10644531,0.028320312,0.03125,0.25,0.28125,0.0,0.0,0.0
1665675949811,-1.0078125,0.109375,0.030273438,-0.09375,0.1875,0.03125,0.0,0.0,0.0
1665675949811,-1.0078125,0.109375,0.030273438,-0.09375,0.1875,0.03125,0.0,0.0,0.0
1665675949850,-1.0009766,0.103515625,0.044921875,-0.15625,0.125,0.09375,0.0,0.0,0.0
1665675949850,-1.0009766,0.103515625,0.044921875,-0.15625,0.125,0.09375,0.0,0.0,0.0
1665675949892,-1.0,0.103515625,0.03125,-0.21875,0.5625,-0.09375,0.0,0.0,0.0
1665675949892,-1.0,0.103515625,0.03125,-0.21875,0.5625,-0.09375,0.0,0.0,0.0
1665675949949,-0.99902344,0.10546875,0.029296875,-0.03125,0.5,0.03125,0.0,0.0,0.0
1665675949949,-0.99902344,0.10546875,0.029296875,-0.03125,0.5,0.03125,0.0,0.0,0.0
1665675949969,-0.9941406,0.11230469,0.037109375,-0.03125,0.03125,-0.09375,0.0,0.0,0.0
1665675949970,-0.9941406,0.11230469,0.037109375,-0.03125,0.03125,-0.09375,0.0,0.0,0.0
1665675950011,-1.0029297,0.109375,0.041992188,0.09375,0.3125,0.03125,0.0,0.0,0.0
1665675950011,-1.0029297,0.109375,0.041992188,0.09375,0.3125,0.03125,0.0,0.0,0.0
1665675950050,-0.99902344,0.11328125,0.04296875,0.09375,0.0625,-0.09375,0.0,0.0,0.0
1665675950050,-0.99902344,0.11328125,0.04296875,0.09375,0.0625,-0.09375,0.0,0.0,0.0
1665675950090,-1.0009766,0.10839844,0.04296875,0.03125,-0.03125,-0.09375,0.0,0.0,0.0
1665675950092,-1.0009766,0.10839844,0.04296875,0.03125,-0.03125,-0.09375,0.0,0.0,0.0
1665675950132,-1.0048828,0.10644531,0.032226562,-0.09375,0.125,0.15625,0.0,0.0,0.0
1665675950132,-1.0048828,0.10644531,0.032226562,-0.09375,0.125,0.15625,0.0,0.0,0.0
1665675950171,-0.9941406,0.09863281,0.02734375,0.03125,0.3125,-0.09375,0.0,0.0,0.0
1665675950171,-0.9941406,0.09863281,0.02734375,0.03125,0.3125,-0.09375,0.0,0.0,0.0
1665675950210,-1.0058594,0.09765625,0.040039062,-0.03125,0.25,0.28125,-67.5,20.5625,-144.625
1665675950210,-1.0058594,0.09765625,0.040039062,-0.03125,0.25,0.28125,-67.5,20.5625,-144.625
1665675950250,-1.0019531,0.11816406,0.04296875,0.09375,0.25,-0.03125,0.0,0.0,0.0
1665675950250,-1.0019531,0.11816406,0.04296875,0.09375,0.25,-0.03125,0.0,0.0,0.0
1665675950290,-1.0029297,0.11328125,0.040039062,0.03125,0.1875,-0.03125,0.0,0.0,0.0
1665675950290,-1.0029297,0.11328125,0.040039062,0.03125,0.1875,-0.03125,0.0,0.0,0.0
1665675950330,-0.99902344,0.111328125,0.033203125,0.03125,0.25,0.03125,0.0,0.0,0.0
1665675950329,-0.99902344,0.111328125,0.033203125,0.03125,0.25,0.03125,0.0,0.0,0.0
1665675950371,-1.0078125,0.10449219,0.034179688,-0.03125,0.25,-0.03125,0.0,0.0,0.0
1665675950371,-1.0078125,0.10449219,0.034179688,-0.03125,0.25,-0.03125,0.0,0.0,0.0
1665675950411,-1.0009766,0.11035156,0.04296875,-0.03125,0.125,-0.09375,0.0,0.0,0.0
1665675950412,-1.0009766,0.11035156,0.04296875,-0.03125,0.125,-0.09375,0.0,0.0,0.0
1665675950452,-1.0009766,0.10449219,0.036132812,0.03125,0.375,0.09375,0.0,0.0,0.0
1665675950452,-1.0009766,0.10449219,0.036132812,0.03125,0.375,0.09375,0.0,0.0,0.0
1665675950510,-1.0048828,0.10449219,0.04296875,-0.03125,0.125,0.03125,0.0,0.0,0.0
1665675950510,-1.0048828,0.10449219,0.04296875,-0.03125,0.125,0.03125,0.0,0.0,0.0
1665675950530,-1.0,0.10546875,0.034179688,0.15625,-0.09375,-0.09375,0.0,0.0,0.0
1665675950530,-1.0,0.10546875,0.034179688,0.15625,-0.09375,-0.09375,0.0,0.0,0.0
1665675950573,-0.9970703,0.103515625,0.044921875,-0.03125,-0.09375,-0.09375,0.0,0.0,0.0
1665675950573,-0.9970703,0.103515625,0.044921875,-0.03125,-0.09375,-0.09375,0.0,0.0,0.0
1665675950610,-1.0039062,0.10839844,0.04296875,-0.03125,-0.03125,-0.03125,0.0,0.0,0.0
1665675950610,-1.0039062,0.10839844,0.04296875,-0.03125,-0.03125,-0.03125,0.0,0.0,0.0
1665675950652,-1.0087891,0.103515625,0.049804688,-0.21875,0.4375,0.09375,0.0,0.0,0.0
1665675950652,-1.0087891,0.103515625,0.049804688,-0.21875,0.4375,0.09375,0.0,0.0,0.0
1665675950690,-1.0019531,0.10253906,0.041015625,-0.21875,-0.09375,-0.03125,-66.4375,21.1875,-145.125
1665675950690,-1.0019531,0.10253906,0.041015625,-0.21875,-0.09375,-0.03125,-66.4375,21.1875,-145.125
1665675950733,-0.9951172,0.11230469,0.033203125,-0.28125,-0.21875,0.03125,0.0,0.0,0.0
1665675950733,-0.9951172,0.11230469,0.033203125,-0.28125,-0.21875,0.03125,0.0,0.0,0.0
1665675950770,-1.0068359,0.10644531,0.041015625,-0.21875,0.03125,0.21875,0.0,0.0,0.0
1665675950770,-1.0068359,0.10644531,0.041015625,-0.21875,0.03125,0.21875,0.0,0.0,0.0
1665675950811,-1.0058594,0.10644531,0.049804688,-0.21875,-0.03125,0.21875,0.0,0.0,0.0
1665675950811,-1.0058594,0.10644531,0.049804688,-0.21875,-0.03125,0.21875,0.0,0.0,0.0
1665675950850,-0.9941406,0.09863281,0.051757812,-0.03125,0.03125,0.09375,0.0,0.0,0.0
1665675950850,-0.9941406,0.09863281,0.051757812,-0.03125,0.03125,0.09375,0.0,0.0,0.0
1665675950890,-1.0039062,0.11230469,0.034179688,-0.03125,0.4375,0.21875,0.0,0.0,0.0
1665675950890,-1.0039062,0.11230469,0.034179688,-0.03125,0.4375,0.21875,0.0,0.0,0.0
1665675950930,-0.9951172,0.10253906,0.034179688,0.09375,0.0625,0.03125,0.0,0.0,0.0
1665675950930,-0.9951172,0.10253906,0.034179688,0.09375,0.0625,0.03125,0.0,0.0,0.0
1665675950970,-1.0078125,0.103515625,0.037109375,0.03125,0.1875,0.09375,0.0,0.0,0.0
1665675950970,-1.0078125,0.103515625,0.037109375,0.03125,0.1875,0.09375,0.0,0.0,0.0
1665675951011,-1.0019531,0.109375,0.04296875,0.03125,0.25,-0.03125,0.0,0.0,0.0
1665675951011,-1.0019531,0.109375,0.04296875,0.03125,0.25,-0.03125,0.0,0.0,0.0
1665675951053,-0.9980469,0.10546875,0.036132812,-0.21875,0.0625,0.09375,0.0,0.0,0.0
1665675951053,-0.9980469,0.10546875,0.036132812,-0.21875,0.0625,0.09375,0.0,0.0,0.0
1665675951090,-1.0,0.10546875,0.045898438,-0.09375,0.125,0.03125,0.0,0.0,0.0
1665675951090,-1.0,0.10546875,0.045898438,-0.09375,0.125,0.03125,0.0,0.0,0.0
1665675951131,-0.9951172,0.103515625,0.041992188,-0.03125,0.0625,0.15625,0.0,0.0,0.0
1665675951131,-0.9951172,0.103515625,0.041992188,-0.03125,0.0625,0.15625,0.0,0.0,0.0
1665675951169,-1.0029297,0.11621094,0.041015625,0.21875,0.4375,-0.03125,0.0,0.0,0.0
1665675951169,-1.0029297,0.11621094,0.041015625,0.21875,0.4375,-0.03125,0.0,0.0,0.0
1665675951210,-0.9970703,0.10058594,0.04296875,0.15625,0.3125,-0.03125,-67.1875,22.375,-143.625
1665675951210,-0.9970703,0.10058594,0.04296875,0.15625,0.3125,-0.03125,-67.1875,22.375,-143.625
1665675951256,-1.0087891,0.111328125,0.048828125,0.03125,0.4375,-0.03125,0.0,0.0,0.0
1665675951255,-1.0087891,0.111328125,0.048828125,0.03125,0.4375,-0.03125,0.0,0.0,0.0
1665675951291,-1.0048828,0.10546875,0.037109375,-0.03125,0.0625,-0.09375,0.0,0.0,0.0
1665675951291,-1.0048828,0.10546875,0.037109375,-0.03125,0.0625,-0.09375,0.0,0.0,0.0
1665675951329,-0.99902344,0.10253906,0.047851562,0.15625,0.25,-0.28125,0.0,0.0,0.0
1665675951330,-0.99902344,0.10253906,0.047851562,0.15625,0.25,-0.28125,0.0,0.0,0.0
1665675951370,-1.0058594,0.10644531,0.04296875,-0.03125,0.03125,0.09375,0.0,0.0,0.0
1665675951371,-1.0058594,0.10644531,0.04296875,-0.03125,0.03125,0.09375,0.0,0.0,0.0
1665675951412,-1.0029297,0.103515625,0.037109375,0.03125,0.625,0.03125,0.0,0.0,0.0
1665675951412,-1.0029297,0.103515625,0.037109375,0.03125,0.625,0.03125,0.0,0.0,0.0
1665675951450,-0.99902344,0.10058594,0.044921875,0.34375,0.125,0.21875,0.0,0.0,0.0
1665675951450,-0.99902344,0.10058594,0.044921875,0.34375,0.125,0.21875,0.0,0.0,0.0
1665675951492,-0.9970703,0.109375,0.036132812,0.03125,0.0625,0.15625,0.0,0.0,0.0
1665675951492,-0.9970703,0.109375,0.036132812,0.03125,0.0625,0.15625,0.0,0.0,0.0
1665675951550,-0.9980469,0.1015625,0.037109375,0.03125,0.125,0.21875,0.0,0.0,0.0
1665675951550,-0.9980469,0.1015625,0.037109375,0.03125,0.125,0.21875,0.0,0.0,0.0
1665675951569,-1.0,0.11425781,0.044921875,0.15625,0.125,0.15625,0.0,0.0,0.0
1665675951569,-1.0,0.11425781,0.044921875,0.15625,0.125,0.15625,0.0,0.0,0.0
1665675951611,-1.0078125,0.10839844,0.055664062,-0.03125,0.03125,0.09375,0.0,0.0,0.0
1665675951610,-1.0078125,0.10839844,0.055664062,-0.03125,0.03125,0.09375,0.0,0.0,0.0
1665675951651,-0.9970703,0.11230469,0.029296875,-0.09375,0.3125,-0.09375,0.0,0.0,0.0
1665675951652,-0.9970703,0.11230469,0.029296875,-0.09375,0.3125,-0.09375,0.0,0.0,0.0
1665675951690,-1.0029297,0.10058594,0.038085938,0.03125,0.375,-0.21875,-66.3125,22.0625,-143.4375
1665675951690,-1.0029297,0.10058594,0.038085938,0.03125,0.375,-0.21875,-66.3125,22.0625,-143.4375
1665675951729,-0.9970703,0.107421875,0.033203125,-0.03125,0.125,0.21875,0.0,0.0,0.0
1665675951729,-0.9970703,0.107421875,0.033203125,-0.03125,0.125,0.21875,0.0,0.0,0.0
1665675951791,-1.0058594,0.107421875,0.040039062,0.09375,0.3125,0.03125,0.0,0.0,0.0
1665675951791,-1.0058594,0.107421875,0.040039062,0.09375,0.3125,0.03125,0.0,0.0,0.0
1665675951810,-1.0029297,0.11230469,0.04296875,-0.03125,0.125,0.21875,0.0,0.0,0.0
1665675951810,-1.0029297,0.11230469,0.04296875,-0.03125,0.125,0.21875,0.0,0.0,0.0
1665675951851,-1.0039062,0.109375,0.047851562,0.34375,0.25,-0.03125,0.0,0.0,0.0
1665675951850,-1.0039062,0.109375,0.047851562,0.34375,0.25,-0.03125,0.0,0.0,0.0
1665675951890,-1.0058594,0.103515625,0.052734375,0.09375,0.1875,0.21875,0.0,0.0,0.0
1665675951890,-1.0058594,0.103515625,0.052734375,0.09375,0.1875,0.21875,0.0,0.0,0.0
1665675951934,-1.0,0.10839844,0.051757812,0.15625,0.03125,0.15625,0.0,0.0,0.0
1665675951934,-1.0,0.10839844,0.051757812,0.15625,0.03125,0.15625,0.0,0.0,0.0
1665675951970,-1.0078125,0.10644531,0.030273438,-0.03125,-0.03125,0.09375,0.0,0.0,0.0
1665675951970,-1.0078125,0.10644531,0.030273438,-0.03125,-0.03125,0.09375,0.0,0.0,0.0
1665675952013,-1.0019531,0.10546875,0.05859375,0.15625,0.1875,0.03125,0.0,0.0,0.0
1665675952014,-1.0019531,0.10546875,0.05859375,0.15625,0.1875,0.03125,0.0,0.0,0.0
1665675952050,-1.0019531,0.109375,0.040039062,0.09375,0.1875,0.15625,0.0,0.0,0.0
1665675952050,-1.0019531,0.109375,0.040039062,0.09375,0.1875,0.15625,0.0,0.0,0.0
1665675952090,-1.0117188,0.11035156,0.0390625,0.21875,0.1875,-0.09375,0.0,0.0,0.0
1665675952090,-1.0117188,0.11035156,0.0390625,0.21875,0.1875,-0.09375,0.0,0.0,0.0
1665675952137,-0.99902344,0.109375,0.03515625,-0.03125,0.0625,0.21875,0.0,0.0,0.0
1665675952137,-0.99902344,0.109375,0.03515625,-0.03125,0.0625,0.21875,0.0,0.0,0.0
1665675952170,-1.0,0.11230469,0.047851562,-0.21875,0.5,-0.21875,0.0,0.0,0.0
1665675952170,-1.0,0.11230469,0.047851562,-0.21875,0.5,-0.21875,0.0,0.0,0.0
1665675952209,-1.0078125,0.11425781,0.0390625,0.09375,0.3125,0.03125,-66.3125,21.0625,-142.875
1665675952210,-1.0078125,0.11425781,0.0390625,0.09375,0.3125,0.03125,-66.3125,21.0625,-142.875
1665675952270,-0.99609375,0.10546875,0.053710938,-0.09375,-0.03125,-0.03125,0.0,0.0,0.0
1665675952270,-0.99609375,0.10546875,0.053710938,-0.09375,-0.03125,-0.03125,0.0,0.0,0.0
1665675952311,-0.99316406,0.11230469,0.032226562,-0.03125,0.375,-0.09375,0.0,0.0,0.0
1665675952311,-0.99316406,0.11230469,0.032226562,-0.03125,0.375,-0.09375,0.0,0.0,0.0
1665675952331,-1.0087891,0.11035156,0.036132812,-0.03125,0.0625,-0.03125,0.0,0.0,0.0
1665675952331,-1.0087891,0.11035156,0.036132812,-0.03125,0.0625,-0.03125,0.0,0.0,0.0
1665675952370,-1.0107422,0.10058594,0.052734375,-0.03125,0.3125,0.03125,0.0,0.0,0.0
1665675952370,-1.0107422,0.10058594,0.052734375,-0.03125,0.3125,0.03125,0.0,0.0,0.0
1665675952410,-0.99902344,0.10839844,0.041015625,-0.09375,0.125,-0.21875,0.0,0.0,0.0
1665675952410,-0.99902344,0.10839844,0.041015625,-0.09375,0.125,-0.21875,0.0,0.0,0.0
1665675952452,-1.0029297,0.11035156,0.048828125,-0.09375,0.5,-0.15625,0.0,0.0,0.0
1665675952452,-1.0029297,0.11035156,0.048828125,-0.09375,0.5,-0.15625,0.0,0.0,0.0
1665675952490,-1.0048828,0.10644531,0.05078125,0.03125,0.25,0.21875,0.0,0.0,0.0
1665675952490,-1.0048828,0.10644531,0.05078125,0.03125,0.25,0.21875,0.0,0.0,0.0
1665675952530,-0.9970703,0.109375,0.041015625,-0.03125,0.375,-0.03125,0.0,0.0,0.0
1665675952530,-0.9970703,0.109375,0.041015625,-0.03125,0.375,-0.03125,0.0,0.0,0.0
1665675952572,-1.0058594,0.10546875,0.037109375,-0.03125,0.0625,-0.03125,0.0,0.0,0.0
1665675952572,-1.0058594,0.10546875,0.037109375,-0.03125,0.0625,-0.03125,0.0,0.0,0.0
1665675952633,-1.0009766,0.10839844,0.041992188,-0.21875,-0.09375,0.15625,0.0,0.0,0.0
1665675952633,-1.0009766,0.10839844,0.041992188,-0.21875,-0.09375,0.15625,0.0,0.0,0.0
1665675952650,-0.99316406,0.11230469,0.049804688,-0.03125,-0.09375,-0.15625,0.0,0.0,0.0
1665675952650,-0.99316406,0.11230469,0.049804688,-0.03125,-0.09375,-0.15625,0.0,0.0,0.0
1665675952691,-1.0097656,0.11035156,0.044921875,-0.15625,0.125,0.03125,-66.75,21.1875,-144.375
1665675952691,-1.0097656,0.11035156,0.044921875,-0.15625,0.125,0.03125,-66.75,21.1875,-144.375
1665675952729,-0.9980469,0.10839844,0.038085938,-0.03125,0.1875,0.09375,0.0,0.0,0.0
1665675952729,-0.9980469,0.10839844,0.038085938,-0.03125,0.1875,0.09375,0.0,0.0,0.0
1665675952770,-0.9941406,0.103515625,0.053710938,0.03125,0.375,-0.15625,0.0,0.0,0.0
1665675952770,-0.9941406,0.103515625,0.053710938,0.03125,0.375,-0.15625,0.0,0.0,0.0
1665675952810,-1.0039062,0.103515625,0.029296875,-0.21875,0.1875,0.09375,0.0,0.0,0.0
1665675952810,-1.0039062,0.103515625,0.029296875,-0.21875,0.1875,0.09375,0.0,0.0,0.0
1665675952853,-1.0019531,0.11035156,0.041992188,-0.28125,0.1875,-0.21875,0.0,0.0,0.0
1665675952853,-1.0019531,0.11035156,0.041992188,-0.28125,0.1875,-0.21875,0.0,0.0,0.0
1665675952910,-1.0029297,0.10253906,0.032226562,-0.21875,0.125,0.21875,0.0,0.0,0.0
1665675952910,-1.0029297,0.10253906,0.032226562,-0.21875,0.125,0.21875,0.0,0.0,0.0
1665675952931,-0.9941406,0.11035156,0.03515625,0.03125,0.125,0.03125,0.0,0.0,0.0
1665675952930,-0.9941406,0.11035156,0.03515625,0.03125,0.125,0.03125,0.0,0.0,0.0
1665675952970,-1.0117188,0.10839844,0.041992188,0.03125,0.4375,0.15625,0.0,0.0,0.0
1665675952970,-1.0117188,0.10839844,0.041992188,0.03125,0.4375,0.15625,0.0,0.0,0.0
1665675953013,-1.0048828,0.1171875,0.048828125,-0.15625,1.125,0.34375,0.0,0.0,0.0
1665675953013,-1.0048828,0.1171875,0.048828125,-0.15625,1.125,0.34375,0.0,0.0,0.0
1665675953071,-1.0029297,0.10839844,0.041015625,0.09375,0.5625,-0.03125,0.0,0.0,0.0
1665675953071,-1.0029297,0.10839844,0.041015625,0.09375,0.5625,-0.03125,0.0,0.0,0.0
1665675953090,-0.99121094,0.10839844,0.0390625,-0.21875,0.8125,0.09375,0.0,0.0,0.0
1665675953090,-0.99121094,0.10839844,0.0390625,-0.21875,0.8125,0.09375,0.0,0.0,0.0
1665675953130,-0.9970703,0.11425781,0.040039062,-0.34375,0.5,0.28125,0.0,0.0,0.0
1665675953130,-0.9970703,0.11425781,0.040039062,-0.34375,0.5,0.28125,0.0,0.0,0.0
1665675953170,-1.0146484,0.099609375,0.041015625,-0.03125,0.375,0.03125,0.0,0.0,0.0
1665675953171,-1.0146484,0.099609375,0.041015625,-0.03125,0.375,0.03125,0.0,0.0,0.0
1665675953250,-1.0,0.10253906,0.051757812,-0.03125,0.3125,-0.09375,-67.1875,20.5625,-144.0625
1665675953251,-1.0,0.10839844,0.0390625,-0.09375,0.4375,-0.15625,0.0,0.0,0.0
1665675953250,-1.0,0.10253906,0.051757812,-0.03125,0.3125,-0.09375,-67.1875,20.5625,-144.0625
1665675953252,-1.0,0.10839844,0.0390625,-0.09375,0.4375,-0.15625,0.0,0.0,0.0
1665675953291,-0.99316406,0.109375,0.041992188,-0.03125,0.5,-0.09375,0.0,0.0,0.0
1665675953292,-0.99316406,0.109375,0.041992188,-0.03125,0.5,-0.09375,0.0,0.0,0.0
1665675953331,-1.0048828,0.10546875,0.0390625,-0.03125,0.5625,0.03125,0.0,0.0,0.0
1665675953331,-1.0048828,0.10546875,0.0390625,-0.03125,0.5625,0.03125,0.0,0.0,0.0
1665675953371,-0.9980469,0.115234375,0.051757812,-0.09375,0.5,-0.03125,0.0,0.0,0.0
1665675953371,-0.9980469,0.115234375,0.051757812,-0.09375,0.5,-0.03125,0.0,0.0,0.0
1665675953411,-1.0029297,0.11816406,0.04296875,-0.15625,0.5,0.28125,0.0,0.0,0.0
1665675953411,-1.0029297,0.11816406,0.04296875,-0.15625,0.5,0.28125,0.0,0.0,0.0
1665675953449,-1.0087891,0.111328125,0.04296875,0.03125,0.375,0.15625,0.0,0.0,0.0
1665675953449,-1.0087891,0.111328125,0.04296875,0.03125,0.375,0.15625,0.0,0.0,0.0
1665675953492,-0.9921875,0.11035156,0.0546875,-0.09375,0.4375,0.21875,0.0,0.0,0.0
1665675953492,-0.9921875,0.11035156,0.0546875,-0.09375,0.4375,0.21875,0.0,0.0,0.0
1665675953529,-1.0,0.119140625,0.029296875,-0.03125,0.375,0.15625,0.0,0.0,0.0
1665675953529,-1.0,0.119140625,0.029296875,-0.03125,0.375,0.15625,0.0,0.0,0.0
1665675953570,-1.0009766,0.107421875,0.048828125,-0.15625,0.5625,0.03125,0.0,0.0,0.0
1665675953571,-1.0009766,0.107421875,0.048828125,-0.15625,0.5625,0.03125,0.0,0.0,0.0
1665675953611,-1.0009766,0.11035156,0.0390625,-0.15625,0.5,0.15625,0.0,0.0,0.0
1665675953611,-1.0009766,0.11035156,0.0390625,-0.15625,0.5,0.15625,0.0,0.0,0.0
1665675953670,-0.9951172,0.111328125,0.028320312,-0.03125,0.375,-0.03125,0.0,0.0,0.0
1665675953670,-0.9951172,0.111328125,0.028320312,-0.03125,0.375,-0.03125,0.0,0.0,0.0
1665675953690,-0.9970703,0.11621094,0.05078125,0.03125,0.25,-0.03125,-65.6875,21.9375,-145.375
1665675953690,-0.9970703,0.11621094,0.05078125,0.03125,0.25,-0.03125,-65.6875,21.9375,-145.375
1665675953750,-0.99902344,0.107421875,0.028320312,-0.09375,0.3125,0.03125,0.0,0.0,0.0
1665675953750,-0.99902344,0.107421875,0.028320312,-0.09375,0.3125,0.03125,0.0,0.0,0.0
1665675953770,-1.0,0.1015625,0.036132812,-0.09375,0.25,-0.21875,0.0,0.0,0.0
1665675953770,-1.0,0.1015625,0.036132812,-0.09375,0.25,-0.21875,0.0,0.0,0.0
1665675953810,-1.0039062,0.09863281,0.0390625,-0.21875,0.3125,-0.03125,0.0,0.0,0.0
1665675953810,-1.0039062,0.09863281,0.0390625,-0.21875,0.3125,-0.03125,0.0,0.0,0.0
1665675953850,-1.0068359,0.10449219,0.0390625,-0.09375,0.6875,-0.03125,0.0,0.0,0.0
1665675953850,-1.0068359,0.10449219,0.0390625,-0.09375,0.6875,-0.03125,0.0,0.0,0.0
1665675953893,-1.0068359,0.10058594,0.045898438,-0.09375,1.0625,-0.15625,0.0,0.0,0.0
1665675953893,-1.0068359,0.10058594,0.045898438,-0.09375,1.0625,-0.15625,0.0,0.0,0.0
1665675953949,-1.0029297,0.111328125,0.034179688,-0.03125,0.125,0.03125,0.0,0.0,0.0
1665675953949,-1.0029297,0.111328125,0.034179688,-0.03125,0.125,0.03125,0.0,0.0,0.0
1665675953969,-0.9980469,0.11816406,0.033203125,0.03125,0.3125,-0.15625,0.0,0.0,0.0
1665675953969,-0.9980469,0.11816406,0.033203125,0.03125,0.3125,-0.15625,0.0,0.0,0.0
1665675954011,-0.9951172,0.11425781,0.032226562,-0.09375,0.03125,0.03125,0.0,0.0,0.0
1665675954011,-0.9951172,0.11425781,0.032226562,-0.09375,0.03125,0.03125,0.0,0.0,0.0
1665675954051,-0.9970703,0.107421875,0.040039062,-0.03125,0.03125,-0.09375,0.0,0.0,0.0
1665675954051,-0.9970703,0.107421875,0.040039062,-0.03125,0.03125,-0.09375,0.0,0.0,0.0
1665675954092,-1.0019531,0.107421875,0.049804688,0.03125,0.25,0.09375,0.0,0.0,0.0
1665675954092,-1.0019531,0.107421875,0.049804688,0.03125,0.25,0.09375,0.0,0.0,0.0
1665675954129,-1.0126953,0.111328125,0.041015625,-0.15625,0.375,-0.15625,0.0,0.0,0.0
1665675954129,-1.0126953,0.111328125,0.041015625,-0.15625,0.375,-0.15625,0.0,0.0,0.0
1665675954170,-1.0078125,0.09765625,0.037109375,-0.03125,0.25,0.03125,0.0,0.0,0.0
1665675954170,-1.0078125,0.09765625,0.037109375,-0.03125,0.25,0.03125,0.0,0.0,0.0
1665675954210,-1.0,0.10839844,0.037109375,0.03125,-0.3125,-0.25,-66.4375,21.1875,-144.375
1665675954210,-1.0,0.10839844,0.037109375,0.03125,-0.3125,-0.25,-66.4375,21.1875,-144.375
1665675954250,-1.0058594,0.115234375,0.020507812,0.09375,-0.75,-0.3125,0.0,0.0,0.0
1665675954250,-1.0058594,0.115234375,0.020507812,0.09375,-0.75,-0.3125,0.0,0.0,0.0
1665675954290,-0.9921875,0.10644531,0.041015625,0.21875,-0.6875,0.0,0.0,0.0,0.0
1665675954290,-0.9921875,0.10644531,0.041015625,0.21875,-0.6875,0.0,0.0,0.0,0.0
1665675954331,-1.0058594,0.109375,0.034179688,0.15625,-0.375,-0.25,0.0,0.0,0.0
1665675954331,-1.0058594,0.109375,0.034179688,0.15625,-0.375,-0.25,0.0,0.0,0.0
1665675954369,-1.0058594,0.11621094,0.04296875,0.03125,-0.625,0.0625,0.0,0.0,0.0
1665675954369,-1.0058594,0.11621094,0.04296875,0.03125,-0.625,0.0625,0.0,0.0,0.0
1665675954410,-0.9921875,0.11230469,0.036132812,0.15625,-0.1875,-0.0625,0.0,0.0,0.0
1665675954410,-0.9921875,0.11230469,0.036132812,0.15625,-0.1875,-0.0625,0.0,0.0,0.0
1665675954451,-1.0029297,0.111328125,0.055664062,0.09375,-0.1875,0.0,0.0,0.0,0.0
1665675954451,-1.0029297,0.111328125,0.055664062,0.09375,-0.1875,0.0,0.0,0.0,0.0
1665675954493,-0.99902344,0.107421875,0.0390625,0.03125,-0.1875,-0.0625,0.0,0.0,0.0
1665675954493,-0.99902344,0.107421875,0.0390625,0.03125,-0.1875,-0.0625,0.0,0.0,0.0
1665675954531,-1.0029297,0.10253906,0.0625,0.15625,-0.0625,-0.125,0.0,0.0,0.0
1665675954533,-1.0029297,0.10253906,0.0625,0.15625,-0.0625,-0.125,0.0,0.0,0.0
1665675954591,-1.0039062,0.107421875,0.04296875,0.09375,-0.25,0.125,0.0,0.0,0.0
1665675954592,-1.0039062,0.107421875,0.04296875,0.09375,-0.25,0.125,0.0,0.0,0.0
1665675954610,-0.9970703,0.109375,0.032226562,0.15625,0.0,-0.375,0.0,0.0,0.0
1665675954610,-0.9970703,0.109375,0.032226562,0.15625,0.0,-0.375,0.0,0.0,0.0
1665675954652,-1.0029297,0.109375,0.0390625,-0.03125,-0.3125,0.0,0.0,0.0,0.0
1665675954652,-1.0029297,0.109375,0.0390625,-0.03125,-0.3125,0.0,0.0,0.0,0.0
1665675954690,-0.99316406,0.1015625,0.040039062,-0.34375,0.3125,-0.25,-67.625,21.0625,-144.9375
1665675954690,-0.99316406,0.1015625,0.040039062,-0.34375,0.3125,-0.25,-67.625,21.0625,-144.9375
1665675954731,-1.0,0.10253906,0.047851562,-0.03125,-0.1875,-0.125,0.0,0.0,0.0
1665675954732,-1.0,0.10253906,0.047851562,-0.03125,-0.1875,-0.125,0.0,0.0,0.0
1665675954774,-1.0039062,0.111328125,0.038085938,-0.09375,-0.6875,-0.25,0.0,0.0,0.0
1665675954774,-1.0039062,0.111328125,0.038085938,-0.09375,-0.6875,-0.25,0.0,0.0,0.0
1665675954809,-0.99121094,0.11425781,0.022460938,0.28125,-0.625,0.25,0.0,0.0,0.0
1665675954809,-0.99121094,0.11425781,0.022460938,0.28125,-0.625,0.25,0.0,0.0,0.0
1665675954851,-0.9980469,0.10644531,0.043945312,0.40625,-0.25,-0.25,0.0,0.0,0.0
1665675954851,-0.9980469,0.10644531,0.043945312,0.40625,-0.25,-0.25,0.0,0.0,0.0
1665675954892,-0.9970703,0.099609375,0.040039062,0.03125,-0.5,-0.0625,0.0,0.0,0.0
1665675954891,-0.9970703,0.099609375,0.040039062,0.03125,-0.5,-0.0625,0.0,0.0,0.0
1665675954934,-1.0019531,0.1015625,0.048828125,-0.09375,-0.125,-0.1875,0.0,0.0,0.0
1665675954934,-1.0019531,0.1015625,0.048828125,-0.09375,-0.125,-0.1875,0.0,0.0,0.0
1665675954970,-0.99902344,0.10546875,0.047851562,-0.15625,-0.375,-0.125,0.0,0.0,0.0
1665675954970,-0.99902344,0.10546875,0.047851562,-0.15625,-0.375,-0.125,0.0,0.0,0.0
1665675955010,-1.0019531,0.10546875,0.03125,0.09375,-0.3125,-0.125,0.0,0.0,0.0
1665675955011,-1.0019531,0.10546875,0.03125,0.09375,-0.3125,-0.125,0.0,0.0,0.0
1665675955050,-1.0009766,0.10253906,0.040039062,0.21875,-0.4375,-0.125,0.0,0.0,0.0
1665675955051,-1.0009766,0.10253906,0.040039062,0.21875,-0.4375,-0.125,0.0,0.0,0.0
1665675955091,-0.9941406,0.11816406,0.0390625,0.28125,-0.4375,0.0,0.0,0.0,0.0
1665675955092,-0.9941406,0.11816406,0.0390625,0.28125,-0.4375,0.0,0.0,0.0,0.0
1665675955130,-1.0009766,0.11035156,0.047851562,0.15625,-0.3125,0.1875,0.0,0.0,0.0
1665675955130,-1.0009766,0.11035156,0.047851562,0.15625,-0.3125,0.1875,0.0,0.0,0.0
1665675955171,-1.0078125,0.10839844,0.025390625,0.09375,-0.5,-0.25,0.0,0.0,0.0
1665675955171,-1.0078125,0.10839844,0.025390625,0.09375,-0.5,-0.25,0.0,0.0,0.0
1665675955210,-1.0087891,0.10644531,0.041015625,0.03125,-0.375,-0.125,-66.625,20.75,-144.1875
1665675955210,-1.0087891,0.10644531,0.041015625,0.03125,-0.375,-0.125,-66.625,20.75,-144.1875
1665675955250,-1.0009766,0.10449219,0.03125,0.03125,-0.3125,-0.0625,0.0,0.0,0.0
1665675955250,-1.0009766,0.10449219,0.03125,0.03125,-0.3125,-0.0625,0.0,0.0,0.0
1665675955293,-0.9951172,0.109375,0.0390625,0.09375,-0.5,-0.0625,0.0,0.0,0.0
1665675955293,-0.9951172,0.109375,0.0390625,0.09375,-0.5,-0.0625,0.0,0.0,0.0
1665675955330,-0.9941406,0.103515625,0.038085938,0.34375,-0.1875,-0.0625,0.0,0.0,0.0
1665675955330,-0.9941406,0.103515625,0.038085938,0.34375,-0.1875,-0.0625,0.0,0.0,0.0
1665675955372,-1.0087891,0.115234375,0.030273438,0.09375,-0.25,0.1875,0.0,0.0,0.0
1665675955372,-1.0087891,0.115234375,0.030273438,0.09375,-0.25,0.1875,0.0,0.0,0.0
1665675955410,-1.0087891,0.10644531,0.032226562,0.03125,-0.78125,0.0625,0.0,0.0,0.0
1665675955412,-1.0087891,0.10644531,0.032226562,0.03125,-0.78125,0.0625,0.0,0.0,0.0
1665675955450,-0.99609375,0.10449219,0.03515625,0.03125,-0.5625,0.0625,0.0,0.0,0.0
1665675955450,-0.99609375,0.10449219,0.03515625,0.03125,-0.5625,0.0625,0.0,0.0,0.0
1665675955491,-1.0078125,0.10546875,0.0390625,0.03125,-0.1875,0.125,0.0,0.0,0.0
1665675955491,-1.0078125,0.10546875,0.0390625,0.03125,-0.1875,0.125,0.0,0.0,0.0
1665675955549,-0.9980469,0.10839844,0.0234375,0.09375,-0.125,0.0625,0.0,0.0,0.0
1665675955549,-0.9980469,0.10839844,0.0234375,0.09375,-0.125,0.0625,0.0,0.0,0.0
1665675955570,-0.99902344,0.11035156,0.032226562,0.09375,-0.4375,-0.0625,0.0,0.0,0.0
1665675955570,-0.99902344,0.11035156,0.032226562,0.09375,-0.4375,-0.0625,0.0,0.0,0.0
1665675955612,-1.0048828,0.107421875,0.032226562,0.03125,-0.375,0.0625,0.0,0.0,0.0
1665675955612,-1.0048828,0.107421875,0.032226562,0.03125,-0.375,0.0625,0.0,0.0,0.0
1665675955651,-1.0068359,0.11425781,0.0390625,0.03125,-0.5625,0.125,0.0,0.0,0.0
1665675955651,-1.0068359,0.11425781,0.0390625,0.03125,-0.5625,0.125,0.0,0.0,0.0
1665675955689,-1.0029297,0.107421875,0.033203125,0.09375,-0.625,0.0,-65.6875,21.1875,-144.0625
1665675955689,-1.0029297,0.107421875,0.033203125,0.09375,-0.625,0.0,-65.6875,21.1875,-144.0625
1665675955730,-1.0097656,0.10253906,0.05078125,0.15625,-0.6875,-0.0625,0.0,0.0,0.0
1665675955732,-1.0097656,0.10253906,0.05078125,0.15625,-0.6875,-0.0625,0.0,0.0,0.0
1665675955770,-1.0039062,0.115234375,0.045898438,-0.09375,-0.375,-0.0625,0.0,0.0,0.0
1665675955770,-1.0039062,0.115234375,0.045898438,-0.09375,-0.375,-0.0625,0.0,0.0,0.0
1665675955830,-1.0048828,0.109375,0.036132812,0.28125,-0.375,-0.0625,0.0,0.0,0.0
1665675955830,-1.0048828,0.109375,0.036132812,0.28125,-0.375,-0.0625,0.0,0.0,0.0
1665675955850,-0.99609375,0.107421875,0.044921875,0.21875,-0.625,-0.125,0.0,0.0,0.0
1665675955850,-0.99609375,0.107421875,0.044921875,0.21875,-0.625,-0.125,0.0,0.0,0.0
1665675955890,-1.0009766,0.10839844,0.0390625,0.03125,-0.375,0.0625,0.0,0.0,0.0
1665675955890,-1.0009766,0.10839844,0.0390625,0.03125,-0.375,0.0625,0.0,0.0,0.0
1665675955930,-1.0107422,0.10253906,0.04296875,0.21875,-0.5625,-0.125,0.0,0.0,0.0
1665675955930,-1.0107422,0.10253906,0.04296875,0.21875,-0.5625,-0.125,0.0,0.0,0.0
1665675955971,-0.9951172,0.10644531,0.03515625,0.21875,-0.5,-0.0625,0.0,0.0,0.0
1665675955971,-0.9951172,0.10644531,0.03515625,0.21875,-0.5,-0.0625,0.0,0.0,0.0
1665675956010,-1.0,0.103515625,0.041992188,0.21875,-0.4375,-0.0625,0.0,0.0,0.0
1665675956010,-1.0,0.103515625,0.041992188,0.21875,-0.4375,-0.0625,0.0,0.0,0.0
1665675956050,-1.0058594,0.11230469,0.046875,0.21875,-0.625,-0.125,0.0,0.0,0.0
1665675956050,-1.0058594,0.11230469,0.046875,0.21875,-0.625,-0.125,0.0,0.0,0.0
1665675956091,-0.9902344,0.10253906,0.033203125,0.09375,-0.375,0.1875,0.0,0.0,0.0
1665675956093,-0.9902344,0.10253906,0.033203125,0.09375,-0.375,0.1875,0.0,0.0,0.0
1665675956130,-1.0039062,0.109375,0.041992188,0.09375,-0.375,0.0625,0.0,0.0,0.0
1665675956130,-1.0039062,0.109375,0.041992188,0.09375,-0.375,0.0625,0.0,0.0,0.0
1665675956171,-1.0019531,0.11230469,0.040039062,0.03125,-0.3125,-0.0625,0.0,0.0,0.0
1665675956171,-1.0019531,0.11230469,0.040039062,0.03125,-0.3125,-0.0625,0.0,0.0,0.0
1665675956210,-1.0107422,0.099609375,0.046875,0.09375,-0.125,0.0625,-66.4375,21.1875,-143.3125
1665675956210,-1.0107422,0.099609375,0.046875,0.09375,-0.125,0.0625,-66.4375,21.1875,-143.3125
1665675956271,-1.0019531,0.11035156,0.046875,0.21875,-0.375,0.0,0.0,0.0,0.0
1665675956270,-1.0019531,0.11035156,0.046875,0.21875,-0.375,0.0,0.0,0.0,0.0
1665675956292,-1.0048828,0.11035156,0.0390625,0.09375,-0.4375,-0.0625,0.0,0.0,0.0
1665675956292,-1.0048828,0.11035156,0.0390625,0.09375,-0.4375,-0.0625,0.0,0.0,0.0
1665675956330,-1.0107422,0.10449219,0.041992188,0.03125,-0.4375,0.0625,0.0,0.0,0.0
1665675956330,-1.0107422,0.10449219,0.041992188,0.03125,-0.4375,0.0625,0.0,0.0,0.0
1665675956371,-1.0048828,0.11035156,0.03515625,0.03125,0.0625,-0.0625,0.0,0.0,0.0
1665675956371,-1.0048828,0.11035156,0.03515625,0.03125,0.0625,-0.0625,0.0,0.0,0.0
1665675956411,-0.9921875,0.11035156,0.047851562,0.15625,-0.625,0.25,0.0,0.0,0.0
1665675956413,-0.9921875,0.11035156,0.047851562,0.15625,-0.625,0.25,0.0,0.0,0.0
1665675956451,-1.0039062,0.11230469,0.03515625,0.15625,-0.4375,-0.25,0.0,0.0,0.0
1665675956451,-1.0039062,0.11230469,0.03515625,0.15625,-0.4375,-0.25,0.0,0.0,0.0
1665675956491,-1.0019531,0.103515625,0.037109375,0.09375,-0.25,0.125,0.0,0.0,0.0
1665675956491,-1.0019531,0.103515625,0.037109375,0.09375,-0.25,0.125,0.0,0.0,0.0
1665675956530,-1.0019531,0.111328125,0.0546875,0.21875,-0.4375,-0.125,0.0,0.0,0.0
1665675956530,-1.0019531,0.111328125,0.0546875,0.21875,-0.4375,-0.125,0.0,0.0,0.0
1665675956570,-0.9941406,0.10449219,0.034179688,-0.03125,-0.625,-0.0625,0.0,0.0,0.0
1665675956570,-0.9941406,0.10449219,0.034179688,-0.03125,-0.625,-0.0625,0.0,0.0,0.0
1665675956612,-0.9970703,0.119140625,0.037109375,0.09375,-0.125,0.0625,0.0,0.0,0.0
1665675956612,-0.9970703,0.119140625,0.037109375,0.09375,-0.125,0.0625,0.0,0.0,0.0
1665675956650,-1.0048828,0.10839844,0.051757812,0.09375,-0.125,-0.0625,0.0,0.0,0.0
1665675956651,-1.0048828,0.10839844,0.051757812,0.09375,-0.125,-0.0625,0.0,0.0,0.0
1665675956689,-1.0029297,0.11035156,0.032226562,0.15625,-0.5625,0.0625,0.0,0.0,0.0
1665675956689,-1.0029297,0.11035156,0.032226562,0.15625,-0.5625,0.0625,0.0,0.0,0.0
1665675956730,-1.0019531,0.109375,0.046875,0.21875,-0.25,0.0625,-65.875,21.5,-143.875
1665675956730,-1.0019531,0.109375,0.046875,0.21875,-0.25,0.0625,-65.875,21.5,-143.875
1665675956771,-0.9980469,0.11230469,0.048828125,-0.03125,-0.5625,0.0625,0.0,0.0,0.0
1665675956771,-0.9980469,0.11230469,0.048828125,-0.03125,-0.5625,0.0625,0.0,0.0,0.0
1665675956810,-1.0029297,0.11035156,0.032226562,0.03125,-0.5,0.0625,0.0,0.0,0.0
1665675956810,-1.0029297,0.11035156,0.032226562,0.03125,-0.5,0.0625,0.0,0.0,0.0
1665675956851,-1.0,0.111328125,0.043945312,0.09375,-0.4375,-0.0625,0.0,0.0,0.0
1665675956850,-1.0,0.111328125,0.043945312,0.09375,-0.4375,-0.0625,0.0,0.0,0.0
1665675956892,-0.9941406,0.103515625,0.041015625,0.15625,-0.25,-0.1875,0.0,0.0,0.0
1665675956891,-0.9941406,0.103515625,0.041015625,0.15625,-0.25,-0.1875,0.0,0.0,0.0
1665675956930,-1.0,0.10644531,0.034179688,0.15625,-0.25,-0.0625,0.0,0.0,0.0
1665675956930,-1.0,0.10644531,0.034179688,0.15625,-0.25,-0.0625,0.0,0.0,0.0
1665675956972,-1.0019531,0.111328125,0.044921875,0.09375,-0.3125,-0.125,0.0,0.0,0.0
1665675956972,-1.0019531,0.111328125,0.044921875,0.09375,-0.3125,-0.125,0.0,0.0,0.0
1665675957010,-0.9980469,0.10253906,0.041015625,0.09375,-0.1875,0.0625,0.0,0.0,0.0
1665675957010,-0.9980469,0.10253906,0.041015625,0.09375,-0.1875,0.0625,0.0,0.0,0.0
1665675957050,-1.0039062,0.10839844,0.047851562,0.15625,-0.25,0.0,0.0,0.0,0.0
1665675957050,-1.0039062,0.10839844,0.047851562,0.15625,-0.25,0.0,0.0,0.0,0.0
1665675957110,-1.0087891,0.10839844,0.047851562,0.03125,-0.375,-0.1875,0.0,0.0,0.0
1665675957110,-1.0087891,0.10839844,0.047851562,0.03125,-0.375,-0.1875,0.0,0.0,0.0
1665675957130,-1.0039062,0.11035156,0.045898438,0.03125,-0.3125,-0.1875,0.0,0.0,0.0
1665675957130,-1.0039062,0.11035156,0.045898438,0.03125,-0.3125,-0.1875,0.0,0.0,0.0
1665675957171,-0.9941406,0.109375,0.048828125,0.03125,-0.375,-0.125,0.0,0.0,0.0
1665675957170,-0.9941406,0.109375,0.048828125,0.03125,-0.375,-0.125,0.0,0.0,0.0
1665675957210,-1.0,0.10644531,0.046875,-0.09375,-0.25,0.0,-65.6875,21.9375,-143.625
1665675957210,-1.0,0.10644531,0.046875,-0.09375,-0.25,0.0,-65.6875,21.9375,-143.625
1665675957253,-0.9980469,0.10839844,0.034179688,-0.15625,0.0625,-0.125,0.0,0.0,0.0
1665675957253,-0.9980469,0.10839844,0.034179688,-0.15625,0.0625,-0.125,0.0,0.0,0.0
1665675957292,-0.99902344,0.10449219,0.045898438,-0.03125,-0.5625,-0.25,0.0,0.0,0.0
1665675957292,-0.99902344,0.10449219,0.045898438,-0.03125,-0.5625,-0.25,0.0,0.0,0.0
1665675957331,-1.0009766,0.109375,0.037109375,-0.09375,-0.0625,0.0,0.0,0.0,0.0
1665675957331,-1.0009766,0.109375,0.037109375,-0.09375,-0.0625,0.0,0.0,0.0,0.0
1665675957372,-0.9902344,0.11328125,0.043945312,0.21875,-0.25,-0.0625,0.0,0.0,0.0
1665675957373,-0.9902344,0.11328125,0.043945312,0.21875,-0.25,-0.0625,0.0,0.0,0.0
1665675957414,-1.0068359,0.109375,0.038085938,0.03125,-0.375,-0.3125,0.0,0.0,0.0
1665675957414,-1.0068359,0.109375,0.038085938,0.03125,-0.375,-0.3125,0.0,0.0,0.0
1665675957450,-1.0019531,0.115234375,0.03515625,0.03125,-0.375,-0.375,0.0,0.0,0.0
1665675957450,-1.0019531,0.115234375,0.03515625,0.03125,-0.375,-0.375,0.0,0.0,0.0
1665675957490,-1.0,0.10839844,0.033203125,-0.15625,-0.25,-0.3125,0.0,0.0,0.0
1665675957490,-1.0,0.10839844,0.033203125,-0.15625,-0.25,-0.3125,0.0,0.0,0.0
1665675957533,-1.0058594,0.11621094,0.032226562,0.09375,-0.78125,-0.5,0.0,0.0,0.0
1665675957533,-1.0058594,0.11621094,0.032226562,0.09375,-0.78125,-0.5,0.0,0.0,0.0
1665675957572,-1.0,0.10058594,0.044921875,0.09375,-0.25,-0.4375,0.0,0.0,0.0
1665675957572,-1.0,0.10058594,0.044921875,0.09375,-0.25,-0.4375,0.0,0.0,0.0
1665675957610,-1.0039062,0.10253906,0.037109375,-0.15625,-0.1875,0.0,0.0,0.0,0.0
1665675957612,-1.0039062,0.10253906,0.037109375,-0.15625,-0.1875,0.0,0.0,0.0,0.0
1665675957653,-1.0068359,0.10839844,0.038085938,0.03125,-0.5,-0.25,0.0,0.0,0.0
1665675957653,-1.0068359,0.10839844,0.038085938,0.03125,-0.5,-0.25,0.0,0.0,0.0
1665675957690,-0.99902344,0.10449219,0.022460938,-0.03125,-0.1875,0.125,0.0,0.0,0.0
1665675957690,-0.99902344,0.10449219,0.022460938,-0.03125,-0.1875,0.125,0.0,0.0,0.0
1665675957731,-1.0029297,0.10058594,0.041992188,-0.03125,-0.3125,0.0,-66.625,20.0,-143.4375
1665675957731,-1.0029297,0.10058594,0.041992188,-0.03125,-0.3125,0.0,-66.625,20.0,-143.4375
1665675957770,-0.9980469,0.11035156,0.045898438,-0.15625,-0.4375,0.0,0.0,0.0,0.0
1665675957770,-0.9980469,0.11035156,0.045898438,-0.15625,-0.4375,0.0,0.0,0.0,0.0
1665675957811,-1.0058594,0.11035156,0.036132812,0.15625,-0.25,0.3125,0.0,0.0,0.0
1665675957811,-1.0058594,0.11035156,0.036132812,0.15625,-0.25,0.3125,0.0,0.0,0.0
1665675957850,-1.0048828,0.10546875,0.032226562,0.03125,0.125,0.125,0.0,0.0,0.0
1665675957850,-1.0048828,0.10546875,0.032226562,0.03125,0.125,0.125,0.0,0.0,0.0
1665675957892,-1.0,0.10644531,0.04296875,0.09375,0.0,0.125,0.0,0.0,0.0
1665675957892,-1.0,0.10644531,0.04296875,0.09375,0.0,0.125,0.0,0.0,0.0
1665675957931,-1.0039062,0.10546875,0.041015625,0.09375,0.0625,0.25,0.0,0.0,0.0
1665675957932,-1.0039062,0.10546875,0.041015625,0.09375,0.0625,0.25,0.0,0.0,0.0
1665675957971,-1.0029297,0.1171875,0.04296875,0.09375,-0.1875,0.125,0.0,0.0,0.0
1665675957971,-1.0029297,0.1171875,0.04296875,0.09375,-0.1875,0.125,0.0,0.0,0.0
1665675958013,-0.99121094,0.107421875,0.0390625,-0.09375,0.0625,-0.1875,0.0,0.0,0.0
1665675958012,-0.99121094,0.107421875,0.0390625,-0.09375,0.0625,-0.1875,0.0,0.0,0.0
1665675958051,-0.9980469,0.10839844,0.036132812,-0.28125,0.125,0.125,0.0,0.0,0.0
1665675958051,-0.9980469,0.10839844,0.036132812,-0.28125,0.125,0.125,0.0,0.0,0.0
1665675958090,-0.99902344,0.10644531,0.033203125,-0.21875,0.3125,-0.0625,0.0,0.0,0.0
1665675958090,-0.99902344,0.10644531,0.033203125,-0.21875,0.3125,-0.0625,0.0,0.0,0.0
1665675958130,-1.0,0.109375,0.049804688,-0.0625,-0.09375,0.0625,0.0,0.0,0.0
1665675958130,-1.0,0.109375,0.049804688,-0.0625,-0.09375,0.0625,0.0,0.0,0.0
1665675958171,-1.0117188,0.10546875,0.040039062,0.0,-0.09375,0.125,0.0,0.0,0.0
1665675958171,-1.0117188,0.10546875,0.040039062,0.0,-0.09375,0.125,0.0,0.0,0.0
1665675958214,-1.0058594,0.109375,0.026367188,0.0625,0.03125,0.125,-65.6875,22.375,-144.0625
1665675958213,-1.0058594,0.109375,0.026367188,0.0625,0.03125,0.125,-65.6875,22.375,-144.0625
1665675958253,-1.0019531,0.10546875,0.043945312,0.0,-0.15625,-0.0625,0.0,0.0,0.0
1665675958253,-1.0019531,0.10546875,0.043945312,0.0,-0.15625,-0.0625,0.0,0.0,0.0
1665675958290,-1.0029297,0.11328125,0.037109375,-0.0625,0.03125,0.0625,0.0,0.0,0.0
1665675958290,-1.0029297,0.11328125,0.037109375,-0.0625,0.03125,0.0625,0.0,0.0,0.0
1665675958330,-1.0039062,0.11621094,0.041015625,-0.125,0.375,0.125,0.0,0.0,0.0
1665675958330,-1.0039062,0.11621094,0.041015625,-0.125,0.375,0.125,0.0,0.0,0.0
1665675958373,-1.0058594,0.109375,0.033203125,0.0,0.15625,0.0625,0.0,0.0,0.0
1665675958373,-1.0058594,0.109375,0.033203125,0.0,0.15625,0.0625,0.0,0.0,0.0
1665675958410,-1.0078125,0.10546875,0.036132812,0.0625,0.09375,-0.125,0.0,0.0,0.0
1665675958410,-1.0078125,0.10546875,0.036132812,0.0625,0.09375,-0.125,0.0,0.0,0.0
1665675958451,-0.99121094,0.11035156,0.048828125,0.0,-0.21875,0.125,0.0,0.0,0.0
1665675958450,-0.99121094,0.11035156,0.048828125,0.0,-0.21875,0.125,0.0,0.0,0.0
1665675958491,-1.0078125,0.11035156,0.037109375,-0.0625,-0.15625,0.0625,0.0,0.0,0.0
1665675958491,-1.0078125,0.11035156,0.037109375,-0.0625,-0.15625,0.0625,0.0,0.0,0.0
1665675958531,-1.0009766,0.10449219,0.038085938,-0.0625,-0.09375,0.0,0.0,0.0,0.0
1665675958531,-1.0009766,0.10449219,0.038085938,-0.0625,-0.09375,0.0,0.0,0.0,0.0
1665675958569,-1.0039062,0.10546875,0.037109375,0.0,-0.34375,0.0625,0.0,0.0,0.0
1665675958569,-1.0039062,0.10546875,0.037109375,0.0,-0.34375,0.0625,0.0,0.0,0.0
1665675958610,-0.99316406,0.1015625,0.038085938,0.0625,0.09375,0.0625,0.0,0.0,0.0
1665675958610,-0.99316406,0.1015625,0.038085938,0.0625,0.09375,0.0625,0.0,0.0,0.0
1665675958651,-1.0039062,0.10546875,0.037109375,0.125,-0.03125,0.125,0.0,0.0,0.0
1665675958651,-1.0039062,0.10546875,0.037109375,0.125,-0.03125,0.125,0.0,0.0,0.0
1665675958691,-1.0058594,0.103515625,0.047851562,0.125,-0.03125,0.125,0.0,0.0,0.0
1665675958691,-1.0058594,0.103515625,0.047851562,0.125,-0.03125,0.125,0.0,0.0,0.0
1665675958731,-0.9941406,0.109375,0.051757812,0.0625,0.1875,0.0625,-64.8125,20.0,-142.375
1665675958731,-0.9941406,0.109375,0.051757812,0.0625,0.1875,0.0625,-64.8125,20.0,-142.375
1665675958770,-1.0,0.10253906,0.034179688,0.0,0.03125,-0.125,0.0,0.0,0.0
1665675958770,-1.0,0.10253906,0.034179688,0.0,0.03125,-0.125,0.0,0.0,0.0
1665675958810,-0.99121094,0.115234375,0.038085938,-0.0625,0.15625,-0.125,0.0,0.0,0.0
1665675958810,-0.99121094,0.115234375,0.038085938,-0.0625,0.15625,-0.125,0.0,0.0,0.0
1665675958850,-1.0078125,0.109375,0.041015625,-0.0625,-0.21875,0.125,0.0,0.0,0.0
1665675958850,-1.0078125,0.109375,0.041015625,-0.0625,-0.21875,0.125,0.0,0.0,0.0
1665675958891,-0.984375,0.10546875,0.041015625,-0.125,0.625,0.0625,0.0,0.0,0.0
1665675958893,-0.984375,0.10546875,0.041015625,-0.125,0.625,0.0625,0.0,0.0,0.0
1665675958933,-1.0048828,0.111328125,0.029296875,0.0,0.3125,0.1875,0.0,0.0,0.0
1665675958933,-1.0048828,0.111328125,0.029296875,0.0,0.3125,0.1875,0.0,0.0,0.0
1665675958969,-1.0048828,0.103515625,0.0390625,-0.125,-0.28125,-0.125,0.0,0.0,0.0
1665675958969,-1.0048828,0.103515625,0.0390625,-0.125,-0.28125,-0.125,0.0,0.0,0.0
1665675959011,-1.0087891,0.10644531,0.032226562,0.0625,-0.28125,0.125,0.0,0.0,0.0
1665675959011,-1.0087891,0.10644531,0.032226562,0.0625,-0.28125,0.125,0.0,0.0,0.0
1665675959050,-1.0068359,0.109375,0.030273438,0.0625,-0.03125,0.0625,0.0,0.0,0.0
1665675959051,-1.0068359,0.109375,0.030273438,0.0625,-0.03125,0.0625,0.0,0.0,0.0
1665675959091,-0.9980469,0.103515625,0.046875,0.0,-0.28125,-0.1875,0.0,0.0,0.0
1665675959091,-0.9980469,0.103515625,0.046875,0.0,-0.28125,-0.1875,0.0,0.0,0.0
1665675959135,-1.0,0.107421875,0.032226562,-0.125,0.03125,0.0,0.0,0.0,0.0
1665675959135,-1.0,0.107421875,0.032226562,-0.125,0.03125,0.0,0.0,0.0,0.0
1665675959171,-1.0029297,0.11035156,0.041992188,0.0625,0.09375,0.0,0.0,0.0,0.0
1665675959171,-1.0029297,0.11035156,0.041992188,0.0625,0.09375,0.0,0.0,0.0,0.0
1665675959210,-1.0107422,0.11621094,0.03125,-0.0625,0.09375,0.1875,-66.875,20.75,-144.9375
1665675959210,-1.0107422,0.11621094,0.03125,-0.0625,0.09375,0.1875,-66.875,20.75,-144.9375
1665675959251,-1.0048828,0.09863281,0.0390625,0.0625,-0.09375,0.0,0.0,0.0,0.0
1665675959251,-1.0048828,0.09863281,0.0390625,0.0625,-0.09375,0.0,0.0,0.0,0.0
1665675959289,-1.0097656,0.10839844,0.0390625,0.0625,-0.21875,0.125,0.0,0.0,0.0
1665675959289,-1.0097656,0.10839844,0.0390625,0.0625,-0.21875,0.125,0.0,0.0,0.0
1665675959330,-0.9951172,0.103515625,0.041015625,0.0625,-0.15625,0.1875,0.0,0.0,0.0
1665675959330,-0.9951172,0.103515625,0.041015625,0.0625,-0.15625,0.1875,0.0,0.0,0.0
1665675959370,-1.0039062,0.1015625,0.041992188,0.125,-0.28125,0.0625,0.0,0.0,0.0
1665675959370,-1.0039062,0.1015625,0.041992188,0.125,-0.28125,0.0625,0.0,0.0,0.0
1665675959410,-0.9970703,0.10253906,0.046875,0.0,-0.15625,0.25,0.0,0.0,0.0
1665675959411,-0.9970703,0.10253906,0.046875,0.0,-0.15625,0.25,0.0,0.0,0.0
1665675959452,-1.0039062,0.10644531,0.032226562,0.0625,-0.03125,0.125,0.0,0.0,0.0
1665675959452,-1.0039062,0.10644531,0.032226562,0.0625,-0.03125,0.125,0.0,0.0,0.0
1665675959512,-1.0039062,0.10839844,0.043945312,0.1875,-0.03125,0.0625,0.0,0.0,0.0
1665675959512,-1.0039062,0.10839844,0.043945312,0.1875,-0.03125,0.0625,0.0,0.0,0.0
1665675959531,-1.0019531,0.11035156,0.0390625,0.125,0.15625,0.25,0.0,0.0,0.0
1665675959531,-1.0019531,0.11035156,0.0390625,0.125,0.15625,0.25,0.0,0.0,0.0
1665675959572,-0.99316406,0.11230469,0.029296875,0.0,-0.21875,0.0,0.0,0.0,0.0
1665675959572,-0.99316406,0.11230469,0.029296875,0.0,-0.21875,0.0,0.0,0.0,0.0
1665675959615,-0.99902344,0.11328125,0.051757812,0.0,-0.34375,0.125,0.0,0.0,0.0
1665675959615,-0.99902344,0.11328125,0.051757812,0.0,-0.34375,0.125,0.0,0.0,0.0
1665675959652,-1.0009766,0.109375,0.030273438,-0.0625,-0.03125,0.1875,0.0,0.0,0.0
1665675959651,-1.0009766,0.109375,0.030273438,-0.0625,-0.03125,0.1875,0.0,0.0,0.0
1665675959690,-0.9941406,0.09375,0.038085938,-0.0625,-0.09375,0.1875,0.0,0.0,0.0
1665675959690,-0.9941406,0.09375,0.038085938,-0.0625,-0.09375,0.1875,0.0,0.0,0.0
1665675959771,-1.0048828,0.111328125,0.036132812,0.0,-0.34375,-0.0625,-65.5625,21.8125,-143.875
1665675959771,-1.0048828,0.111328125,0.036132812,0.0,-0.34375,-0.0625,-65.5625,21.8125,-143.875
1665675959773,-0.9980469,0.111328125,0.033203125,0.25,-0.28125,0.0625,0.0,0.0,0.0
1665675959773,-0.9980469,0.111328125,0.033203125,0.25,-0.28125,0.0625,0.0,0.0,0.0
1665675959812,-1.0058594,0.10449219,0.04296875,0.1875,-0.09375,0.1875,0.0,0.0,0.0
1665675959812,-1.0058594,0.10449219,0.04296875,0.1875,-0.09375,0.1875,0.0,0.0,0.0
1665675959851,-0.9941406,0.10253906,0.048828125,0.1875,-0.15625,-0.0625,0.0,0.0,0.0
1665675959853,-0.9941406,0.10253906,0.048828125,0.1875,-0.15625,-0.0625,0.0,0.0,0.0
1665675959890,-1.0,0.10644531,0.049804688,0.0625,-0.09375,0.0,0.0,0.0,0.0
1665675959890,-1.0,0.10644531,0.049804688,0.0625,-0.09375,0.0,0.0,0.0,0.0
1665675959930,-1.0,0.10644531,0.033203125,-0.125,0.09375,-0.0625,0.0,0.0,0.0
1665675959930,-1.0,0.10644531,0.033203125,-0.125,0.09375,-0.0625,0.0,0.0,0.0
1665675959971,-1.0019531,0.103515625,0.046875,0.25,-0.15625,0.125,0.0,0.0,0.0
1665675959971,-1.0019531,0.103515625,0.046875,0.25,-0.15625,0.125,0.0,0.0,0.0
1665675960012,-1.0048828,0.1015625,0.0546875,0.125,-0.46875,0.125,0.0,0.0,0.0
1665675960012,-1.0048828,0.1015625,0.0546875,0.125,-0.46875,0.125,0.0,0.0,0.0
1665675960051,-0.9951172,0.10839844,0.032226562,0.125,-0.21875,0.1875,0.0,0.0,0.0
1665675960051,-0.9951172,0.10839844,0.032226562,0.125,-0.21875,0.1875,0.0,0.0,0.0
1665675960092,-1.0,0.109375,0.037109375,0.125,-0.34375,0.25,0.0,0.0,0.0
1665675960092,-1.0,0.109375,0.037109375,0.125,-0.34375,0.25,0.0,0.0,0.0
1665675960131,-0.99609375,0.11035156,0.046875,0.0625,-0.28125,0.125,0.0,0.0,0.0
1665675960132,-0.99609375,0.11035156,0.046875,0.0625,-0.28125,0.125,0.0,0.0,0.0
1665675960192,-1.0019531,0.10839844,0.024414062,0.125,-0.03125,0.25,0.0,0.0,0.0
1665675960192,-1.0019531,0.10839844,0.024414062,0.125,-0.03125,0.25,0.0,0.0,0.0
1665675960210,-1.0019531,0.11035156,0.034179688,0.0625,-0.21875,0.0625,-67.1875,21.9375,-144.375
1665675960210,-1.0019531,0.11035156,0.034179688,0.0625,-0.21875,0.0625,-67.1875,21.9375,-144.375
1665675960251,-1.0039062,0.107421875,0.044921875,0.0625,-0.28125,0.125,0.0,0.0,0.0
1665675960251,-1.0039062,0.107421875,0.044921875,0.0625,-0.28125,0.125,0.0,0.0,0.0
1665675960291,-1.0058594,0.119140625,0.038085938,0.125,-0.15625,0.1875,0.0,0.0,0.0
1665675960290,-1.0058594,0.119140625,0.038085938,0.125,-0.15625,0.1875,0.0,0.0,0.0
1665675960329,-1.0029297,0.10644531,0.038085938,0.125,-0.40625,0.0625,0.0,0.0,0.0
1665675960329,-1.0029297,0.10644531,0.038085938,0.125,-0.40625,0.0625,0.0,0.0,0.0
1665675960371,-1.0087891,0.10253906,0.04296875,0.0625,-0.28125,0.0625,0.0,0.0,0.0
1665675960371,-1.0087891,0.10253906,0.04296875,0.0625,-0.28125,0.0625,0.0,0.0,0.0
1665675960410,-0.9980469,0.11425781,0.0390625,0.0,-0.34375,0.125,0.0,0.0,0.0
1665675960410,-0.9980469,0.11425781,0.0390625,0.0,-0.34375,0.125,0.0,0.0,0.0
1665675960450,-1.0087891,0.107421875,0.0390625,0.125,0.1875,-0.125,0.0,0.0,0.0
1665675960450,-1.0087891,0.107421875,0.0390625,0.125,0.1875,-0.125,0.0,0.0,0.0
1665675960491,-0.9941406,0.10644531,0.04296875,0.3125,-0.28125,-0.0625,0.0,0.0,0.0
1665675960491,-0.9941406,0.10644531,0.04296875,0.3125,-0.28125,-0.0625,0.0,0.0,0.0
1665675960530,-0.9951172,0.10546875,0.03125,0.1875,-0.40625,0.0625,0.0,0.0,0.0
1665675960530,-0.9951172,0.10546875,0.03125,0.1875,-0.40625,0.0625,0.0,0.0,0.0
1665675960570,-1.0029297,0.10839844,0.030273438,0.25,-0.21875,0.0,0.0,0.0,0.0
1665675960570,-1.0029297,0.10839844,0.030273438,0.25,-0.21875,0.0,0.0,0.0,0.0
1665675960612,-0.9980469,0.10449219,0.030273438,0.0625,-0.59375,0.125,0.0,0.0,0.0
1665675960612,-0.9980469,0.10449219,0.030273438,0.0625,-0.59375,0.125,0.0,0.0,0.0
1665675960652,-0.9902344,0.111328125,0.033203125,0.25,-0.46875,0.0,0.0,0.0,0.0
1665675960652,-0.9902344,0.111328125,0.033203125,0.25,-0.46875,0.0,0.0,0.0,0.0
1665675960693,-1.0097656,0.1015625,0.045898438,0.0625,0.15625,-0.0625,0.0,0.0,0.0
1665675960693,-1.0097656,0.1015625,0.045898438,0.0625,0.15625,-0.0625,0.0,0.0,0.0
1665675960730,-1.0009766,0.11035156,0.049804688,0.125,-0.15625,0.0625,-66.4375,21.9375,-143.0
1665675960730,-1.0009766,0.11035156,0.049804688,0.125,-0.15625,0.0625,-66.4375,21.9375,-143.0
1665675960769,-1.0,0.10839844,0.030273438,0.0625,-0.09375,0.03125,0.0,0.0,0.0
1665675960769,-1.0,0.10839844,0.030273438,0.0625,-0.09375,0.03125,0.0,0.0,0.0
1665675960809,-1.0019531,0.11035156,0.0390625,0.0,-0.03125,-0.09375,0.0,0.0,0.0
1665675960809,-1.0019531,0.11035156,0.0390625,0.0,-0.03125,-0.09375,0.0,0.0,0.0
1665675960850,-0.9951172,0.10839844,0.033203125,-0.125,0.09375,0.15625,0.0,0.0,0.0
1665675960850,-0.9951172,0.10839844,0.033203125,-0.125,0.09375,0.15625,0.0,0.0,0.0
1665675960890,-1.0029297,0.11816406,0.03515625,-0.125,0.09375,0.03125,0.0,0.0,0.0
1665675960890,-1.0029297,0.11816406,0.03515625,-0.125,0.09375,0.03125,0.0,0.0,0.0
1665675960930,-1.0,0.119140625,0.044921875,-0.0625,-0.03125,0.03125,0.0,0.0,0.0
1665675960930,-1.0,0.119140625,0.044921875,-0.0625,-0.03125,0.03125,0.0,0.0,0.0
1665675960970,-1.0048828,0.10253906,0.038085938,0.0625,0.03125,0.03125,0.0,0.0,0.0
1665675960970,-1.0048828,0.10253906,0.038085938,0.0625,0.03125,0.03125,0.0,0.0,0.0
1665675961010,-0.9892578,0.103515625,0.040039062,0.0,-0.15625,0.03125,0.0,0.0,0.0
1665675961010,-0.9892578,0.103515625,0.040039062,0.0,-0.15625,0.03125,0.0,0.0,0.0
1665675961051,-0.9951172,0.109375,0.034179688,0.0625,0.34375,-0.15625,0.0,0.0,0.0
1665675961053,-0.9951172,0.109375,0.034179688,0.0625,0.34375,-0.15625,0.0,0.0,0.0
1665675961090,-0.9941406,0.109375,0.03515625,-0.1875,-0.15625,-0.03125,0.0,0.0,0.0
1665675961090,-0.9941406,0.109375,0.03515625,-0.1875,-0.15625,-0.03125,0.0,0.0,0.0
1665675961131,-1.0,0.107421875,0.049804688,0.125,0.09375,-0.03125,0.0,0.0,0.0
1665675961131,-1.0,0.107421875,0.049804688,0.125,0.09375,-0.03125,0.0,0.0,0.0
1665675961171,-1.0058594,0.11425781,0.052734375,0.0,0.03125,-0.03125,0.0,0.0,0.0
1665675961171,-1.0058594,0.11425781,0.052734375,0.0,0.03125,-0.03125,0.0,0.0,0.0
1665675961210,-0.9941406,0.115234375,0.040039062,-0.25,-0.03125,-0.03125,-66.3125,21.0625,-144.1875
1665675961210,-0.9941406,0.115234375,0.040039062,-0.25,-0.03125,-0.03125,-66.3125,21.0625,-144.1875
1665675961251,-1.0009766,0.09863281,0.051757812,-0.125,-0.03125,-0.09375,0.0,0.0,0.0
1665675961250,-1.0009766,0.09863281,0.051757812,-0.125,-0.03125,-0.09375,0.0,0.0,0.0
1665675961291,-1.0029297,0.12011719,0.034179688,-0.1875,-0.09375,0.34375,0.0,0.0,0.0
1665675961291,-1.0029297,0.12011719,0.034179688,-0.1875,-0.09375,0.34375,0.0,0.0,0.0
1665675961333,-1.0029297,0.11328125,0.0390625,-0.125,0.03125,-0.15625,0.0,0.0,0.0
1665675961333,-1.0029297,0.11328125,0.0390625,-0.125,0.03125,-0.15625,0.0,0.0,0.0
1665675961370,-1.0058594,0.10839844,0.038085938,0.0,-0.15625,0.09375,0.0,0.0,0.0
1665675961372,-1.0058594,0.10839844,0.038085938,0.0,-0.15625,0.09375,0.0,0.0,0.0
1665675961431,-1.0048828,0.109375,0.041992188,0.0,-0.03125,-0.09375,0.0,0.0,0.0
1665675961430,-1.0048828,0.109375,0.041992188,0.0,-0.03125,-0.09375,0.0,0.0,0.0
1665675961451,-0.99316406,0.11230469,0.049804688,0.0,-0.15625,-0.09375,0.0,0.0,0.0
1665675961451,-0.99316406,0.11230469,0.049804688,0.0,-0.15625,-0.09375,0.0,0.0,0.0
1665675961490,-0.9941406,0.11425781,0.045898438,-0.125,0.09375,-0.15625,0.0,0.0,0.0
1665675961490,-0.9941406,0.11425781,0.045898438,-0.125,0.09375,-0.15625,0.0,0.0,0.0
1665675961534,-0.9970703,0.107421875,0.045898438,0.0,0.09375,-0.03125,0.0,0.0,0.0
1665675961536,-0.9970703,0.107421875,0.045898438,0.0,0.09375,-0.03125,0.0,0.0,0.0
1665675961571,-0.9970703,0.111328125,0.032226562,-0.125,-0.09375,-0.15625,0.0,0.0,0.0
1665675961571,-0.9970703,0.111328125,0.032226562,-0.125,-0.09375,-0.15625,0.0,0.0,0.0
1665675961610,-1.0058594,0.103515625,0.053710938,-0.0625,-0.03125,-0.09375,0.0,0.0,0.0
1665675961611,-1.0058594,0.103515625,0.053710938,-0.0625,-0.03125,-0.09375,0.0,0.0,0.0
1665675961670,-0.9980469,0.10644531,0.032226562,-0.125,-0.03125,-0.03125,0.0,0.0,0.0
1665675961671,-0.9980469,0.10644531,0.032226562,-0.125,-0.03125,-0.03125,0.0,0.0,0.0
1665675961692,-1.0009766,0.103515625,0.044921875,-0.125,0.09375,-0.03125,0.0,0.0,0.0
1665675961692,-1.0009766,0.103515625,0.044921875,-0.125,0.09375,-0.03125,0.0,0.0,0.0
1665675961730,-1.0058594,0.103515625,0.034179688,-0.0625,-0.03125,-0.09375,-66.3125,21.0625,-141.8125
1665675961730,-1.0058594,0.103515625,0.034179688,-0.0625,-0.03125,-0.09375,-66.3125,21.0625,-141.8125
1665675961772,-0.9980469,0.111328125,0.049804688,0.0,0.15625,0.15625,0.0,0.0,0.0
1665675961772,-0.9980469,0.111328125,0.049804688,0.0,0.15625,0.15625,0.0,0.0,0.0
1665675961810,-1.0048828,0.103515625,0.033203125,-0.125,0.09375,-0.09375,0.0,0.0,0.0
1665675961810,-1.0048828,0.103515625,0.033203125,-0.125,0.09375,-0.09375,0.0,0.0,0.0
1665675961854,-1.0039062,0.11230469,0.055664062,-0.0625,0.03125,-0.03125,0.0,0.0,0.0
1665675961854,-1.0039062,0.11230469,0.055664062,-0.0625,0.03125,-0.03125,0.0,0.0,0.0
1665675961890,-1.0019531,0.111328125,0.047851562,-0.0625,0.28125,0.03125,0.0,0.0,0.0
1665675961890,-1.0019531,0.111328125,0.047851562,-0.0625,0.28125,0.03125,0.0,0.0,0.0
1665675961930,-1.0019531,0.103515625,0.03515625,-0.0625,-0.28125,-0.03125,0.0,0.0,0.0
1665675961931,-1.0019531,0.103515625,0.03515625,-0.0625,-0.28125,-0.03125,0.0,0.0,0.0
1665675961970,-0.9951172,0.11425781,0.041992188,0.0,-0.09375,-0.21875,0.0,0.0,0.0
1665675961970,-0.9951172,0.11425781,0.041992188,0.0,-0.09375,-0.21875,0.0,0.0,0.0
1665675962010,-1.0019531,0.10839844,0.05078125,-0.125,0.09375,0.15625,0.0,0.0,0.0
1665675962012,-1.0019531,0.10839844,0.05078125,-0.125,0.09375,0.15625,0.0,0.0,0.0
1665675962050,-0.9941406,0.109375,0.04296875,-0.3125,0.34375,-0.34375,0.0,0.0,0.0
1665675962050,-0.9941406,0.109375,0.04296875,-0.3125,0.34375,-0.34375,0.0,0.0,0.0
1665675962090,-1.0058594,0.11230469,0.040039062,-0.125,-0.28125,0.21875,0.0,0.0,0.0
1665675962090,-1.0058594,0.11230469,0.040039062,-0.125,-0.28125,0.21875,0.0,0.0,0.0
1665675962131,-1.0097656,0.10253906,0.036132812,-0.1875,0.34375,-0.03125,0.0,0.0,0.0
1665675962131,-1.0097656,0.10253906,0.036132812,-0.1875,0.34375,-0.03125,0.0,0.0,0.0
1665675962172,-0.99316406,0.103515625,0.03515625,-0.1875,-0.03125,-0.03125,0.0,0.0,0.0
1665675962172,-0.99316406,0.103515625,0.03515625,-0.1875,-0.03125,-0.03125,0.0,0.0,0.0
1665675962210,-1.0087891,0.10839844,0.040039062,0.0625,0.46875,-0.21875,-67.1875,20.875,-145.375
1665675962210,-1.0087891,0.10839844,0.040039062,0.0625,0.46875,-0.21875,-67.1875,20.875,-145.375
1665675962250,-0.9980469,0.111328125,0.05078125,-0.1875,0.09375,-0.03125,0.0,0.0,0.0
1665675962250,-0.9980469,0.111328125,0.05078125,-0.1875,0.09375,-0.03125,0.0,0.0,0.0
1665675962292,-0.99902344,0.11621094,0.046875,-0.375,0.34375,-0.34375,0.0,0.0,0.0
1665675962292,-0.99902344,0.11621094,0.046875,-0.375,0.34375,-0.34375,0.0,0.0,0.0
1665675962330,-1.0,0.11621094,0.038085938,-0.0625,0.21875,-0.15625,0.0,0.0,0.0
1665675962329,-1.0,0.11621094,0.038085938,-0.0625,0.21875,-0.15625,0.0,0.0,0.0
1665675962372,-0.9980469,0.107421875,0.043945312,-0.0625,0.21875,-0.15625,0.0,0.0,0.0
1665675962371,-0.9980469,0.107421875,0.043945312,-0.0625,0.21875,-0.15625,0.0,0.0,0.0
1665675962410,-1.0117188,0.107421875,0.047851562,-0.125,0.40625,-0.09375,0.0,0.0,0.0
1665675962410,-1.0117188,0.107421875,0.047851562,-0.125,0.40625,-0.09375,0.0,0.0,0.0
1665675962450,-0.9970703,0.115234375,0.036132812,-0.125,-0.09375,0.09375,0.0,0.0,0.0
1665675962450,-0.9970703,0.115234375,0.036132812,-0.125,-0.09375,0.09375,0.0,0.0,0.0
1665675962490,-0.9980469,0.103515625,0.053710938,-0.3125,0.03125,0.03125,0.0,0.0,0.0
1665675962490,-0.9980469,0.103515625,0.053710938,-0.3125,0.03125,0.03125,0.0,0.0,0.0
1665675962531,-1.0068359,0.11328125,0.055664062,-0.1875,0.46875,0.15625,0.0,0.0,0.0
1665675962530,-1.0068359,0.11328125,0.055664062,-0.1875,0.46875,0.15625,0.0,0.0,0.0
1665675962570,-0.99902344,0.10546875,0.049804688,-0.25,0.21875,-0.09375,0.0,0.0,0.0
1665675962570,-0.99902344,0.10546875,0.049804688,-0.25,0.21875,-0.09375,0.0,0.0,0.0
1665675962611,-1.0019531,0.111328125,0.038085938,-0.0625,0.28125,-0.09375,0.0,0.0,0.0
1665675962611,-1.0019531,0.111328125,0.038085938,-0.0625,0.28125,-0.09375,0.0,0.0,0.0
1665675962650,-0.9941406,0.11035156,0.048828125,-0.1875,0.34375,-0.09375,0.0,0.0,0.0
1665675962650,-0.9941406,0.11035156,0.048828125,-0.1875,0.34375,-0.09375,0.0,0.0,0.0
1665675962689,-1.0,0.10449219,0.036132812,-0.1875,0.28125,-0.15625,0.0,0.0,0.0
1665675962689,-1.0,0.10449219,0.036132812,-0.1875,0.28125,-0.15625,0.0,0.0,0.0
1665675962731,-0.99902344,0.103515625,0.045898438,-0.25,0.40625,-0.09375,-65.6875,21.1875,-145.125
1665675962731,-0.99902344,0.103515625,0.045898438,-0.25,0.40625,-0.09375,-65.6875,21.1875,-145.125
1665675962770,-1.0087891,0.10449219,0.047851562,-0.3125,0.59375,-0.21875,0.0,0.0,0.0
1665675962770,-1.0087891,0.10449219,0.047851562,-0.3125,0.59375,-0.21875,0.0,0.0,0.0
1665675962811,-1.0019531,0.111328125,0.0390625,-0.125,0.28125,-0.28125,0.0,0.0,0.0
1665675962811,-1.0019531,0.111328125,0.0390625,-0.125,0.28125,-0.28125,0.0,0.0,0.0
1665675962850,-1.0029297,0.10644531,0.041015625,-0.0625,0.28125,-0.21875,0.0,0.0,0.0
1665675962850,-1.0029297,0.10644531,0.041015625,-0.0625,0.28125,-0.21875,0.0,0.0,0.0
1665675962892,-1.0087891,0.10449219,0.03515625,-0.375,0.59375,-0.09375,0.0,0.0,0.0
1665675962892,-1.0087891,0.10449219,0.03515625,-0.375,0.59375,-0.09375,0.0,0.0,0.0
1665675962929,-0.9980469,0.10644531,0.036132812,-0.3125,0.59375,-0.09375,0.0,0.0,0.0
1665675962929,-0.9980469,0.10644531,0.036132812,-0.3125,0.59375,-0.09375,0.0,0.0,0.0
1665675962969,-1.0019531,0.11425781,0.036132812,-0.125,0.28125,-0.09375,0.0,0.0,0.0
1665675962969,-1.0019531,0.11425781,0.036132812,-0.125,0.28125,-0.09375,0.0,0.0,0.0
1665675963009,-1.0087891,0.115234375,0.041992188,-0.5,0.53125,-0.09375,0.0,0.0,0.0
1665675963010,-1.0087891,0.115234375,0.041992188,-0.5,0.53125,-0.09375,0.0,0.0,0.0
1665675963052,-0.99121094,0.10253906,0.043945312,-0.125,0.34375,-0.09375,0.0,0.0,0.0
1665675963052,-0.99121094,0.10253906,0.043945312,-0.125,0.34375,-0.09375,0.0,0.0,0.0
1665675963090,-1.0009766,0.11035156,0.021484375,-0.125,0.34375,-0.34375,0.0,0.0,0.0
1665675963090,-1.0009766,0.11035156,0.021484375,-0.125,0.34375,-0.34375,0.0,0.0,0.0
1665675963130,-0.9951172,0.10546875,0.03125,-0.25,0.15625,-0.09375,0.0,0.0,0.0
1665675963130,-0.9951172,0.10546875,0.03125,-0.25,0.15625,-0.09375,0.0,0.0,0.0
1665675963171,-1.0009766,0.107421875,0.043945312,-0.4375,0.71875,-0.21875,0.0,0.0,0.0
1665675963171,-1.0009766,0.107421875,0.043945312,-0.4375,0.71875,-0.21875,0.0,0.0,0.0
1665675963212,-1.0039062,0.10546875,0.045898438,-0.25,0.09375,-0.09375,-65.875,22.0625,-144.5
1665675963212,-1.0039062,0.10546875,0.045898438,-0.25,0.09375,-0.09375,-65.875,22.0625,-144.5
1665675963270,-1.0,0.109375,0.04296875,-0.1875,0.28125,-0.15625,0.0,0.0,0.0
1665675963270,-1.0,0.109375,0.04296875,-0.1875,0.28125,-0.15625,0.0,0.0,0.0
1665675963290,-0.98828125,0.103515625,0.047851562,-0.125,0.21875,-0.15625,0.0,0.0,0.0
1665675963290,-0.98828125,0.103515625,0.047851562,-0.125,0.21875,-0.15625,0.0,0.0,0.0
1665675963329,-1.0,0.10839844,0.037109375,-0.25,0.28125,-0.15625,0.0,0.0,0.0
1665675963329,-1.0,0.10839844,0.037109375,-0.25,0.28125,-0.15625,0.0,0.0,0.0
1665675963371,-1.0019531,0.11328125,0.033203125,-0.25,0.34375,-0.03125,0.0,0.0,0.0
1665675963371,-1.0019531,0.11328125,0.033203125,-0.25,0.34375,-0.03125,0.0,0.0,0.0
1665675963410,-1.0029297,0.1015625,0.04296875,-0.3125,0.53125,-0.03125,0.0,0.0,0.0
1665675963410,-1.0029297,0.1015625,0.04296875,-0.3125,0.53125,-0.03125,0.0,0.0,0.0
1665675963451,-1.0087891,0.107421875,0.032226562,-0.0625,0.40625,0.03125,0.0,0.0,0.0
1665675963451,-1.0087891,0.107421875,0.032226562,-0.0625,0.40625,0.03125,0.0,0.0,0.0
1665675963491,-0.9873047,0.11035156,0.049804688,-0.125,0.46875,0.03125,0.0,0.0,0.0
1665675963491,-0.9873047,0.11035156,0.049804688,-0.125,0.46875,0.03125,0.0,0.0,0.0
1665675963530,-1.0009766,0.111328125,0.038085938,-0.125,0.59375,0.09375,0.0,0.0,0.0
1665675963530,-1.0009766,0.111328125,0.038085938,-0.125,0.59375,0.09375,0.0,0.0,0.0
1665675963570,-1.0,0.10449219,0.03125,-0.1875,0.15625,-0.03125,0.0,0.0,0.0
1665675963570,-1.0,0.10449219,0.03125,-0.1875,0.15625,-0.03125,0.0,0.0,0.0
1665675963611,-0.9970703,0.109375,0.0625,-0.125,0.28125,0.09375,0.0,0.0,0.0
1665675963611,-0.9970703,0.109375,0.0625,-0.125,0.28125,0.09375,0.0,0.0,0.0
1665675963650,-1.0097656,0.10839844,0.049804688,-0.0625,0.21875,-0.09375,0.0,0.0,0.0
1665675963650,-1.0097656,0.10839844,0.049804688,-0.0625,0.21875,-0.09375,0.0,0.0,0.0
1665675963691,-1.0058594,0.107421875,0.0390625,-0.0625,0.21875,-0.03125,0.0,0.0,0.0
1665675963691,-1.0058594,0.107421875,0.0390625,-0.0625,0.21875,-0.03125,0.0,0.0,0.0
1665675963731,-1.0009766,0.11621094,0.047851562,-0.125,0.34375,0.03125,-67.8125,20.875,-143.0
1665675963731,-1.0009766,0.11621094,0.047851562,-0.125,0.34375,0.03125,-67.8125,20.875,-143.0
1665675963770,-1.0,0.10839844,0.03125,-0.25,0.875,-0.15625,0.0,0.0,0.0
1665675963770,-1.0,0.10839844,0.03125,-0.25,0.875,-0.15625,0.0,0.0,0.0
1665675963812,-1.0029297,0.10839844,0.028320312,-0.1875,0.03125,-0.09375,0.0,0.0,0.0
1665675963812,-1.0029297,0.10839844,0.028320312,-0.1875,0.03125,-0.09375,0.0,0.0,0.0
1665675963852,-1.0048828,0.115234375,0.0146484375,-0.1875,0.40625,-0.15625,0.0,0.0,0.0
1665675963852,-1.0048828,0.115234375,0.0146484375,-0.1875,0.40625,-0.15625,0.0,0.0,0.0
1665675963890,-1.0087891,0.10449219,0.033203125,-0.125,0.09375,0.03125,0.0,0.0,0.0
1665675963890,-1.0087891,0.10449219,0.033203125,-0.125,0.09375,0.03125,0.0,0.0,0.0
1665675963932,-0.9951172,0.10839844,0.046875,-0.125,0.21875,-0.21875,0.0,0.0,0.0
1665675963932,-0.9951172,0.10839844,0.046875,-0.125,0.21875,-0.21875,0.0,0.0,0.0
1665675963970,-1.0019531,0.10839844,0.043945312,-0.125,0.15625,-0.03125,0.0,0.0,0.0
1665675963970,-1.0019531,0.10839844,0.043945312,-0.125,0.15625,-0.03125,0.0,0.0,0.0
1665675964050,-1.0058594,0.10839844,0.03125,-0.25,0.53125,-0.09375,0.0,0.0,0.0
1665675964050,-1.0058594,0.10839844,0.03125,-0.25,0.53125,-0.09375,0.0,0.0,0.0
1665675964051,-1.0,0.10449219,0.041992188,-0.0625,0.15625,-0.21875,0.0,0.0,0.0
1665675964051,-1.0,0.10449219,0.041992188,-0.0625,0.15625,-0.21875,0.0,0.0,0.0
1665675964091,-1.0029297,0.10546875,0.038085938,-0.1875,0.28125,0.03125,0.0,0.0,0.0
1665675964091,-1.0029297,0.10546875,0.038085938,-0.1875,0.28125,0.03125,0.0,0.0,0.0
1665675964132,-0.9970703,0.10644531,0.036132812,-0.125,0.15625,-0.15625,0.0,0.0,0.0
1665675964132,-0.9970703,0.10644531,0.036132812,-0.125,0.15625,-0.15625,0.0,0.0,0.0
1665675964171,-1.0048828,0.11816406,0.043945312,-0.125,0.03125,-0.15625,0.0,0.0,0.0
1665675964171,-1.0048828,0.11816406,0.043945312,-0.125,0.03125,-0.15625,0.0,0.0,0.0
1665675964210,-0.9980469,0.111328125,0.052734375,-0.1875,0.21875,0.03125,-66.3125,20.3125,-144.9375
1665675964212,-0.9980469,0.111328125,0.052734375,-0.1875,0.21875,0.03125,-66.3125,20.3125,-144.9375
1665675964250,-1.0009766,0.11621094,0.033203125,-0.1875,0.28125,0.15625,0.0,0.0,0.0
1665675964250,-1.0009766,0.11621094,0.033203125,-0.1875,0.28125,0.15625,0.0,0.0,0.0
1665675964291,-1.0078125,0.09765625,0.041992188,-0.0625,0.15625,-0.03125,0.0,0.0,0.0
1665675964290,-1.0078125,0.09765625,0.041992188,-0.0625,0.15625,-0.03125,0.0,0.0,0.0
1665675964329,-1.0,0.11230469,0.038085938,0.0,0.40625,0.09375,0.0,0.0,0.0
1665675964329,-1.0,0.11230469,0.038085938,0.0,0.40625,0.09375,0.0,0.0,0.0
1665675964373,-1.0019531,0.10839844,0.038085938,0.125,0.09375,0.15625,0.0,0.0,0.0
1665675964373,-1.0019531,0.10839844,0.038085938,0.125,0.09375,0.15625,0.0,0.0,0.0
1665675964411,-1.0039062,0.10449219,0.041015625,-0.0625,0.09375,0.09375,0.0,0.0,0.0
1665675964411,-1.0039062,0.10449219,0.041015625,-0.0625,0.09375,0.09375,0.0,0.0,0.0
1665675964452,-0.9970703,0.10546875,0.026367188,-0.0625,0.15625,-0.03125,0.0,0.0,0.0
1665675964452,-0.9970703,0.10546875,0.026367188,-0.0625,0.15625,-0.03125,0.0,0.0,0.0
1665675964491,-1.015625,0.11035156,0.047851562,-0.125,-0.15625,-0.09375,0.0,0.0,0.0
1665675964492,-1.015625,0.11035156,0.047851562,-0.125,-0.15625,-0.09375,0.0,0.0,0.0
1665675964531,-1.0068359,0.111328125,0.038085938,-0.3125,-0.21875,0.09375,0.0,0.0,0.0
1665675964531,-1.0068359,0.111328125,0.038085938,-0.3125,-0.21875,0.09375,0.0,0.0,0.0
1665675964570,-1.0087891,0.11035156,0.040039062,0.0,0.28125,0.03125,0.0,0.0,0.0
1665675964570,-1.0087891,0.11035156,0.040039062,0.0,0.28125,0.03125,0.0,0.0,0.0
1665675964611,-0.9902344,0.10449219,0.030273438,-0.125,0.40625,-0.03125,0.0,0.0,0.0
1665675964611,-0.9902344,0.10449219,0.030273438,-0.125,0.40625,-0.03125,0.0,0.0,0.0
1665675964651,-0.99316406,0.10644531,0.032226562,0.0,-0.15625,-0.15625,0.0,0.0,0.0
1665675964651,-0.99316406,0.10644531,0.032226562,0.0,-0.15625,-0.15625,0.0,0.0,0.0
1665675964690,-1.0097656,0.109375,0.026367188,-0.03125,-0.3125,-0.09375,0.0,0.0,0.0
1665675964690,-1.0097656,0.109375,0.026367188,-0.03125,-0.3125,-0.09375,0.0,0.0,0.0
1665675964732,-0.9970703,0.109375,0.040039062,0.03125,-0.15625,-0.09375,-65.375,21.1875,-144.625
1665675964732,-0.9970703,0.109375,0.040039062,0.03125,-0.15625,-0.09375,-65.375,21.1875,-144.625
1665675964791,-1.0068359,0.11230469,0.041015625,-0.03125,-0.4375,0.03125,0.0,0.0,0.0
1665675964791,-1.0068359,0.11230469,0.041015625,-0.03125,-0.4375,0.03125,0.0,0.0,0.0
1665675964850,-0.9980469,0.10449219,0.032226562,0.09375,-0.3125,-0.09375,0.0,0.0,0.0
1665675964850,-0.9980469,0.10449219,0.032226562,0.09375,-0.3125,-0.09375,0.0,0.0,0.0
1665675964854,-0.99902344,0.11425781,0.041015625,0.03125,-0.03125,-0.09375,0.0,0.0,0.0
1665675964856,-0.99902344,0.11425781,0.041015625,0.03125,-0.03125,-0.09375,0.0,0.0,0.0
1665675964891,-1.0039062,0.111328125,0.041992188,0.09375,-0.1875,0.03125,0.0,0.0,0.0
1665675964891,-1.0039062,0.111328125,0.041992188,0.09375,-0.1875,0.03125,0.0,0.0,0.0
1665675964930,-0.99609375,0.107421875,0.0390625,-0.03125,-0.1875,-0.03125,0.0,0.0,0.0
1665675964930,-0.99609375,0.107421875,0.0390625,-0.03125,-0.1875,-0.03125,0.0,0.0,0.0
1665675964970,-1.0078125,0.107421875,0.029296875,0.15625,-0.375,-0.03125,0.0,0.0,0.0
1665675964970,-1.0078125,0.107421875,0.029296875,0.15625,-0.375,-0.03125,0.0,0.0,0.0
1665675965012,-1.0029297,0.10253906,0.045898438,-0.03125,-0.375,-0.15625,0.0,0.0,0.0
1665675965012,-1.0029297,0.10253906,0.045898438,-0.03125,-0.375,-0.15625,0.0,0.0,0.0
1665675965062,-1.0029297,0.111328125,0.040039062,0.09375,-0.1875,-0.09375,0.0,0.0,0.0
1665675965062,-1.0029297,0.111328125,0.040039062,0.09375,-0.1875,-0.09375,0.0,0.0,0.0
1665675965089,-1.0009766,0.10839844,0.04296875,0.15625,-0.15625,-0.09375,0.0,0.0,0.0
1665675965089,-1.0009766,0.10839844,0.04296875,0.15625,-0.15625,-0.09375,0.0,0.0,0.0
1665675965153,-1.0087891,0.10839844,0.038085938,0.03125,-0.1875,-0.09375,0.0,0.0,0.0
1665675965153,-1.0087891,0.10839844,0.038085938,0.03125,-0.1875,-0.09375,0.0,0.0,0.0
1665675965171,-1.0039062,0.10449219,0.037109375,-0.03125,-0.25,0.03125,0.0,0.0,0.0
1665675965171,-1.0039062,0.10449219,0.037109375,-0.03125,-0.25,0.03125,0.0,0.0,0.0
1665675965231,-1.0126953,0.11035156,0.038085938,-0.09375,-0.3125,-0.03125,-67.1875,20.5625,-144.625
1665675965231,-1.0126953,0.11035156,0.038085938,-0.09375,-0.3125,-0.03125,-67.1875,20.5625,-144.625
1665675965251,-1.0029297,0.111328125,0.032226562,-0.03125,-0.1875,-0.09375,0.0,0.0,0.0
1665675965251,-1.0029297,0.111328125,0.032226562,-0.03125,-0.1875,-0.09375,0.0,0.0,0.0
1665675965289,-1.0019531,0.103515625,0.043945312,-0.03125,-0.1875,0.03125,0.0,0.0,0.0
1665675965289,-1.0019531,0.103515625,0.043945312,-0.03125,-0.1875,0.03125,0.0,0.0,0.0
1665675965336,-1.0009766,0.111328125,0.043945312,0.09375,-0.25,-0.09375,0.0,0.0,0.0
1665675965336,-1.0009766,0.111328125,0.043945312,0.09375,-0.25,-0.09375,0.0,0.0,0.0
1665675965491,-0.99902344,0.11035156,0.0390625,-0.03125,-0.3125,-0.03125,0.0,0.0,0.0
1665675965490,-0.99902344,0.11035156,0.0390625,-0.03125,-0.3125,-0.03125,0.0,0.0,0.0
1665675965510,-1.0107422,0.10253906,0.051757812,-0.03125,-0.3125,-0.09375,0.0,0.0,0.0
1665675965511,-1.0107422,0.10253906,0.051757812,-0.03125,-0.3125,-0.09375,0.0,0.0,0.0
1665675965513,-1.0019531,0.10253906,0.052734375,-0.09375,0.03125,-0.15625,0.0,0.0,0.0
1665675965513,-1.0019531,0.10253906,0.052734375,-0.09375,0.03125,-0.15625,0.0,0.0,0.0
1665675965514,-1.0029297,0.107421875,0.038085938,0.03125,-0.4375,-0.03125,0.0,0.0,0.0
1665675965516,-1.0029297,0.107421875,0.038085938,0.03125,-0.4375,-0.03125,0.0,0.0,0.0
1665675965530,-1.0029297,0.09863281,0.041992188,-0.03125,-0.3125,-0.1875,0.0,0.0,0.0
1665675965530,-1.0029297,0.09863281,0.041992188,-0.03125,-0.3125,-0.1875,0.0,0.0,0.0
1665675965674,-1.0019531,0.11230469,0.040039062,-0.03125,-0.25,-0.03125,0.0,0.0,0.0
1665675965674,-1.0019531,0.11230469,0.040039062,-0.03125,-0.25,-0.03125,0.0,0.0,0.0
1665675965676,-1.0039062,0.11035156,0.04296875,-0.03125,-0.3125,-0.09375,0.0,0.0,0.0
1665675965677,-1.0039062,0.11035156,0.04296875,-0.03125,-0.3125,-0.09375,0.0,0.0,0.0
1665675965678,-1.0107422,0.11230469,0.048828125,0.03125,-0.3125,-0.09375,0.0,0.0,0.0
1665675965679,-1.0107422,0.11230469,0.048828125,0.03125,-0.3125,-0.09375,0.0,0.0,0.0
1665675965689,-1.0029297,0.109375,0.038085938,-0.09375,-0.03125,0.03125,0.0,0.0,0.0
1665675965689,-1.0029297,0.109375,0.038085938,-0.09375,-0.03125,0.03125,0.0,0.0,0.0
1665675965730,-1.0009766,0.119140625,0.044921875,0.09375,-0.03125,-0.09375,-66.3125,21.0625,-144.1875
1665675965730,-1.0009766,0.119140625,0.044921875,0.09375,-0.03125,-0.09375,-66.3125,21.0625,-144.1875
1665675965770,-1.0029297,0.10839844,0.044921875,0.03125,-0.3125,0.03125,0.0,0.0,0.0
1665675965770,-1.0029297,0.10839844,0.044921875,0.03125,-0.3125,0.03125,0.0,0.0,0.0
1665675965809,-1.0029297,0.10449219,0.033203125,-0.03125,-0.15625,0.03125,0.0,0.0,0.0
1665675965810,-1.0029297,0.10449219,0.033203125,-0.03125,-0.15625,0.03125,0.0,0.0,0.0
1665675965849,-0.9970703,0.10644531,0.044921875,-0.03125,-0.3125,-0.09375,0.0,0.0,0.0
1665675965850,-0.9970703,0.10644531,0.044921875,-0.03125,-0.3125,-0.09375,0.0,0.0,0.0
1665675965889,-1.0039062,0.11328125,0.032226562,0.03125,-0.1875,-0.15625,0.0,0.0,0.0
1665675965890,-1.0039062,0.11328125,0.032226562,0.03125,-0.1875,-0.15625,0.0,0.0,0.0
1665675965929,-0.99902344,0.11035156,0.044921875,-0.03125,-0.15625,-0.09375,0.0,0.0,0.0
1665675965929,-0.99902344,0.11035156,0.044921875,-0.03125,-0.15625,-0.09375,0.0,0.0,0.0
1665675966010,-1.0068359,0.10839844,0.029296875,0.21875,-0.09375,-0.15625,0.0,0.0,0.0
1665675966010,-1.0068359,0.10839844,0.029296875,0.21875,-0.09375,-0.15625,0.0,0.0,0.0
1665675966012,-0.9921875,0.10253906,0.037109375,0.09375,-0.25,-0.09375,0.0,0.0,0.0
1665675966012,-0.9921875,0.10253906,0.037109375,0.09375,-0.25,-0.09375,0.0,0.0,0.0
1665675966053,-0.9980469,0.11230469,0.028320312,0.03125,0.03125,-0.03125,0.0,0.0,0.0
1665675966053,-0.9980469,0.11230469,0.028320312,0.03125,0.03125,-0.03125,0.0,0.0,0.0
1665675966091,-1.0097656,0.10839844,0.047851562,-0.03125,-0.25,-0.09375,0.0,0.0,0.0
1665675966091,-1.0097656,0.10839844,0.047851562,-0.03125,-0.25,-0.09375,0.0,0.0,0.0
1665675966129,-1.0087891,0.10449219,0.045898438,0.03125,0.03125,-0.09375,0.0,0.0,0.0
1665675966129,-1.0087891,0.10449219,0.045898438,0.03125,0.03125,-0.09375,0.0,0.0,0.0
1665675966210,-0.9951172,0.109375,0.0390625,-0.03125,-0.375,0.03125,-65.875,21.5,-144.1875
1665675966210,-0.9951172,0.109375,0.0390625,-0.03125,-0.375,0.03125,-65.875,21.5,-144.1875
1665675966213,-1.0039062,0.09375,0.047851562,-0.03125,-0.1875,-0.15625,0.0,0.0,0.0
1665675966213,-1.0039062,0.09375,0.047851562,-0.03125,-0.1875,-0.15625,0.0,0.0,0.0
1665675966291,-1.0,0.107421875,0.0390625,-0.15625,0.34375,0.09375,0.0,0.0,0.0
1665675966291,-1.0,0.107421875,0.0390625,-0.15625,0.34375,0.09375,0.0,0.0,0.0
1665675966293,-0.9980469,0.109375,0.0390625,0.03125,0.03125,-0.1875,0.0,0.0,0.0
1665675966293,-0.9980469,0.109375,0.0390625,0.03125,0.03125,-0.1875,0.0,0.0,0.0
1665675966491,-1.0078125,0.109375,0.047851562,-0.03125,-0.25,-0.03125,0.0,0.0,0.0
1665675966491,-1.0078125,0.109375,0.047851562,-0.03125,-0.25,-0.03125,0.0,0.0,0.0
1665675966494,-1.0058594,0.11035156,0.045898438,0.15625,0.21875,-0.15625,0.0,0.0,0.0
1665675966494,-1.0058594,0.11035156,0.045898438,0.15625,0.21875,-0.15625,0.0,0.0,0.0
1665675966496,-0.9980469,0.119140625,0.045898438,-0.09375,0.03125,0.09375,0.0,0.0,0.0
1665675966497,-0.9980469,0.119140625,0.045898438,-0.09375,0.03125,0.09375,0.0,0.0,0.0
1665675966498,-0.9980469,0.10644531,0.048828125,0.03125,-0.09375,-0.15625,0.0,0.0,0.0
1665675966499,-0.9980469,0.10644531,0.048828125,0.03125,-0.09375,-0.15625,0.0,0.0,0.0
1665675966500,-0.99902344,0.107421875,0.02734375,-0.03125,-0.15625,-0.03125,0.0,0.0,0.0
1665675966499,-0.99902344,0.107421875,0.02734375,-0.03125,-0.15625,-0.03125,0.0,0.0,0.0
1665675966530,-0.9951172,0.10644531,0.03515625,-0.15625,0.15625,-0.09375,0.0,0.0,0.0
1665675966530,-0.9951172,0.10644531,0.03515625,-0.15625,0.15625,-0.09375,0.0,0.0,0.0
1665675966570,-1.0019531,0.11035156,0.04296875,-0.03125,-0.4375,-0.09375,0.0,0.0,0.0
1665675966570,-1.0019531,0.11035156,0.04296875,-0.03125,-0.4375,-0.09375,0.0,0.0,0.0
1665675966611,-1.0019531,0.107421875,0.044921875,-0.03125,-0.1875,-0.1875,0.0,0.0,0.0
1665675966611,-1.0019531,0.107421875,0.044921875,-0.03125,-0.1875,-0.1875,0.0,0.0,0.0
1665675966650,-1.0048828,0.111328125,0.053710938,-0.15625,-0.09375,0.03125,0.0,0.0,0.0
1665675966650,-1.0048828,0.111328125,0.053710938,-0.15625,-0.09375,0.03125,0.0,0.0,0.0
1665675966695,-1.0019531,0.109375,0.030273438,-0.15625,-0.1875,-0.15625,0.0,0.0,0.0
1665675966695,-1.0019531,0.109375,0.030273438,-0.15625,-0.1875,-0.15625,0.0,0.0,0.0
1665675966730,-1.0029297,0.10253906,0.047851562,-0.09375,0.09375,-0.03125,-67.8125,21.9375,-144.375
1665675966730,-1.0029297,0.10253906,0.047851562,-0.09375,0.09375,-0.03125,-67.8125,21.9375,-144.375
1665675966772,-1.0068359,0.125,0.041992188,-0.09375,0.09375,-0.25,0.0,0.0,0.0
1665675966772,-1.0068359,0.125,0.041992188,-0.09375,0.09375,-0.25,0.0,0.0,0.0
1665675966810,-1.0009766,0.10644531,0.048828125,-0.28125,0.09375,0.03125,0.0,0.0,0.0
1665675966810,-1.0009766,0.10644531,0.048828125,-0.28125,0.09375,0.03125,0.0,0.0,0.0
1665675966851,-1.0048828,0.10644531,0.051757812,-0.15625,-0.03125,-0.15625,0.0,0.0,0.0
1665675966851,-1.0048828,0.10644531,0.051757812,-0.15625,-0.03125,-0.15625,0.0,0.0,0.0
1665675966891,-1.0048828,0.11425781,0.0390625,-0.09375,0.15625,-0.15625,0.0,0.0,0.0
1665675966891,-1.0048828,0.11425781,0.0390625,-0.09375,0.15625,-0.15625,0.0,0.0,0.0
1665675966932,-0.99902344,0.115234375,0.04296875,0.03125,0.03125,0.09375,0.0,0.0,0.0
1665675966932,-0.99902344,0.115234375,0.04296875,0.03125,0.03125,0.09375,0.0,0.0,0.0
1665675966973,-0.9941406,0.10839844,0.0390625,0.03125,-0.3125,0.03125,0.0,0.0,0.0
1665675966973,-0.9941406,0.10839844,0.0390625,0.03125,-0.3125,0.03125,0.0,0.0,0.0
1665675967011,-1.0126953,0.10839844,0.068359375,-0.09375,-0.1875,0.15625,0.0,0.0,0.0
1665675967011,-1.0126953,0.10839844,0.068359375,-0.09375,-0.1875,0.15625,0.0,0.0,0.0
1665675967050,-0.99902344,0.1015625,0.046875,-0.375,0.46875,-0.03125,0.0,0.0,0.0
1665675967050,-0.99902344,0.1015625,0.046875,-0.375,0.46875,-0.03125,0.0,0.0,0.0
1665675967090,-0.99902344,0.10449219,0.036132812,-0.09375,0.09375,-0.15625,0.0,0.0,0.0
1665675967090,-0.99902344,0.10449219,0.036132812,-0.09375,0.09375,-0.15625,0.0,0.0,0.0
1665675967130,-0.99316406,0.111328125,0.040039062,-0.34375,0.21875,-0.15625,0.0,0.0,0.0
1665675967130,-0.99316406,0.111328125,0.040039062,-0.34375,0.21875,-0.15625,0.0,0.0,0.0
1665675967172,-1.0029297,0.107421875,0.036132812,-0.15625,0.03125,-0.1875,0.0,0.0,0.0
1665675967172,-1.0029297,0.107421875,0.036132812,-0.15625,0.03125,-0.1875,0.0,0.0,0.0
1665675967211,-1.0009766,0.1015625,0.041992188,0.03125,0.15625,-0.1875,-66.0,22.375,-143.625
1665675967211,-1.0009766,0.1015625,0.041992188,0.03125,0.15625,-0.1875,-66.0,22.375,-143.625
1665675967250,-0.9892578,0.10058594,0.044921875,-0.03125,-0.3125,-0.1875,0.0,0.0,0.0
1665675967250,-0.9892578,0.10058594,0.044921875,-0.03125,-0.3125,-0.1875,0.0,0.0,0.0
1665675967290,-1.0009766,0.11230469,0.038085938,-0.09375,-0.09375,-0.1875,0.0,0.0,0.0
1665675967290,-1.0009766,0.11230469,0.038085938,-0.09375,-0.09375,-0.1875,0.0,0.0,0.0
1665675967331,-1.0039062,0.10546875,0.037109375,-0.03125,-0.09375,0.03125,0.0,0.0,0.0
1665675967331,-1.0039062,0.10546875,0.037109375,-0.03125,-0.09375,0.03125,0.0,0.0,0.0
1665675967370,-0.9951172,0.11035156,0.048828125,0.03125,0.03125,-0.09375,0.0,0.0,0.0
1665675967370,-0.9951172,0.11035156,0.048828125,0.03125,0.03125,-0.09375,0.0,0.0,0.0
1665675967411,-0.9980469,0.11328125,0.034179688,0.03125,-0.09375,-0.09375,0.0,0.0,0.0
1665675967410,-0.9980469,0.11328125,0.034179688,0.03125,-0.09375,-0.09375,0.0,0.0,0.0
1665675967450,-1.0097656,0.11230469,0.0390625,-0.09375,0.15625,0.09375,0.0,0.0,0.0
1665675967450,-1.0097656,0.11230469,0.0390625,-0.09375,0.15625,0.09375,0.0,0.0,0.0
1665675967491,-1.0009766,0.107421875,0.0390625,-0.03125,0.03125,0.09375,0.0,0.0,0.0
1665675967491,-1.0009766,0.107421875,0.0390625,-0.03125,0.03125,0.09375,0.0,0.0,0.0
1665675967530,-0.9980469,0.11035156,0.028320312,-0.09375,0.09375,0.03125,0.0,0.0,0.0
1665675967530,-0.9980469,0.11035156,0.028320312,-0.09375,0.09375,0.03125,0.0,0.0,0.0
1665675967570,-1.0029297,0.11035156,0.033203125,0.03125,0.21875,0.09375,0.0,0.0,0.0
1665675967572,-1.0029297,0.11035156,0.033203125,0.03125,0.21875,0.09375,0.0,0.0,0.0
1665675967610,-1.0097656,0.099609375,0.049804688,-0.03125,-0.15625,-0.09375,0.0,0.0,0.0
1665675967610,-1.0097656,0.099609375,0.049804688,-0.03125,-0.15625,-0.09375,0.0,0.0,0.0
1665675967650,-0.9941406,0.10449219,0.041992188,0.03125,0.34375,-0.09375,0.0,0.0,0.0
1665675967650,-0.9941406,0.10449219,0.041992188,0.03125,0.34375,-0.09375,0.0,0.0,0.0
1665675967692,-1.0009766,0.11328125,0.055664062,-0.09375,0.46875,0.15625,0.0,0.0,0.0
1665675967692,-1.0009766,0.11328125,0.055664062,-0.09375,0.46875,0.15625,0.0,0.0,0.0
1665675967731,-1.0009766,0.10546875,0.038085938,-0.09375,0.21875,-0.1875,-66.875,21.5,-143.875
1665675967731,-1.0009766,0.10546875,0.038085938,-0.09375,0.21875,-0.1875,-66.875,21.5,-143.875
1665675967770,-0.9980469,0.10839844,0.03125,-0.03125,0.03125,-0.03125,0.0,0.0,0.0
1665675967770,-0.9980469,0.10839844,0.03125,-0.03125,0.03125,-0.03125,0.0,0.0,0.0
1665675967810,-1.0087891,0.109375,0.040039062,-0.34375,0.09375,0.03125,0.0,0.0,0.0
1665675967810,-1.0087891,0.109375,0.040039062,-0.34375,0.09375,0.03125,0.0,0.0,0.0
1665675967852,-1.0029297,0.099609375,0.030273438,-0.09375,0.34375,0.09375,0.0,0.0,0.0
1665675967852,-1.0029297,0.099609375,0.030273438,-0.09375,0.34375,0.09375,0.0,0.0,0.0
1665675967914,-0.99609375,0.10839844,0.037109375,-0.15625,-0.15625,-0.09375,0.0,0.0,0.0
1665675967914,-0.99609375,0.10839844,0.037109375,-0.15625,-0.15625,-0.09375,0.0,0.0,0.0
1665675967930,-1.0048828,0.10839844,0.0390625,-0.09375,0.15625,-0.15625,0.0,0.0,0.0
1665675967930,-1.0048828,0.10839844,0.0390625,-0.09375,0.15625,-0.15625,0.0,0.0,0.0
1665675967970,-0.99902344,0.11621094,0.043945312,-0.03125,0.03125,0.03125,0.0,0.0,0.0
1665675967970,-0.99902344,0.11621094,0.043945312,-0.03125,0.03125,0.03125,0.0,0.0,0.0
1665675968011,-0.9921875,0.10253906,0.037109375,0.03125,0.03125,-0.1875,0.0,0.0,0.0
1665675968011,-0.9921875,0.10253906,0.037109375,0.03125,0.03125,-0.1875,0.0,0.0,0.0
1665675968050,-1.0068359,0.10253906,0.043945312,-0.03125,0.03125,0.09375,0.0,0.0,0.0
1665675968050,-1.0068359,0.10253906,0.043945312,-0.03125,0.03125,0.09375,0.0,0.0,0.0
1665675968090,-1.0039062,0.10058594,0.038085938,-0.21875,0.40625,-0.09375,0.0,0.0,0.0
1665675968091,-1.0039062,0.10058594,0.038085938,-0.21875,0.40625,-0.09375,0.0,0.0,0.0
1665675968132,-1.0,0.107421875,0.041992188,-0.03125,-0.1875,-0.03125,0.0,0.0,0.0
1665675968132,-1.0,0.107421875,0.041992188,-0.03125,-0.1875,-0.03125,0.0,0.0,0.0
1665675968173,-1.0068359,0.1171875,0.026367188,-0.21875,0.03125,-0.15625,0.0,0.0,0.0
1665675968173,-1.0068359,0.1171875,0.026367188,-0.21875,0.03125,-0.15625,0.0,0.0,0.0
1665675968210,-1.0009766,0.10253906,0.041992188,-0.09375,-0.03125,-0.03125,-67.375,19.6875,-145.5625
1665675968212,-1.0009766,0.10253906,0.041992188,-0.09375,-0.03125,-0.03125,-67.375,19.6875,-145.5625
1665675968252,-1.0107422,0.103515625,0.034179688,-0.15625,-0.15625,-0.15625,0.0,0.0,0.0
1665675968252,-1.0107422,0.103515625,0.034179688,-0.15625,-0.15625,-0.15625,0.0,0.0,0.0
1665675968290,-1.0009766,0.103515625,0.04296875,-0.21875,0.15625,0.09375,0.0,0.0,0.0
1665675968290,-1.0009766,0.103515625,0.04296875,-0.21875,0.15625,0.09375,0.0,0.0,0.0
1665675968330,-1.0,0.11425781,0.041015625,-0.03125,0.09375,-0.09375,0.0,0.0,0.0
1665675968330,-1.0,0.11425781,0.041015625,-0.03125,0.09375,-0.09375,0.0,0.0,0.0
1665675968370,-1.0087891,0.10644531,0.036132812,0.09375,0.03125,-0.09375,0.0,0.0,0.0
1665675968370,-1.0087891,0.10644531,0.036132812,0.09375,0.03125,-0.09375,0.0,0.0,0.0
1665675968411,-1.0019531,0.10253906,0.036132812,0.09375,-0.15625,0.09375,0.0,0.0,0.0
1665675968411,-1.0019531,0.10253906,0.036132812,0.09375,-0.15625,0.09375,0.0,0.0,0.0
1665675968450,-1.0068359,0.10449219,0.038085938,-0.03125,-0.03125,-0.09375,0.0,0.0,0.0
1665675968450,-1.0068359,0.10449219,0.038085938,-0.03125,-0.03125,-0.09375,0.0,0.0,0.0
1665675968494,-0.9980469,0.109375,0.028320312,-0.09375,-0.09375,0.15625,0.0,0.0,0.0
1665675968494,-0.9980469,0.109375,0.028320312,-0.09375,-0.09375,0.15625,0.0,0.0,0.0
1665675968530,-0.9921875,0.107421875,0.034179688,-0.09375,-0.15625,-0.15625,0.0,0.0,0.0
1665675968530,-0.9921875,0.107421875,0.034179688,-0.09375,-0.15625,-0.15625,0.0,0.0,0.0
1665675968570,-0.9980469,0.10546875,0.030273438,-0.03125,-0.3125,0.09375,0.0,0.0,0.0
1665675968570,-0.9980469,0.10546875,0.030273438,-0.03125,-0.3125,0.09375,0.0,0.0,0.0
1665675968633,-1.0019531,0.10839844,0.03515625,0.0625,0.5,0.09375,0.0,0.0,0.0
1665675968633,-1.0019531,0.10839844,0.03515625,0.0625,0.5,0.09375,0.0,0.0,0.0
1665675968650,-1.0039062,0.10839844,0.04296875,0.03125,-0.03125,-0.03125,0.0,0.0,0.0
1665675968650,-1.0039062,0.10839844,0.04296875,0.03125,-0.03125,-0.03125,0.0,0.0,0.0
1665675968691,-0.9970703,0.11035156,0.032226562,0.03125,-0.28125,-0.09375,0.0,0.0,0.0
1665675968691,-0.9970703,0.11035156,0.032226562,0.03125,-0.28125,-0.09375,0.0,0.0,0.0
1665675968731,-1.0087891,0.111328125,0.024414062,0.0625,-0.09375,-0.15625,-66.75,20.125,-143.625
1665675968731,-1.0087891,0.111328125,0.024414062,0.0625,-0.09375,-0.15625,-66.75,20.125,-143.625
1665675968772,-1.0097656,0.115234375,0.029296875,0.0625,-0.21875,-0.09375,0.0,0.0,0.0
1665675968772,-1.0097656,0.115234375,0.029296875,0.0625,-0.21875,-0.09375,0.0,0.0,0.0
1665675968810,-1.0009766,0.10058594,0.045898438,0.03125,-0.28125,-0.15625,0.0,0.0,0.0
1665675968812,-1.0009766,0.10058594,0.045898438,0.03125,-0.28125,-0.15625,0.0,0.0,0.0
1665675968850,-1.0058594,0.10839844,0.038085938,0.03125,-0.28125,-0.15625,0.0,0.0,0.0
1665675968850,-1.0058594,0.10839844,0.038085938,0.03125,-0.28125,-0.15625,0.0,0.0,0.0
1665675968890,-0.9980469,0.11621094,0.036132812,0.25,-0.21875,-0.03125,0.0,0.0,0.0
1665675968890,-0.9980469,0.11621094,0.036132812,0.25,-0.21875,-0.03125,0.0,0.0,0.0
1665675968929,-1.0029297,0.10253906,0.034179688,0.25,-0.34375,0.03125,0.0,0.0,0.0
1665675968929,-1.0029297,0.10253906,0.034179688,0.25,-0.34375,0.03125,0.0,0.0,0.0
1665675968970,-0.99316406,0.1171875,0.03515625,0.1875,-0.65625,-0.15625,0.0,0.0,0.0
1665675968970,-0.99316406,0.1171875,0.03515625,0.1875,-0.65625,-0.15625,0.0,0.0,0.0
1665675969010,-1.0019531,0.11035156,0.040039062,0.125,-0.46875,-0.03125,0.0,0.0,0.0
1665675969010,-1.0019531,0.11035156,0.040039062,0.125,-0.46875,-0.03125,0.0,0.0,0.0
1665675969070,-1.0048828,0.10839844,0.025390625,0.25,-0.65625,-0.03125,0.0,0.0,0.0
1665675969070,-1.0048828,0.10839844,0.025390625,0.25,-0.65625,-0.03125,0.0,0.0,0.0
1665675969092,-0.9951172,0.10644531,0.034179688,0.3125,-0.53125,-0.09375,0.0,0.0,0.0
1665675969092,-0.9951172,0.10644531,0.034179688,0.3125,-0.53125,-0.09375,0.0,0.0,0.0
1665675969130,-0.99609375,0.10839844,0.040039062,0.125,-0.53125,-0.03125,0.0,0.0,0.0
1665675969132,-0.99609375,0.10839844,0.040039062,0.125,-0.53125,-0.03125,0.0,0.0,0.0
1665675969174,-1.0019531,0.107421875,0.034179688,0.3125,-0.46875,0.28125,0.0,0.0,0.0
1665675969174,-1.0019531,0.107421875,0.034179688,0.3125,-0.46875,0.28125,0.0,0.0,0.0
1665675969215,-0.9970703,0.11425781,0.045898438,0.25,-0.53125,-0.03125,-66.625,20.3125,-143.125
1665675969215,-0.9970703,0.11425781,0.045898438,0.25,-0.53125,-0.03125,-66.625,20.3125,-143.125
1665675969251,-0.9980469,0.107421875,0.044921875,0.25,-0.15625,0.15625,0.0,0.0,0.0
1665675969251,-0.9980469,0.107421875,0.044921875,0.25,-0.15625,0.15625,0.0,0.0,0.0
1665675969290,-1.0,0.111328125,0.030273438,0.3125,-0.53125,-0.03125,0.0,0.0,0.0
1665675969290,-1.0,0.111328125,0.030273438,0.3125,-0.53125,-0.03125,0.0,0.0,0.0
1665675969332,-1.0019531,0.099609375,0.032226562,0.25,-0.40625,-0.09375,0.0,0.0,0.0
1665675969332,-1.0019531,0.099609375,0.032226562,0.25,-0.40625,-0.09375,0.0,0.0,0.0
1665675969372,-0.99902344,0.1015625,0.03515625,0.03125,-0.40625,-0.09375,0.0,0.0,0.0
1665675969372,-0.99902344,0.1015625,0.03515625,0.03125,-0.40625,-0.09375,0.0,0.0,0.0
1665675969413,-1.0068359,0.10449219,0.059570312,0.0625,0.0,-0.03125,0.0,0.0,0.0
1665675969413,-1.0068359,0.10449219,0.059570312,0.0625,0.0,-0.03125,0.0,0.0,0.0
1665675969454,-1.0019531,0.11425781,0.041015625,0.03125,-0.40625,0.03125,0.0,0.0,0.0
1665675969454,-1.0019531,0.11425781,0.041015625,0.03125,-0.40625,0.03125,0.0,0.0,0.0
1665675969489,-0.9980469,0.10644531,0.048828125,0.25,-0.59375,-0.09375,0.0,0.0,0.0
1665675969489,-0.9980469,0.10644531,0.048828125,0.25,-0.59375,-0.09375,0.0,0.0,0.0
1665675969530,-1.0048828,0.103515625,0.0146484375,0.0625,-0.34375,0.21875,0.0,0.0,0.0
1665675969530,-1.0048828,0.103515625,0.0146484375,0.0625,-0.34375,0.21875,0.0,0.0,0.0
1665675969569,-1.0039062,0.107421875,0.037109375,0.25,-0.53125,-0.03125,0.0,0.0,0.0
1665675969569,-1.0039062,0.107421875,0.037109375,0.25,-0.53125,-0.03125,0.0,0.0,0.0
1665675969610,-1.0009766,0.10253906,0.048828125,0.3125,-0.53125,0.03125,0.0,0.0,0.0
1665675969610,-1.0009766,0.10253906,0.048828125,0.3125,-0.53125,0.03125,0.0,0.0,0.0
1665675969650,-0.99902344,0.12207031,0.040039062,0.03125,-0.34375,-0.03125,0.0,0.0,0.0
1665675969650,-0.99902344,0.12207031,0.040039062,0.03125,-0.34375,-0.03125,0.0,0.0,0.0
1665675969693,-0.99902344,0.109375,0.049804688,0.0625,-0.21875,-0.21875,0.0,0.0,0.0
1665675969692,-0.99902344,0.109375,0.049804688,0.0625,-0.21875,-0.21875,0.0,0.0,0.0
1665675969730,-1.0097656,0.11230469,0.037109375,0.1875,-0.40625,0.03125,-66.3125,21.5,-143.125
1665675969730,-1.0097656,0.11230469,0.037109375,0.1875,-0.40625,0.03125,-66.3125,21.5,-143.125
1665675969770,-1.0039062,0.10839844,0.038085938,0.125,-0.46875,-0.03125,0.0,0.0,0.0
1665675969770,-1.0039062,0.10839844,0.038085938,0.125,-0.46875,-0.03125,0.0,0.0,0.0
1665675969811,-1.0,0.103515625,0.048828125,0.0625,-0.40625,-0.03125,0.0,0.0,0.0
1665675969811,-1.0,0.103515625,0.048828125,0.0625,-0.40625,-0.03125,0.0,0.0,0.0
1665675969852,-1.0029297,0.10839844,0.01953125,0.1875,-0.46875,0.09375,0.0,0.0,0.0
1665675969852,-1.0029297,0.10839844,0.01953125,0.1875,-0.46875,0.09375,0.0,0.0,0.0
1665675969890,-1.0039062,0.10839844,0.0390625,0.0625,-0.46875,0.03125,0.0,0.0,0.0
1665675969890,-1.0039062,0.10839844,0.0390625,0.0625,-0.46875,0.03125,0.0,0.0,0.0
1665675969930,-1.0019531,0.1171875,0.055664062,0.25,-0.28125,-0.15625,0.0,0.0,0.0
1665675969930,-1.0019531,0.1171875,0.055664062,0.25,-0.28125,-0.15625,0.0,0.0,0.0
1665675969972,-0.9980469,0.10839844,0.036132812,0.0625,-0.21875,0.15625,0.0,0.0,0.0
1665675969972,-0.9980469,0.10839844,0.036132812,0.0625,-0.21875,0.15625,0.0,0.0,0.0
1665675970011,-1.0,0.11230469,0.045898438,0.0625,-0.34375,-0.03125,0.0,0.0,0.0
1665675970011,-1.0,0.11230469,0.045898438,0.0625,-0.34375,-0.03125,0.0,0.0,0.0
1665675970054,-1.0039062,0.11230469,0.0390625,0.0625,-0.34375,-0.03125,0.0,0.0,0.0
1665675970054,-1.0039062,0.11230469,0.0390625,0.0625,-0.34375,-0.03125,0.0,0.0,0.0
1665675970091,-0.9970703,0.10839844,0.022460938,0.1875,-0.34375,0.03125,0.0,0.0,0.0
1665675970093,-0.9970703,0.10839844,0.022460938,0.1875,-0.34375,0.03125,0.0,0.0,0.0
1665675970130,-0.9941406,0.11621094,0.046875,0.25,-0.59375,-0.15625,0.0,0.0,0.0
1665675970130,-0.9941406,0.11621094,0.046875,0.25,-0.59375,-0.15625,0.0,0.0,0.0
1665675970170,-1.0029297,0.10058594,0.037109375,0.125,-0.46875,-0.15625,0.0,0.0,0.0
1665675970170,-1.0029297,0.10058594,0.037109375,0.125,-0.46875,-0.15625,0.0,0.0,0.0
1665675970210,-1.0009766,0.11425781,0.03515625,0.0625,-0.03125,-0.28125,-66.75,20.875,-144.0625
1665675970210,-1.0009766,0.11425781,0.03515625,0.0625,-0.03125,-0.28125,-66.75,20.875,-144.0625
1665675970251,-1.0009766,0.111328125,0.046875,0.1875,-0.53125,0.09375,0.0,0.0,0.0
1665675970251,-1.0009766,0.111328125,0.046875,0.1875,-0.53125,0.09375,0.0,0.0,0.0
1665675970291,-0.9980469,0.11230469,0.037109375,-0.03125,-0.46875,-0.21875,0.0,0.0,0.0
1665675970290,-0.9980469,0.11230469,0.037109375,-0.03125,-0.46875,-0.21875,0.0,0.0,0.0
1665675970332,-0.9980469,0.11230469,0.032226562,-0.03125,-0.46875,-0.09375,0.0,0.0,0.0
1665675970332,-0.9980469,0.11230469,0.032226562,-0.03125,-0.46875,-0.09375,0.0,0.0,0.0
1665675970370,-1.0097656,0.11425781,0.032226562,0.03125,-0.21875,-0.03125,0.0,0.0,0.0
1665675970370,-1.0097656,0.11425781,0.032226562,0.03125,-0.21875,-0.03125,0.0,0.0,0.0
1665675970411,-1.015625,0.10253906,0.038085938,0.03125,-0.28125,0.03125,0.0,0.0,0.0
1665675970411,-1.015625,0.10253906,0.038085938,0.03125,-0.28125,0.03125,0.0,0.0,0.0
1665675970450,-1.0029297,0.111328125,0.03125,0.03125,-0.40625,-0.21875,0.0,0.0,0.0
1665675970450,-1.0029297,0.111328125,0.03125,0.03125,-0.40625,-0.21875,0.0,0.0,0.0
1665675970491,-1.0058594,0.109375,0.051757812,0.25,-0.09375,-0.09375,0.0,0.0,0.0
1665675970491,-1.0058594,0.109375,0.051757812,0.25,-0.09375,-0.09375,0.0,0.0,0.0
1665675970531,-0.9980469,0.10839844,0.038085938,0.125,-0.34375,-0.03125,0.0,0.0,0.0
1665675970531,-0.9980469,0.10839844,0.038085938,0.125,-0.34375,-0.03125,0.0,0.0,0.0
1665675970570,-1.0039062,0.10839844,0.03125,0.03125,-0.34375,0.03125,0.0,0.0,0.0
1665675970570,-1.0039062,0.10839844,0.03125,0.03125,-0.34375,0.03125,0.0,0.0,0.0
1665675970612,-1.0039062,0.11035156,0.040039062,0.125,-0.09375,-0.21875,0.0,0.0,0.0
1665675970612,-1.0039062,0.11035156,0.040039062,0.125,-0.09375,-0.21875,0.0,0.0,0.0
1665675970650,-0.99902344,0.10644531,0.033203125,-0.03125,-0.65625,0.15625,0.0,0.0,0.0
1665675970650,-0.99902344,0.10644531,0.033203125,-0.03125,-0.65625,0.15625,0.0,0.0,0.0
1665675970689,-0.9951172,0.109375,0.036132812,0.0625,-0.21875,-0.09375,0.0,0.0,0.0
1665675970689,-0.9951172,0.109375,0.036132812,0.0625,-0.21875,-0.09375,0.0,0.0,0.0
1665675970731,-0.9951172,0.103515625,0.038085938,0.0625,-0.28125,0.09375,-66.4375,20.125,-144.625
1665675970731,-0.9951172,0.103515625,0.038085938,0.0625,-0.28125,0.09375,-66.4375,20.125,-144.625
1665675970771,-1.0087891,0.115234375,0.047851562,0.03125,-0.46875,0.03125,0.0,0.0,0.0
1665675970771,-1.0087891,0.115234375,0.047851562,0.03125,-0.46875,0.03125,0.0,0.0,0.0
1665675970789,-0.9892578,0.103515625,0.043945312,0.0625,-0.15625,-0.09375,0.0,0.0,0.0
1665675970789,-0.9892578,0.103515625,0.043945312,0.0625,-0.15625,-0.09375,0.0,0.0,0.0
1665675970832,-1.0039062,0.11621094,0.057617188,0.0625,-0.15625,0.09375,0.0,0.0,0.0
1665675970832,-1.0039062,0.11621094,0.057617188,0.0625,-0.15625,0.09375,0.0,0.0,0.0
1665675970870,-1.0097656,0.109375,0.040039062,0.03125,-0.46875,-0.15625,0.0,0.0,0.0
1665675970870,-1.0097656,0.109375,0.040039062,0.03125,-0.46875,-0.15625,0.0,0.0,0.0
1665675970910,-1.0058594,0.10253906,0.032226562,0.125,-0.15625,-0.09375,0.0,0.0,0.0
1665675970910,-1.0058594,0.10253906,0.032226562,0.125,-0.15625,-0.09375,0.0,0.0,0.0
1665675970969,-1.0107422,0.10546875,0.043945312,-0.15625,-0.34375,-0.03125,0.0,0.0,0.0
1665675970969,-1.0107422,0.10546875,0.043945312,-0.15625,-0.34375,-0.03125,0.0,0.0,0.0
1665675970991,-1.0019531,0.107421875,0.046875,-0.21875,0.3125,-0.21875,0.0,0.0,0.0
1665675970991,-1.0019531,0.107421875,0.046875,-0.21875,0.3125,-0.21875,0.0,0.0,0.0
1665675971030,-1.0039062,0.11425781,0.038085938,0.1875,-0.15625,-0.15625,0.0,0.0,0.0
1665675971031,-1.0039062,0.11425781,0.038085938,0.1875,-0.15625,-0.15625,0.0,0.0,0.0
1665675971090,-0.9980469,0.11035156,0.0390625,0.0625,-0.03125,-0.15625,0.0,0.0,0.0
1665675971090,-0.9980469,0.11035156,0.0390625,0.0625,-0.03125,-0.15625,0.0,0.0,0.0
1665675971113,-0.9951172,0.11816406,0.040039062,0.0625,-0.03125,-0.09375,0.0,0.0,0.0
1665675971113,-0.9951172,0.11816406,0.040039062,0.0625,-0.03125,-0.09375,0.0,0.0,0.0
1665675971150,-1.0097656,0.109375,0.043945312,0.03125,-0.28125,-0.09375,0.0,0.0,0.0
1665675971150,-1.0097656,0.109375,0.043945312,0.03125,-0.28125,-0.09375,0.0,0.0,0.0
1665675971210,-1.0029297,0.107421875,0.0390625,0.03125,-0.34375,-0.21875,-66.625,21.0625,-143.4375
1665675971210,-1.0029297,0.107421875,0.0390625,0.03125,-0.34375,-0.21875,-66.625,21.0625,-143.4375
1665675971230,-1.0048828,0.103515625,0.052734375,-0.09375,0.0625,-0.21875,0.0,0.0,0.0
1665675971230,-1.0048828,0.103515625,0.052734375,-0.09375,0.0625,-0.21875,0.0,0.0,0.0
1665675971270,-0.9951172,0.10839844,0.026367188,0.03125,-0.21875,-0.03125,0.0,0.0,0.0
1665675971271,-0.9951172,0.10839844,0.026367188,0.03125,-0.21875,-0.03125,0.0,0.0,0.0
1665675971311,-1.0039062,0.10839844,0.041015625,0.03125,-0.21875,-0.09375,0.0,0.0,0.0
1665675971311,-1.0039062,0.10839844,0.041015625,0.03125,-0.21875,-0.09375,0.0,0.0,0.0
1665675971351,-1.0097656,0.11621094,0.052734375,0.0625,-0.15625,-0.28125,0.0,0.0,0.0
1665675971351,-1.0097656,0.11621094,0.052734375,0.0625,-0.15625,-0.28125,0.0,0.0,0.0
1665675971393,-0.9921875,0.10644531,0.029296875,-0.03125,-0.15625,0.03125,0.0,0.0,0.0
1665675971393,-0.9921875,0.10644531,0.029296875,-0.03125,-0.15625,0.03125,0.0,0.0,0.0
1665675971430,-1.0009766,0.11230469,0.047851562,0.0625,-0.15625,-0.4375,0.0,0.0,0.0
1665675971432,-1.0009766,0.11230469,0.047851562,0.0625,-0.15625,-0.4375,0.0,0.0,0.0
1665675971471,-1.0107422,0.11621094,0.037109375,-0.09375,0.125,0.03125,0.0,0.0,0.0
1665675971472,-1.0107422,0.11621094,0.037109375,-0.09375,0.125,0.03125,0.0,0.0,0.0
1665675971514,-1.0019531,0.10839844,0.05078125,-0.15625,0.1875,-0.28125,0.0,0.0,0.0
1665675971514,-1.0019531,0.10839844,0.05078125,-0.15625,0.1875,-0.28125,0.0,0.0,0.0
1665675971554,-0.99902344,0.11035156,0.045898438,0.0625,0.0625,-0.34375,0.0,0.0,0.0
1665675971554,-0.99902344,0.11035156,0.045898438,0.0625,0.0625,-0.34375,0.0,0.0,0.0
1665675971611,-1.0087891,0.109375,0.036132812,-0.03125,0.1875,-0.09375,0.0,0.0,0.0
1665675971611,-1.0087891,0.109375,0.036132812,-0.03125,0.1875,-0.09375,0.0,0.0,0.0
1665675971631,-0.9951172,0.107421875,0.041992188,0.03125,-0.21875,-0.09375,0.0,0.0,0.0
1665675971630,-0.9951172,0.107421875,0.041992188,0.03125,-0.21875,-0.09375,0.0,0.0,0.0
1665675971671,-1.0039062,0.10546875,0.024414062,0.03125,-0.40625,-0.03125,0.0,0.0,0.0
1665675971671,-1.0039062,0.10546875,0.024414062,0.03125,-0.40625,-0.03125,0.0,0.0,0.0
1665675971730,-1.0068359,0.103515625,0.044921875,0.0625,-0.21875,-0.09375,-69.125,21.0625,-144.9375
1665675971730,-1.0068359,0.103515625,0.044921875,0.0625,-0.21875,-0.09375,-69.125,21.0625,-144.9375
1665675971749,-0.9873047,0.10253906,0.034179688,-0.09375,-0.28125,-0.09375,0.0,0.0,0.0
1665675971749,-0.9873047,0.10253906,0.034179688,-0.09375,-0.28125,-0.09375,0.0,0.0,0.0
1665675971790,-1.0009766,0.103515625,0.043945312,-0.03125,-0.03125,0.09375,0.0,0.0,0.0
1665675971790,-1.0009766,0.103515625,0.043945312,-0.03125,-0.03125,0.09375,0.0,0.0,0.0
1665675971850,-1.0087891,0.10546875,0.016601562,-0.21875,0.0,0.03125,0.0,0.0,0.0
1665675971850,-1.0087891,0.10546875,0.016601562,-0.21875,0.0,0.03125,0.0,0.0,0.0
1665675971870,-0.9941406,0.10449219,0.03515625,0.03125,0.0625,-0.03125,0.0,0.0,0.0
1665675971870,-0.9941406,0.10449219,0.03515625,0.03125,0.0625,-0.03125,0.0,0.0,0.0
1665675971911,-1.0029297,0.109375,0.041015625,0.0625,-0.15625,-0.21875,0.0,0.0,0.0
1665675971911,-1.0029297,0.109375,0.041015625,0.0625,-0.15625,-0.21875,0.0,0.0,0.0
1665675971950,-0.99609375,0.10839844,0.03125,0.03125,-0.40625,-0.15625,0.0,0.0,0.0
1665675971950,-0.99609375,0.10839844,0.03125,0.03125,-0.40625,-0.15625,0.0,0.0,0.0
1665675971990,-1.0019531,0.11035156,0.041015625,0.0625,-0.09375,0.09375,0.0,0.0,0.0
1665675971990,-1.0019531,0.11035156,0.041015625,0.0625,-0.09375,0.09375,0.0,0.0,0.0
1665675972031,-0.99902344,0.107421875,0.038085938,0.0625,-0.15625,0.09375,0.0,0.0,0.0
1665675972031,-0.99902344,0.107421875,0.038085938,0.0625,-0.15625,0.09375,0.0,0.0,0.0
1665675972072,-1.0029297,0.103515625,0.041015625,-0.09375,-0.40625,0.15625,0.0,0.0,0.0
1665675972072,-1.0029297,0.103515625,0.041015625,-0.09375,-0.40625,0.15625,0.0,0.0,0.0
1665675972113,-0.9892578,0.10449219,0.037109375,0.0625,0.125,-0.09375,0.0,0.0,0.0
1665675972113,-0.9892578,0.10449219,0.037109375,0.0625,0.125,-0.09375,0.0,0.0,0.0
1665675972156,-1.0009766,0.10546875,0.029296875,-0.03125,-0.21875,0.21875,0.0,0.0,0.0
1665675972156,-1.0009766,0.10546875,0.029296875,-0.03125,-0.21875,0.21875,0.0,0.0,0.0
1665675972212,-1.0,0.10839844,0.048828125,0.03125,-0.28125,-0.03125,-66.625,20.75,-143.875
1665675972212,-1.0,0.10839844,0.048828125,0.03125,-0.28125,-0.03125,-66.625,20.75,-143.875
1665675972230,-0.9941406,0.107421875,0.038085938,-0.09375,-0.28125,0.34375,0.0,0.0,0.0
1665675972230,-0.9941406,0.107421875,0.038085938,-0.09375,-0.28125,0.34375,0.0,0.0,0.0
1665675972271,-1.0019531,0.11035156,0.026367188,0.03125,-0.34375,0.09375,0.0,0.0,0.0
1665675972271,-1.0019531,0.11035156,0.026367188,0.03125,-0.34375,0.09375,0.0,0.0,0.0
1665675972310,-1.0068359,0.11230469,0.032226562,-0.15625,-0.46875,0.15625,0.0,0.0,0.0
1665675972310,-1.0068359,0.11230469,0.032226562,-0.15625,-0.46875,0.15625,0.0,0.0,0.0
1665675972350,-0.9980469,0.11230469,0.026367188,0.03125,-0.21875,0.15625,0.0,0.0,0.0
1665675972350,-0.9980469,0.11230469,0.026367188,0.03125,-0.21875,0.15625,0.0,0.0,0.0
1665675972390,-1.0039062,0.103515625,0.041992188,0.0625,-0.21875,-0.03125,0.0,0.0,0.0
1665675972390,-1.0039062,0.103515625,0.041992188,0.0625,-0.21875,-0.03125,0.0,0.0,0.0
1665675972431,-1.0,0.11816406,0.030273438,0.125,-0.09375,0.03125,0.0,0.0,0.0
1665675972431,-1.0,0.11816406,0.030273438,0.125,-0.09375,0.03125,0.0,0.0,0.0
1665675972470,-1.0019531,0.10253906,0.05078125,0.1875,-0.03125,-0.03125,0.0,0.0,0.0
1665675972470,-1.0019531,0.10253906,0.05078125,0.1875,-0.03125,-0.03125,0.0,0.0,0.0
1665675972516,-1.0039062,0.109375,0.024414062,0.125,-0.09375,-0.09375,0.0,0.0,0.0
1665675972516,-1.0039062,0.109375,0.024414062,0.125,-0.09375,-0.09375,0.0,0.0,0.0
1665675972550,-1.0009766,0.109375,0.036132812,0.03125,-0.28125,-0.09375,0.0,0.0,0.0
1665675972550,-1.0009766,0.109375,0.036132812,0.03125,-0.28125,-0.09375,0.0,0.0,0.0
1665675972610,-0.9970703,0.10058594,0.041015625,-0.03125,-0.40625,-0.09375,0.0,0.0,0.0
1665675972610,-0.9970703,0.10058594,0.041015625,-0.03125,-0.40625,-0.09375,0.0,0.0,0.0
1665675972629,-1.0068359,0.11035156,0.032226562,0.0625,-0.53125,-0.09375,0.0,0.0,0.0
1665675972629,-1.0068359,0.11035156,0.032226562,0.0625,-0.53125,-0.09375,0.0,0.0,0.0
1665675972670,-1.0019531,0.11230469,0.036132812,-0.15625,-0.09375,0.03125,0.0,0.0,0.0
1665675972669,-1.0019531,0.11230469,0.036132812,-0.15625,-0.09375,0.03125,0.0,0.0,0.0
1665675972730,-1.0117188,0.099609375,0.032226562,0.0625,-0.03125,-0.21875,-66.4375,21.625,-145.375
1665675972730,-1.0117188,0.099609375,0.032226562,0.0625,-0.03125,-0.21875,-66.4375,21.625,-145.375
1665675972750,-0.99121094,0.103515625,0.041015625,0.03125,-0.53125,-0.21875,0.0,0.0,0.0
1665675972750,-0.99121094,0.103515625,0.041015625,0.03125,-0.53125,-0.21875,0.0,0.0,0.0
1665675972792,-1.0039062,0.10253906,0.028320312,0.125,-0.03125,-0.15625,0.0,0.0,0.0
1665675972792,-1.0039062,0.10253906,0.028320312,0.125,-0.03125,-0.15625,0.0,0.0,0.0
1665675972911,-0.9951172,0.119140625,0.034179688,0.0625,-0.46875,-0.03125,0.0,0.0,0.0
1665675972911,-0.9951172,0.119140625,0.034179688,0.0625,-0.46875,-0.03125,0.0,0.0,0.0
1665675972930,-1.0009766,0.09765625,0.045898438,0.03125,-0.59375,-0.21875,0.0,0.0,0.0
1665675972930,-1.0009766,0.09765625,0.045898438,0.03125,-0.59375,-0.21875,0.0,0.0,0.0
1665675972934,-1.0019531,0.103515625,0.03125,-0.03125,-0.34375,0.15625,0.0,0.0,0.0
1665675972934,-1.0019531,0.103515625,0.03125,-0.03125,-0.34375,0.15625,0.0,0.0,0.0
