# Sensor type: Thingy
# Activity type: Sitting
# Activity code: 0
# Subject id: s1800825
# Notes: 
timestamp,accel_x,accel_y,accel_z,gyro_x,gyro_y,gyro_z,mag_x,mag_y,mag_z
1665676840808,-1.0087891,-0.001953125,0.041992188,-0.25,-0.125,0.15625,0.0,0.0,0.0
1665676840829,-1.0058594,0.009765625,0.022460938,-0.3125,-0.25,-0.375,0.0,0.0,0.0
1665676840861,-1.015625,0.009765625,0.02734375,0.03125,-0.25,0.09375,0.0,0.0,0.0
1665676840922,-1.0166016,9.765625E-4,0.029296875,0.34375,-0.6875,0.03125,0.0,0.0,0.0
1665676840952,-1.0087891,9.765625E-4,0.021484375,0.09375,-0.875,-0.125,0.0,0.0,0.0
1665676840982,-1.0126953,-0.0068359375,0.022460938,0.03125,-0.375,-0.0625,0.0,0.0,0.0
1665676841042,-1.0136719,0.0,0.048828125,-0.125,-0.6875,-0.1875,0.0,0.0,0.0
1665676841073,-1.0097656,0.005859375,0.03515625,0.03125,-0.0625,0.28125,0.0,0.0,0.0
1665676841132,-1.0126953,-0.0029296875,0.01953125,-0.25,-0.0625,-0.25,0.0,0.0,0.0
1665676841193,-1.0117188,-9.765625E-4,0.03515625,0.03125,-0.3125,0.09375,0.0,0.0,0.0
1665676841196,-1.0068359,0.0078125,0.024414062,0.03125,-0.1875,-0.0625,0.0,0.0,0.0
1665676841222,-1.0097656,0.0068359375,0.02734375,0.21875,-0.5,0.09375,-64.625,15.5,-148.5625
1665676841313,-1.0117188,-0.001953125,0.033203125,0.71875,-0.5625,-0.125,0.0,0.0,0.0
1665676841317,-1.0107422,0.0078125,0.036132812,0.15625,-0.3125,-0.4375,0.0,0.0,0.0
1665676841342,-1.0195312,-0.0107421875,0.045898438,0.28125,-0.75,-0.375,0.0,0.0,0.0
1665676841434,-1.0029297,0.0107421875,0.0234375,0.0,-0.4375,-0.125,0.0,0.0,0.0
1665676841437,-1.0126953,-9.765625E-4,0.041015625,0.28125,-0.5625,-0.125,0.0,0.0,0.0
1665676841462,-1.0136719,0.001953125,0.02734375,0.09375,-0.1875,0.28125,0.0,0.0,0.0
1665676841523,-1.0087891,-0.00390625,0.038085938,-0.1875,-0.25,-0.0625,0.0,0.0,0.0
1665676841553,-1.0048828,0.0029296875,0.028320312,0.40625,-0.75,0.46875,0.0,0.0,0.0
1665676841583,-1.0107422,0.009765625,0.024414062,-0.125,-0.375,0.0,0.0,0.0,0.0
1665676841646,-1.0136719,0.009765625,0.03515625,0.40625,-0.6875,0.40625,0.0,0.0,0.0
1665676841673,-1.0253906,-0.001953125,0.028320312,0.28125,-0.625,0.28125,0.0,0.0,0.0
1665676841702,-1.0048828,-0.0068359375,0.0390625,0.09375,-0.5,0.03125,0.0,0.0,0.0
1665676841764,-1.0126953,-9.765625E-4,0.032226562,0.34375,-0.4375,-0.0625,-64.5,14.5625,-147.9375
1665676841792,-1.015625,0.0078125,0.037109375,0.09375,-0.6875,0.03125,0.0,0.0,0.0
1665676841823,-1.0097656,-0.001953125,0.044921875,0.0,-0.6875,0.15625,0.0,0.0,0.0
1665676841884,-1.0029297,9.765625E-4,0.01953125,0.03125,-0.375,-0.0625,0.0,0.0,0.0
1665676841946,-1.0107422,0.00390625,0.026367188,0.0,-0.5625,0.03125,0.0,0.0,0.0
1665676841951,-1.0039062,0.0029296875,0.036132812,0.03125,-0.125,0.03125,0.0,0.0,0.0
1665676842004,-1.0117188,0.00390625,0.0234375,0.28125,-0.4375,0.0,0.0,0.0,0.0
1665676842033,-1.0097656,0.00390625,0.043945312,0.28125,-0.4375,-0.125,0.0,0.0,0.0
1665676842065,-1.0117188,0.001953125,0.034179688,0.34375,-0.125,0.09375,0.0,0.0,0.0
1665676842123,-1.0048828,0.018554688,0.038085938,0.03125,-0.1875,0.09375,0.0,0.0,0.0
1665676842153,-1.0019531,-9.765625E-4,0.040039062,0.15625,-0.6875,-0.3125,0.0,0.0,0.0
1665676842180,-1.0068359,0.0078125,0.044921875,0.21875,-0.25,0.03125,0.0,0.0,0.0
1665676842244,-1.0107422,-0.001953125,0.036132812,-0.3125,-0.5625,-0.4375,-64.1875,14.75,-148.5625
1665676842274,-1.0146484,0.001953125,0.03125,-0.0625,-0.5,-0.25,0.0,0.0,0.0
1665676842302,-1.0146484,0.0078125,0.028320312,-0.0625,-0.0625,-0.125,0.0,0.0,0.0
1665676842365,-1.0019531,0.01171875,0.041015625,-0.1875,-0.875,-0.3125,0.0,0.0,0.0
1665676842394,-1.0058594,0.0068359375,0.041015625,0.03125,-0.625,-0.3125,0.0,0.0,0.0
1665676842424,-1.0136719,-0.001953125,0.03515625,0.03125,-0.5,0.21875,0.0,0.0,0.0
1665676842484,-1.0107422,-9.765625E-4,0.038085938,-0.125,-0.375,-0.3125,0.0,0.0,0.0
1665676842514,-1.0,-0.001953125,0.047851562,0.15625,-0.6875,0.09375,0.0,0.0,0.0
1665676842543,-1.0058594,0.001953125,0.043945312,0.0,-0.3125,-0.3125,0.0,0.0,0.0
1665676842604,-1.0136719,0.0029296875,0.048828125,-0.0625,-0.9375,0.0,0.0,0.0,0.0
1665676842632,-1.0087891,0.0068359375,0.038085938,0.0,-0.375,-0.3125,0.0,0.0,0.0
1665676842661,-1.0039062,0.001953125,0.032226562,-0.1875,-0.4375,-0.25,0.0,0.0,0.0
1665676842724,-1.0175781,-0.0029296875,0.040039062,0.09375,-0.5,0.0,0.0,0.0,0.0
1665676842752,-1.0117188,0.00390625,0.0390625,-0.0625,-0.375,0.0,-64.0625,14.5625,-149.3125
1665676842782,-1.0039062,-0.001953125,0.036132812,-0.0625,-0.3125,-0.375,0.0,0.0,0.0
1665676842844,-1.0146484,0.0048828125,0.040039062,0.09375,-0.5,0.09375,0.0,0.0,0.0
1665676842873,-1.0087891,-9.765625E-4,0.043945312,0.15625,-0.25,0.03125,0.0,0.0,0.0
1665676842902,-1.0117188,0.005859375,0.033203125,0.09375,-0.75,-0.125,0.0,0.0,0.0
1665676842963,-1.0039062,-0.00390625,0.033203125,0.09375,-0.5,0.03125,0.0,0.0,0.0
1665676842992,-1.0166016,0.0048828125,0.03515625,-0.0625,-0.4375,0.03125,0.0,0.0,0.0
1665676843021,-1.0058594,-0.0048828125,0.032226562,-0.0625,-0.5,0.03125,0.0,0.0,0.0
1665676843085,-0.99902344,0.001953125,0.029296875,-0.0625,-0.1875,-0.25,0.0,0.0,0.0
1665676843110,-1.0029297,-0.01171875,0.0390625,0.03125,-0.8125,0.0,0.0,0.0,0.0
1665676843141,-1.0009766,-0.005859375,0.044921875,-0.625,-0.0625,-0.1875,0.0,0.0,0.0
1665676843201,-1.0205078,-9.765625E-4,0.0390625,-0.125,-0.625,0.34375,0.0,0.0,0.0
1665676843232,-1.0126953,0.0048828125,0.038085938,-0.25,-0.875,-0.25,-64.625,15.5,-149.125
1665676843262,-1.0078125,0.00390625,0.034179688,0.0,-0.8125,0.0,0.0,0.0,0.0
1665676843324,-1.015625,0.001953125,0.03515625,-0.0625,-0.75,0.0,0.0,0.0,0.0
1665676843351,-1.0166016,9.765625E-4,0.056640625,-0.125,-0.6875,-0.125,0.0,0.0,0.0
1665676843380,-1.0029297,0.0078125,0.041992188,0.15625,-0.625,-0.1875,0.0,0.0,0.0
1665676843472,-1.0146484,0.0048828125,0.041992188,-0.0625,-0.5625,-0.25,0.0,0.0,0.0
1665676843476,-1.0126953,0.00390625,0.056640625,0.03125,-0.875,-0.125,0.0,0.0,0.0
1665676843503,-1.0048828,-9.765625E-4,0.041992188,0.21875,-0.9375,0.03125,0.0,0.0,0.0
1665676843560,-1.0029297,9.765625E-4,0.044921875,0.0,-0.75,0.15625,0.0,0.0,0.0
1665676843590,-1.0107422,0.00390625,0.037109375,0.21875,-1.125,0.40625,0.0,0.0,0.0
1665676843652,-1.0136719,-0.005859375,0.037109375,0.0,-1.125,-0.1875,0.0,0.0,0.0
1665676843681,-1.0107422,0.00390625,0.04296875,-0.125,-0.625,0.0,0.0,0.0,0.0
1665676843712,-1.0146484,0.0048828125,0.04296875,0.15625,-0.9375,-0.0625,0.0,0.0,0.0
1665676843743,-1.0039062,0.0068359375,0.040039062,0.09375,-1.0625,-0.3125,-64.625,15.5,-147.8125
1665676843802,-1.0087891,0.005859375,0.041015625,0.15625,-0.9375,0.0,0.0,0.0,0.0
1665676843835,-1.0,0.0,0.051757812,0.09375,-0.5,0.0,0.0,0.0,0.0
1665676843862,-1.015625,0.005859375,0.033203125,0.0,0.09375,-0.25,0.0,0.0,0.0
1665676843928,-1.0039062,0.0029296875,0.043945312,0.21875,-0.5,0.03125,0.0,0.0,0.0
1665676843951,-1.0097656,0.0,0.045898438,0.0,0.0,0.0,0.0,0.0,0.0
1665676843983,-1.0058594,0.00390625,0.043945312,0.15625,0.03125,-0.0625,0.0,0.0,0.0
1665676844042,-1.0048828,-9.765625E-4,0.0390625,0.21875,0.09375,0.15625,0.0,0.0,0.0
1665676844070,-1.0136719,-9.765625E-4,0.045898438,0.03125,0.15625,0.0,0.0,0.0,0.0
1665676844103,-1.0048828,0.00390625,0.041015625,-0.125,0.21875,0.03125,0.0,0.0,0.0
1665676844162,-1.0117188,-9.765625E-4,0.04296875,0.0,0.15625,0.15625,0.0,0.0,0.0
1665676844222,-1.0175781,0.00390625,0.043945312,-0.125,-0.1875,-0.25,0.0,0.0,0.0
1665676844225,-1.0058594,0.00390625,0.046875,0.09375,0.15625,0.03125,-64.0625,14.5625,-148.375
1665676844286,-1.0117188,0.009765625,0.036132812,-0.0625,0.0,0.28125,0.0,0.0,0.0
1665676844311,-1.0,-0.00390625,0.043945312,0.0,-0.1875,-0.3125,0.0,0.0,0.0
1665676844344,-1.0107422,0.0068359375,0.040039062,0.21875,0.03125,0.21875,0.0,0.0,0.0
1665676844401,-1.0166016,-0.0048828125,0.05078125,-0.25,-0.0625,-0.1875,0.0,0.0,0.0
1665676844431,-1.0117188,0.0048828125,0.029296875,0.21875,-0.3125,0.0,0.0,0.0,0.0
1665676844461,-1.0039062,0.0029296875,0.036132812,0.09375,-0.25,0.0,0.0,0.0,0.0
1665676844528,-1.0117188,-0.005859375,0.041015625,0.0,0.03125,0.21875,0.0,0.0,0.0
1665676844550,-1.0087891,0.009765625,0.041015625,0.34375,-0.25,0.03125,0.0,0.0,0.0
1665676844581,-1.015625,0.013671875,0.034179688,0.09375,0.34375,0.0,0.0,0.0,0.0
1665676844644,-1.0097656,-0.005859375,0.033203125,-0.3125,-0.125,0.09375,0.0,0.0,0.0
1665676844671,-1.0117188,0.0068359375,0.047851562,0.21875,0.21875,0.15625,0.0,0.0,0.0
1665676844702,-1.0146484,0.00390625,0.034179688,0.03125,0.21875,0.15625,0.0,0.0,0.0
1665676844761,-1.0048828,-9.765625E-4,0.043945312,0.0,0.28125,-0.0625,-64.9375,15.1875,-147.1875
1665676844792,-1.0136719,-0.0029296875,0.0390625,0.0,0.53125,0.0,0.0,0.0,0.0
1665676844821,-1.0097656,-0.0029296875,0.04296875,0.0,0.34375,0.03125,0.0,0.0,0.0
1665676844886,-1.0136719,0.001953125,0.03125,0.15625,-0.125,0.03125,0.0,0.0,0.0
1665676844914,-1.0009766,0.0048828125,0.033203125,0.0,-0.0625,0.03125,0.0,0.0,0.0
1665676844944,-1.0048828,-9.765625E-4,0.03515625,0.0,-0.1875,0.0,0.0,0.0,0.0
1665676845002,-1.0185547,0.0029296875,0.022460938,-0.5,0.34375,0.15625,0.0,0.0,0.0
1665676845031,-1.0117188,-0.001953125,0.044921875,0.0,0.15625,0.03125,0.0,0.0,0.0
1665676845062,-1.0039062,0.0048828125,0.041015625,-0.3125,0.03125,-0.1875,0.0,0.0,0.0
1665676845124,-1.0039062,0.005859375,0.03515625,0.03125,0.09375,0.03125,0.0,0.0,0.0
1665676845151,-1.0175781,0.0068359375,0.029296875,0.09375,0.15625,-0.25,0.0,0.0,0.0
1665676845182,-1.0019531,-0.001953125,0.044921875,-0.0625,-0.5,0.03125,0.0,0.0,0.0
1665676845241,-1.0097656,-0.0029296875,0.033203125,0.0,0.09375,0.03125,-64.1875,14.125,-148.875
1665676845272,-1.0126953,9.765625E-4,0.034179688,-0.25,-0.1875,-0.25,0.0,0.0,0.0
1665676845304,-1.0029297,-0.0048828125,0.041992188,-0.0625,-0.0625,0.28125,0.0,0.0,0.0
1665676845362,-1.0058594,9.765625E-4,0.025390625,-0.1875,-0.125,-0.125,0.0,0.0,0.0
1665676845394,-1.0166016,0.0029296875,0.032226562,-0.125,-0.25,0.09375,0.0,0.0,0.0
1665676845421,-1.0087891,0.0068359375,0.028320312,-0.1875,-0.0625,0.03125,0.0,0.0,0.0
1665676845481,-1.0146484,-0.001953125,0.032226562,-0.125,-0.5,0.03125,0.0,0.0,0.0
1665676845513,-1.0107422,0.0107421875,0.02734375,0.21875,-0.125,0.28125,0.0,0.0,0.0
1665676845540,-1.015625,0.0068359375,0.030273438,-0.25,-0.1875,0.21875,0.0,0.0,0.0
1665676845603,-1.0136719,0.009765625,0.03515625,0.03125,-0.1875,-0.25,0.0,0.0,0.0
1665676845633,-1.0107422,9.765625E-4,0.037109375,0.03125,0.09375,0.21875,0.0,0.0,0.0
1665676845661,-1.0048828,0.001953125,0.025390625,-0.0625,-0.4375,-0.125,0.0,0.0,0.0
1665676845756,-1.0117188,0.0107421875,0.016601562,0.28125,0.09375,0.09375,0.0,0.0,0.0
1665676845759,-1.0126953,0.0078125,0.029296875,0.0,-0.5625,-0.125,-64.5,15.3125,-149.3125
1665676845783,-1.0146484,0.009765625,0.034179688,-0.25,-0.375,-0.125,0.0,0.0,0.0
1665676845844,-1.0068359,9.765625E-4,0.034179688,-0.0625,-0.4375,0.21875,0.0,0.0,0.0
1665676845872,-1.0175781,0.0107421875,0.032226562,0.09375,-0.4375,-0.125,0.0,0.0,0.0
1665676845903,-1.0039062,0.00390625,0.037109375,-0.0625,-0.5625,-0.1875,0.0,0.0,0.0
1665676845962,-1.0078125,0.0068359375,0.028320312,0.15625,-0.3125,-0.0625,0.0,0.0,0.0
1665676845994,-1.0117188,0.0107421875,0.021484375,0.0,-0.125,-0.1875,0.0,0.0,0.0
1665676846051,-1.0136719,-0.0029296875,0.04296875,0.34375,-0.6875,0.09375,0.0,0.0,0.0
1665676846082,-1.0117188,0.005859375,0.045898438,-0.125,-0.5,-0.4375,0.0,0.0,0.0
1665676846116,-1.0136719,0.0107421875,0.03515625,0.21875,-0.375,0.03125,0.0,0.0,0.0
1665676846141,-1.0097656,0.005859375,0.03515625,0.21875,-0.5,-0.0625,0.0,0.0,0.0
1665676846202,-1.0068359,0.0078125,0.036132812,0.03125,-0.5625,-0.1875,0.0,0.0,0.0
1665676846235,-1.0087891,9.765625E-4,0.034179688,0.15625,-0.5625,0.09375,-64.625,13.6875,-148.875
1665676846260,-1.0126953,0.009765625,0.033203125,0.15625,-0.3125,-0.125,0.0,0.0,0.0
1665676846322,-1.0058594,0.0107421875,0.033203125,0.09375,-0.6875,0.09375,0.0,0.0,0.0
1665676846351,-1.0126953,0.00390625,0.040039062,-0.0625,-0.1875,0.0,0.0,0.0,0.0
1665676846383,-1.0126953,9.765625E-4,0.033203125,0.03125,-0.625,0.09375,0.0,0.0,0.0
1665676846442,-1.0029297,-0.001953125,0.028320312,0.28125,0.09375,0.09375,0.0,0.0,0.0
1665676846503,-1.0175781,0.0,0.038085938,-0.125,-0.25,-0.375,0.0,0.0,0.0
1665676846505,-0.9980469,0.0078125,0.036132812,0.0,-0.1875,-0.1875,0.0,0.0,0.0
1665676846562,-1.0107422,0.0068359375,0.049804688,0.15625,-0.8125,-0.0625,0.0,0.0,0.0
1665676846594,-1.0009766,0.01171875,0.0390625,0.03125,0.15625,-0.0625,0.0,0.0,0.0
1665676846621,-1.0058594,9.765625E-4,0.04296875,-0.0625,-0.25,0.0,0.0,0.0,0.0
1665676846680,-1.0039062,0.005859375,0.03515625,0.21875,-0.875,-0.25,0.0,0.0,0.0
1665676846713,-1.0078125,0.0087890625,0.038085938,0.0,-0.375,-0.125,0.0,0.0,0.0
1665676846740,-1.0068359,0.0029296875,0.038085938,0.15625,-0.625,0.0,-63.3125,13.8125,-148.6875
1665676846773,-1.0068359,0.005859375,0.034179688,0.15625,-0.6875,-0.3125,0.0,0.0,0.0
1665676846833,-1.0117188,9.765625E-4,0.033203125,0.15625,-0.1875,-0.0625,0.0,0.0,0.0
1665676846860,-1.0058594,-9.765625E-4,0.034179688,-0.0625,-0.6875,-0.5,0.0,0.0,0.0
1665676846890,-1.0078125,-0.00390625,0.04296875,0.21875,-0.5,-0.0625,0.0,0.0,0.0
1665676846953,-1.0126953,-0.001953125,0.04296875,0.03125,-0.6875,-0.0625,0.0,0.0,0.0
1665676846981,-1.0097656,0.00390625,0.0390625,0.34375,-0.9375,-0.25,0.0,0.0,0.0
1665676847012,-1.0009766,-0.0029296875,0.036132812,0.09375,-0.5625,0.09375,0.0,0.0,0.0
1665676847071,-1.0,0.0068359375,0.041992188,0.09375,-0.375,-0.125,0.0,0.0,0.0
1665676847103,-1.0166016,0.0,0.047851562,0.09375,-0.4375,-0.0625,0.0,0.0,0.0
1665676847132,-1.0058594,0.0146484375,0.033203125,0.28125,-0.625,-0.0625,0.0,0.0,0.0
1665676847192,-1.0117188,0.0029296875,0.032226562,0.09375,-0.1875,0.09375,0.0,0.0,0.0
1665676847220,-1.0068359,0.0068359375,0.041992188,-0.0625,-0.5625,0.0,-64.9375,15.1875,-149.125
1665676847250,-1.0126953,0.018554688,0.041992188,0.15625,-0.375,-0.1875,0.0,0.0,0.0
1665676847312,-1.0136719,0.0078125,0.026367188,0.03125,-0.875,-0.1875,0.0,0.0,0.0
1665676847340,-1.0087891,0.00390625,0.046875,0.09375,-0.4375,0.03125,0.0,0.0,0.0
1665676847372,-1.0029297,-9.765625E-4,0.020507812,-0.125,-0.375,-0.125,0.0,0.0,0.0
1665676847431,-0.9980469,9.765625E-4,0.046875,-0.0625,-0.1875,0.15625,0.0,0.0,0.0
1665676847461,-1.0097656,0.0068359375,0.021484375,0.09375,-0.75,-0.0625,0.0,0.0,0.0
1665676847492,-1.0097656,0.001953125,0.036132812,0.0,0.15625,-0.1875,0.0,0.0,0.0
1665676847551,-1.0087891,0.0087890625,0.041015625,0.15625,-0.25,0.28125,0.0,0.0,0.0
1665676847582,-1.0048828,0.00390625,0.038085938,0.15625,-0.3125,-0.1875,0.0,0.0,0.0
1665676847611,-1.015625,0.0048828125,0.034179688,0.34375,-0.375,0.0,0.0,0.0,0.0
1665676847672,-1.0126953,0.0068359375,0.041015625,0.03125,-0.3125,-0.0625,0.0,0.0,0.0
1665676847700,-1.0097656,0.0087890625,0.028320312,0.0,-0.875,0.0,0.0,0.0,0.0
1665676847764,-1.0087891,0.0078125,0.02734375,0.21875,-0.25,0.03125,-64.1875,13.375,-149.875
1665676847793,-1.0097656,0.005859375,0.0390625,0.09375,-0.875,-0.25,0.0,0.0,0.0
1665676847821,-1.0126953,0.0048828125,0.032226562,0.21875,-0.6875,-0.0625,0.0,0.0,0.0
1665676847858,-1.0107422,-0.001953125,0.040039062,0.21875,-0.625,-0.125,0.0,0.0,0.0
1665676847910,-1.0126953,0.0048828125,0.029296875,0.46875,-0.6875,0.03125,0.0,0.0,0.0
1665676847945,-1.0117188,0.00390625,0.04296875,0.34375,-0.5625,0.21875,0.0,0.0,0.0
1665676847970,-1.0126953,0.0029296875,0.03515625,0.59375,-0.625,0.09375,0.0,0.0,0.0
1665676848031,-1.0048828,0.001953125,0.033203125,-0.0625,-0.0625,-0.03125,0.0,0.0,0.0
1665676848061,-1.0039062,0.009765625,0.036132812,0.0,0.1875,0.15625,0.0,0.0,0.0
1665676848093,-1.015625,-0.0029296875,0.0390625,-0.1875,0.25,-0.09375,0.0,0.0,0.0
1665676848151,-1.0097656,-0.005859375,0.0390625,-0.1875,-0.0625,-0.15625,0.0,0.0,0.0
1665676848181,-1.0029297,0.0126953125,0.034179688,0.125,0.125,-0.09375,0.0,0.0,0.0
1665676848242,-1.0068359,0.001953125,0.037109375,-0.25,-0.125,0.15625,-63.875,15.1875,-148.875
1665676848272,-1.0224609,0.005859375,0.041015625,-0.25,0.3125,-0.09375,0.0,0.0,0.0
1665676848303,-1.0087891,9.765625E-4,0.041992188,-0.4375,0.25,-0.03125,0.0,0.0,0.0
1665676848333,-1.0078125,0.01171875,0.034179688,0.0,0.0,-0.03125,0.0,0.0,0.0
1665676848392,-1.0058594,0.020507812,0.037109375,-0.25,0.3125,-0.21875,0.0,0.0,0.0
1665676848422,-1.0078125,0.0107421875,0.038085938,-0.125,0.1875,0.09375,0.0,0.0,0.0
1665676848452,-1.0029297,-0.0029296875,0.040039062,0.125,-0.125,-0.4375,0.0,0.0,0.0
1665676848512,-1.0039062,-0.001953125,0.04296875,0.25,-0.3125,-0.34375,0.0,0.0,0.0
1665676848544,-1.0107422,-0.0029296875,0.033203125,-0.0625,-0.1875,-0.75,0.0,0.0,0.0
1665676848571,-1.0058594,0.0048828125,0.041015625,-0.0625,0.0625,-0.21875,0.0,0.0,0.0
1665676848634,-1.0097656,0.0087890625,0.033203125,-0.3125,0.3125,-0.15625,0.0,0.0,0.0
1665676848661,-1.0126953,0.0029296875,0.026367188,-0.1875,0.46875,-0.15625,0.0,0.0,0.0
1665676848690,-1.0126953,0.0029296875,0.034179688,-0.1875,0.34375,0.34375,0.0,0.0,0.0
1665676848781,-1.0058594,0.0068359375,0.034179688,-0.3125,0.78125,0.09375,-64.0625,15.0625,-149.0
1665676848783,-1.0166016,-0.001953125,0.038085938,-0.25,0.3125,0.15625,0.0,0.0,0.0
1665676848811,-1.0087891,0.0068359375,0.038085938,-0.1875,0.84375,0.28125,0.0,0.0,0.0
1665676848871,-1.0097656,0.005859375,0.04296875,-0.1875,0.59375,0.21875,0.0,0.0,0.0
1665676848901,-1.0029297,0.005859375,0.038085938,-0.1875,1.03125,0.28125,0.0,0.0,0.0
1665676848930,-1.0048828,0.0068359375,0.05078125,-0.3125,0.84375,0.21875,0.0,0.0,0.0
1665676848991,-1.0126953,0.001953125,0.040039062,-0.4375,0.90625,0.21875,0.0,0.0,0.0
1665676849023,-1.0166016,0.009765625,0.041015625,-0.3125,0.71875,0.21875,0.0,0.0,0.0
1665676849052,-1.0136719,0.0029296875,0.025390625,-0.1875,0.78125,0.34375,0.0,0.0,0.0
1665676849111,-1.0039062,0.0087890625,0.034179688,-0.375,0.78125,0.46875,0.0,0.0,0.0
1665676849146,-1.0097656,0.0107421875,0.038085938,-0.0625,0.65625,0.09375,0.0,0.0,0.0
1665676849172,-1.0078125,9.765625E-4,0.037109375,-0.3125,0.96875,0.34375,0.0,0.0,0.0
1665676849231,-1.0068359,0.001953125,0.032226562,-0.1875,0.96875,0.53125,-63.875,13.6875,-148.875
1665676849261,-1.0058594,0.0107421875,0.033203125,-0.1875,0.71875,0.21875,0.0,0.0,0.0
1665676849293,-1.0087891,0.0048828125,0.04296875,-0.53125,0.84375,-0.09375,0.0,0.0,0.0
1665676849351,-1.0087891,0.0029296875,0.0390625,-0.4375,0.90625,0.15625,0.0,0.0,0.0
1665676849381,-1.0126953,0.0068359375,0.026367188,-0.4375,0.96875,0.21875,0.0,0.0,0.0
1665676849411,-1.0097656,0.0107421875,0.046875,-0.375,0.65625,0.21875,0.0,0.0,0.0
1665676849472,-1.0166016,0.0107421875,0.045898438,-0.84375,0.84375,0.40625,0.0,0.0,0.0
1665676849503,-1.0078125,0.0078125,0.024414062,-0.25,0.34375,-0.34375,0.0,0.0,0.0
1665676849536,-1.0136719,0.0068359375,0.036132812,-0.4375,0.96875,-0.09375,0.0,0.0,0.0
1665676849592,-1.0117188,0.0029296875,0.028320312,-0.53125,0.78125,0.21875,0.0,0.0,0.0
1665676849622,-1.0029297,0.0078125,0.0390625,-0.25,0.65625,-0.28125,0.0,0.0,0.0
1665676849652,-1.0175781,0.001953125,0.043945312,-0.4375,0.53125,0.09375,0.0,0.0,0.0
1665676849711,-1.0146484,0.0048828125,0.043945312,-0.3125,0.71875,0.15625,0.0,0.0,0.0
1665676849742,-1.0126953,0.0087890625,0.028320312,-0.25,0.3125,0.21875,-64.1875,14.75,-149.625
1665676849772,-1.0166016,9.765625E-4,0.044921875,-0.1875,0.90625,0.21875,0.0,0.0,0.0
1665676849832,-1.0048828,0.0068359375,0.028320312,-0.25,0.84375,0.46875,0.0,0.0,0.0
1665676849863,-1.0068359,0.0078125,0.034179688,-0.25,0.65625,0.09375,0.0,0.0,0.0
1665676849892,-1.0107422,0.0048828125,0.032226562,-0.5,0.96875,0.03125,0.0,0.0,0.0
1665676849952,-1.015625,0.0048828125,0.028320312,-0.1875,0.65625,0.40625,0.0,0.0,0.0
1665676849984,-1.0078125,0.0078125,0.030273438,-0.3125,1.09375,0.21875,0.0,0.0,0.0
1665676850011,-1.0058594,0.0078125,0.0234375,-0.3125,-0.125,0.34375,0.0,0.0,0.0
1665676850077,-1.0166016,0.00390625,0.026367188,-0.59375,1.21875,0.28125,0.0,0.0,0.0
1665676850103,-1.0087891,9.765625E-4,0.041992188,-0.375,0.34375,0.21875,0.0,0.0,0.0
1665676850132,-1.0078125,0.0146484375,0.034179688,-0.3125,0.40625,0.15625,0.0,0.0,0.0
1665676850192,-1.0136719,0.009765625,0.034179688,-0.1875,0.53125,0.09375,0.0,0.0,0.0
1665676850224,-1.0087891,9.765625E-4,0.02734375,-0.375,0.84375,0.09375,-65.375,14.75,-149.625
1665676850252,-1.0068359,0.0107421875,0.022460938,-0.3125,0.0625,0.46875,0.0,0.0,0.0
1665676850314,-1.0166016,0.0126953125,0.030273438,-0.4375,0.65625,-0.09375,0.0,0.0,0.0
1665676850342,-1.0058594,0.0068359375,0.03515625,-0.5,0.53125,0.59375,0.0,0.0,0.0
1665676850371,-1.0166016,9.765625E-4,0.04296875,0.0,0.53125,0.21875,0.0,0.0,0.0
1665676850431,-1.015625,0.00390625,0.030273438,-0.1875,0.53125,0.21875,0.0,0.0,0.0
1665676850462,-1.0087891,0.001953125,0.03125,-0.25,0.40625,0.59375,0.0,0.0,0.0
1665676850490,-1.0068359,0.0068359375,0.03515625,-0.125,0.25,0.28125,0.0,0.0,0.0
1665676850552,-1.0126953,0.0068359375,0.03515625,-0.3125,0.65625,0.09375,0.0,0.0,0.0
1665676850581,-1.0136719,0.0087890625,0.029296875,-0.25,0.3125,0.15625,0.0,0.0,0.0
1665676850612,-1.0107422,0.0107421875,0.026367188,-0.1875,0.34375,-0.03125,0.0,0.0,0.0
1665676850670,-0.99902344,0.001953125,0.0234375,-0.1875,0.96875,0.21875,0.0,0.0,0.0
1665676850703,-1.0068359,0.0087890625,0.025390625,-0.25,0.53125,-0.15625,0.0,0.0,0.0
1665676850731,-1.0087891,0.0048828125,0.032226562,-0.125,0.34375,0.28125,-64.5,13.8125,-149.3125
1665676850794,-1.0126953,0.0068359375,0.034179688,-0.3125,0.96875,-0.03125,0.0,0.0,0.0
1665676850820,-1.0068359,0.0126953125,0.02734375,-0.25,0.84375,-0.21875,0.0,0.0,0.0
1665676850851,-1.0136719,0.0146484375,0.033203125,-0.375,0.40625,0.21875,0.0,0.0,0.0
1665676850910,-1.0048828,0.0029296875,0.029296875,-0.53125,1.46875,0.21875,0.0,0.0,0.0
1665676850944,-1.0117188,0.001953125,0.034179688,-0.375,0.3125,0.09375,0.0,0.0,0.0
1665676850973,-1.0126953,0.0107421875,0.038085938,-0.25,0.40625,-0.15625,0.0,0.0,0.0
1665676851061,-1.0029297,0.00390625,0.030273438,-0.4375,0.25,0.09375,0.0,0.0,0.0
1665676851064,-1.0126953,0.0078125,0.026367188,-0.25,0.40625,0.28125,0.0,0.0,0.0
1665676851090,-1.0117188,9.765625E-4,0.021484375,-0.1875,0.3125,0.03125,0.0,0.0,0.0
1665676851153,-1.0,0.0126953125,0.036132812,0.125,0.40625,0.34375,0.0,0.0,0.0
1665676851181,-1.0136719,-9.765625E-4,0.029296875,-0.3125,0.59375,-0.03125,0.0,0.0,0.0
1665676851213,-1.0107422,0.0029296875,0.038085938,-0.125,0.59375,-0.09375,-63.75,15.625,-148.6875
1665676851272,-1.0039062,0.00390625,0.043945312,-0.53125,0.34375,-0.28125,0.0,0.0,0.0
1665676851301,-1.015625,0.005859375,0.044921875,-0.4375,0.65625,-0.4375,0.0,0.0,0.0
1665676851330,-1.0136719,0.005859375,0.0234375,-0.59375,0.65625,-0.625,0.0,0.0,0.0
1665676851393,-1.0048828,0.0048828125,0.038085938,-0.25,0.3125,0.03125,0.0,0.0,0.0
1665676851423,-1.0126953,0.0048828125,0.03515625,0.25,0.40625,-0.03125,0.0,0.0,0.0
1665676851450,-1.0136719,-0.001953125,0.038085938,0.125,0.3125,0.09375,0.0,0.0,0.0
1665676851512,-1.0117188,0.0146484375,0.029296875,0.125,0.71875,0.21875,0.0,0.0,0.0
1665676851543,-1.0166016,0.015625,0.026367188,-0.1875,0.25,0.34375,0.0,0.0,0.0
1665676851573,-0.99902344,0.01171875,0.024414062,-0.125,0.0,0.46875,0.0,0.0,0.0
1665676851633,-1.0087891,0.0107421875,0.033203125,-0.3125,0.3125,0.34375,0.0,0.0,0.0
1665676851662,-1.0117188,-9.765625E-4,0.041015625,-0.4375,0.25,0.09375,0.0,0.0,0.0
1665676851691,-1.0117188,-9.765625E-4,0.034179688,-0.3125,-0.1875,-0.09375,0.0,0.0,0.0
1665676851751,-1.0166016,0.0087890625,0.032226562,-0.375,1.03125,0.34375,-65.375,14.75,-149.125
1665676851782,-1.0205078,0.013671875,0.048828125,-0.1875,0.53125,-0.03125,0.0,0.0,0.0
1665676851814,-1.0068359,0.01171875,0.02734375,-0.0625,0.1875,0.21875,0.0,0.0,0.0
1665676851872,-1.0136719,0.0048828125,0.038085938,0.0,0.65625,-0.03125,0.0,0.0,0.0
1665676851902,-1.0166016,0.020507812,0.041992188,-0.1875,0.34375,0.03125,0.0,0.0,0.0
1665676851931,-1.0107422,0.001953125,0.026367188,-0.25,0.0625,0.21875,0.0,0.0,0.0
1665676851992,-1.015625,0.00390625,0.03515625,-0.1875,0.1875,-0.09375,0.0,0.0,0.0
1665676852022,-1.0117188,0.001953125,0.037109375,-0.53125,0.96875,0.15625,0.0,0.0,0.0
1665676852053,-1.0146484,0.0068359375,0.030273438,-0.1875,0.0625,0.09375,0.0,0.0,0.0
1665676852112,-1.0097656,0.0087890625,0.032226562,-0.0625,0.78125,0.03125,0.0,0.0,0.0
1665676852143,-1.0136719,0.001953125,0.045898438,-0.25,0.25,0.34375,0.0,0.0,0.0
1665676852171,-1.0117188,0.0068359375,0.038085938,0.1875,0.3125,0.34375,0.0,0.0,0.0
1665676852232,-1.0087891,0.0126953125,0.030273438,-0.0625,0.3125,-0.03125,-64.5,14.5625,-149.75
1665676852262,-1.0068359,0.0078125,0.036132812,-0.1875,0.40625,0.09375,0.0,0.0,0.0
1665676852292,-1.0175781,0.009765625,0.0390625,-0.25,0.3125,0.21875,0.0,0.0,0.0
1665676852353,-1.0117188,-0.001953125,0.043945312,-0.3125,0.59375,0.09375,0.0,0.0,0.0
1665676852381,-1.015625,0.015625,0.038085938,-0.375,0.59375,0.21875,0.0,0.0,0.0
1665676852415,-1.0107422,0.0048828125,0.029296875,-0.1875,0.78125,0.09375,0.0,0.0,0.0
1665676852472,-1.0048828,0.0078125,0.03125,-0.53125,1.21875,0.40625,0.0,0.0,0.0
1665676852502,-1.0058594,0.0048828125,0.028320312,-0.125,0.65625,0.34375,0.0,0.0,0.0
1665676852532,-1.015625,0.00390625,0.025390625,-0.0625,0.3125,0.34375,0.0,0.0,0.0
1665676852592,-1.0087891,0.0146484375,0.03515625,-0.53125,0.65625,0.21875,0.0,0.0,0.0
1665676852622,-1.0068359,0.0048828125,0.034179688,-0.1875,0.34375,0.34375,0.0,0.0,0.0
1665676852652,-1.0097656,0.0087890625,0.034179688,0.0,0.34375,0.09375,0.0,0.0,0.0
1665676852712,-1.0126953,0.0146484375,0.038085938,-0.25,0.40625,0.03125,0.0,0.0,0.0
1665676852742,-1.0107422,0.00390625,0.0390625,-0.0625,0.125,0.09375,-63.3125,15.3125,-149.0
1665676852771,-1.0107422,0.022460938,0.0390625,-0.1875,0.59375,-0.15625,0.0,0.0,0.0
1665676852832,-0.99902344,0.0126953125,0.03515625,0.125,0.25,0.09375,0.0,0.0,0.0
1665676852862,-1.015625,0.0048828125,0.030273438,-0.1875,0.78125,-0.09375,0.0,0.0,0.0
1665676852891,-1.0107422,0.0048828125,0.020507812,-0.1875,0.84375,0.03125,0.0,0.0,0.0
1665676852952,-1.0009766,0.013671875,0.02734375,0.0,0.46875,0.15625,0.0,0.0,0.0
1665676852985,-1.0039062,0.009765625,0.041015625,-0.25,0.65625,0.09375,0.0,0.0,0.0
1665676853014,-1.0048828,0.0146484375,0.0390625,-0.0625,0.53125,0.53125,0.0,0.0,0.0
1665676853070,-1.0117188,0.0126953125,0.030273438,-0.25,0.59375,0.03125,0.0,0.0,0.0
1665676853102,-0.99902344,0.01171875,0.047851562,-0.5,0.25,-0.03125,0.0,0.0,0.0
1665676853130,-1.0126953,0.0068359375,0.029296875,-0.3125,0.78125,0.34375,0.0,0.0,0.0
1665676853189,-1.0117188,0.01171875,0.032226562,0.125,0.90625,0.59375,0.0,0.0,0.0
1665676853221,-1.0048828,0.01171875,0.048828125,-0.1875,0.78125,0.28125,-64.625,14.75,-148.875
1665676853252,-1.0146484,0.0068359375,0.025390625,-0.0625,0.71875,0.34375,0.0,0.0,0.0
1665676853341,-1.0146484,0.013671875,0.040039062,-0.125,0.71875,0.46875,0.0,0.0,0.0
1665676853344,-1.0058594,0.01171875,0.024414062,-0.25,0.0625,-0.28125,0.0,0.0,0.0
1665676853371,-1.0117188,0.017578125,0.04296875,-0.375,0.46875,0.03125,0.0,0.0,0.0
1665676853433,-1.0078125,0.0087890625,0.033203125,-0.25,0.125,-0.03125,0.0,0.0,0.0
1665676853461,-1.0166016,0.017578125,0.05078125,-0.4375,0.125,0.03125,0.0,0.0,0.0
1665676853496,-1.0048828,0.01171875,0.0234375,-0.25,0.0625,0.03125,0.0,0.0,0.0
1665676853550,-1.0146484,0.0078125,0.030273438,-0.3125,0.1875,-0.09375,0.0,0.0,0.0
1665676853582,-1.0087891,0.01953125,0.04296875,-0.1875,-0.0625,0.09375,0.0,0.0,0.0
1665676853612,-1.0136719,0.01953125,0.04296875,0.0,0.1875,0.28125,0.0,0.0,0.0
1665676853673,-1.0068359,0.005859375,0.043945312,-0.3125,-0.1875,-0.03125,0.0,0.0,0.0
1665676853702,-1.0117188,0.013671875,0.045898438,-0.1875,0.46875,-0.03125,0.0,0.0,0.0
1665676853732,-1.0175781,0.0048828125,0.056640625,-0.5,0.0625,0.03125,-64.625,15.1875,-149.625
1665676853791,-0.9980469,0.0087890625,0.03515625,-0.25,0.25,0.03125,0.0,0.0,0.0
1665676853823,-1.0019531,0.017578125,0.030273438,-0.1875,0.65625,0.53125,0.0,0.0,0.0
1665676853852,-1.0107422,0.0234375,0.041992188,-0.25,0.1875,0.03125,0.0,0.0,0.0
1665676853912,-1.0146484,0.0126953125,0.041992188,-0.125,0.59375,-0.15625,0.0,0.0,0.0
1665676853949,-1.0097656,0.015625,0.0234375,-0.25,0.25,0.34375,0.0,0.0,0.0
1665676853971,-1.0097656,0.0068359375,0.0390625,-0.25,-0.0625,0.03125,0.0,0.0,0.0
1665676854032,-1.015625,0.0048828125,0.033203125,-0.25,-0.375,-0.09375,0.0,0.0,0.0
1665676854063,-1.0087891,0.0068359375,0.03515625,-0.125,0.0,0.28125,0.0,0.0,0.0
1665676854091,-1.0146484,0.0087890625,0.043945312,-0.0625,0.34375,0.03125,0.0,0.0,0.0
1665676854153,-1.0087891,0.005859375,0.047851562,0.125,0.59375,0.34375,0.0,0.0,0.0
1665676854180,-1.0166016,0.017578125,0.036132812,-0.25,0.71875,0.21875,0.0,0.0,0.0
1665676854217,-1.0048828,0.01171875,0.0234375,-0.375,0.40625,0.15625,-63.0,12.8125,-147.375
1665676854271,-1.0039062,0.013671875,0.041992188,-0.1875,1.03125,0.34375,0.0,0.0,0.0
1665676854301,-1.0224609,0.0107421875,0.0390625,-0.65625,0.71875,0.34375,0.0,0.0,0.0
1665676854330,-1.0039062,0.020507812,0.034179688,-0.3125,0.25,0.15625,0.0,0.0,0.0
1665676854392,-0.9980469,0.0107421875,0.03515625,0.0625,0.25,0.53125,0.0,0.0,0.0
1665676854422,-1.0048828,0.01953125,0.026367188,-0.125,0.84375,0.34375,0.0,0.0,0.0
1665676854452,-1.0146484,0.018554688,0.033203125,-0.25,0.25,0.03125,0.0,0.0,0.0
1665676854512,-1.0029297,0.009765625,0.020507812,-0.1875,0.46875,0.03125,0.0,0.0,0.0
1665676854541,-1.0097656,0.016601562,0.041015625,-0.25,-0.5625,-0.5625,0.0,0.0,0.0
1665676854575,-1.0039062,0.0087890625,0.037109375,-0.1875,0.0,-0.4375,0.0,0.0,0.0
1665676854632,-1.0166016,0.009765625,0.034179688,-0.25,0.0625,-0.28125,0.0,0.0,0.0
1665676854662,-1.0058594,0.0029296875,0.03125,-0.1875,0.125,-0.09375,0.0,0.0,0.0
1665676854691,-1.0097656,0.01171875,0.029296875,-0.1875,0.71875,0.09375,0.0,0.0,0.0
1665676854752,-1.0058594,0.01171875,0.043945312,-0.375,0.34375,0.21875,-65.125,15.0625,-149.0
1665676854786,-1.0078125,0.0078125,0.041992188,-0.3125,0.34375,-0.21875,0.0,0.0,0.0
1665676854811,-1.0097656,0.015625,0.0390625,-0.65625,0.40625,0.21875,0.0,0.0,0.0
1665676854872,-1.0087891,0.015625,0.052734375,-0.125,0.34375,-0.21875,0.0,0.0,0.0
1665676854909,-1.0107422,0.013671875,0.040039062,-0.0625,0.84375,0.34375,0.0,0.0,0.0
1665676854930,-1.0107422,0.0107421875,0.0390625,-0.125,0.65625,-0.09375,0.0,0.0,0.0
1665676854991,-1.0185547,0.01171875,0.049804688,-0.1875,0.90625,-0.15625,0.0,0.0,0.0
1665676855021,-0.9921875,0.009765625,0.046875,-0.25,0.3125,-0.03125,0.0,0.0,0.0
1665676855051,-1.0058594,0.0146484375,0.03125,-0.1875,0.59375,0.03125,0.0,0.0,0.0
1665676855112,-1.0068359,0.013671875,0.032226562,-0.3125,0.125,0.21875,0.0,0.0,0.0
1665676855142,-1.0107422,0.005859375,0.033203125,-0.375,0.65625,-0.28125,0.0,0.0,0.0
1665676855171,-1.0097656,0.0126953125,0.045898438,-0.5,0.84375,0.21875,0.0,0.0,0.0
1665676855234,-1.0107422,0.0087890625,0.043945312,-0.65625,0.65625,-0.28125,-64.9375,14.125,-149.625
1665676855262,-1.0058594,0.009765625,0.03515625,-0.125,1.03125,-0.03125,0.0,0.0,0.0
1665676855292,-1.0117188,0.017578125,0.022460938,-0.1875,0.46875,0.03125,0.0,0.0,0.0
1665676855351,-1.0058594,0.009765625,0.034179688,-0.375,0.71875,-0.09375,0.0,0.0,0.0
1665676855383,-1.0136719,0.0107421875,0.03515625,-0.25,0.34375,0.09375,0.0,0.0,0.0
1665676855411,-1.0097656,0.005859375,0.032226562,-0.59375,0.59375,-0.09375,0.0,0.0,0.0
1665676855474,-1.0224609,0.0068359375,0.05078125,-0.375,0.40625,0.15625,0.0,0.0,0.0
1665676855501,-1.0058594,0.020507812,0.048828125,-0.0625,0.40625,0.15625,0.0,0.0,0.0
1665676855531,-1.0068359,0.0107421875,0.03125,-0.125,0.53125,0.21875,0.0,0.0,0.0
1665676855623,-0.9951172,0.01953125,0.037109375,-0.375,0.65625,0.15625,0.0,0.0,0.0
1665676855627,-1.0068359,0.015625,0.030273438,-0.59375,0.71875,-0.03125,0.0,0.0,0.0
1665676855652,-1.0107422,0.021484375,0.030273438,-0.5,0.46875,0.28125,0.0,0.0,0.0
1665676855710,-1.0107422,0.0126953125,0.04296875,0.0625,0.84375,0.09375,0.0,0.0,0.0
1665676855745,-1.0029297,0.021484375,0.028320312,-0.0625,0.53125,0.34375,-65.125,14.3125,-148.6875
1665676855770,-1.0146484,0.013671875,0.047851562,0.125,0.90625,-0.09375,0.0,0.0,0.0
1665676855832,-1.0126953,0.013671875,0.037109375,-0.1875,0.84375,0.21875,0.0,0.0,0.0
1665676855863,-1.0107422,0.0126953125,0.033203125,0.0,0.59375,0.28125,0.0,0.0,0.0
1665676855893,-1.0146484,0.009765625,0.029296875,-0.1875,1.21875,-0.03125,0.0,0.0,0.0
1665676855951,-1.0058594,0.0107421875,0.0390625,-0.1875,0.84375,0.03125,0.0,0.0,0.0
1665676855981,-1.0039062,0.01953125,0.029296875,0.0625,0.90625,-0.03125,0.0,0.0,0.0
1665676856012,-1.0107422,0.0107421875,0.02734375,-0.3125,0.84375,0.21875,0.0,0.0,0.0
1665676856071,-1.0078125,0.0029296875,0.029296875,-0.0625,0.53125,0.03125,0.0,0.0,0.0
1665676856105,-1.0068359,0.015625,0.03515625,-0.125,0.71875,-0.03125,0.0,0.0,0.0
1665676856136,-1.0068359,0.009765625,0.0234375,-0.25,0.25,0.03125,0.0,0.0,0.0
1665676856192,-1.0087891,0.0126953125,0.043945312,-0.25,0.46875,-0.03125,0.0,0.0,0.0
1665676856222,-1.0068359,0.015625,0.041015625,0.375,0.65625,0.28125,-64.1875,15.1875,-148.5625
1665676856251,-1.0068359,0.0146484375,0.036132812,0.84375,0.34375,0.53125,0.0,0.0,0.0
1665676856312,-1.0126953,0.018554688,0.038085938,0.4375,0.1875,0.28125,0.0,0.0,0.0
1665676856344,-1.0039062,0.029296875,0.047851562,0.375,0.3125,0.34375,0.0,0.0,0.0
1665676856372,-1.0058594,0.0146484375,0.034179688,-0.125,0.25,-0.15625,0.0,0.0,0.0
1665676856432,-1.015625,0.013671875,0.02734375,-0.25,0.46875,0.21875,0.0,0.0,0.0
1665676856460,-1.0068359,0.015625,0.041015625,-0.3125,0.1875,-0.21875,0.0,0.0,0.0
1665676856491,-1.0146484,0.009765625,0.028320312,-0.3125,0.34375,-0.09375,0.0,0.0,0.0
1665676856554,-1.0078125,0.0107421875,0.041992188,-0.1875,0.78125,0.28125,0.0,0.0,0.0
1665676856582,-1.0029297,0.0146484375,0.036132812,-0.125,0.46875,-0.21875,0.0,0.0,0.0
1665676856612,-1.0146484,0.016601562,0.021484375,-0.125,1.21875,-0.40625,0.0,0.0,0.0
1665676856672,-1.0136719,0.017578125,0.036132812,-0.375,1.34375,-0.28125,0.0,0.0,0.0
1665676856702,-1.0048828,0.01953125,0.026367188,-0.0625,0.96875,-0.21875,0.0,0.0,0.0
1665676856731,-1.0126953,0.0146484375,0.02734375,-0.59375,0.65625,-0.15625,-64.1875,14.125,-148.125
1665676856794,-1.0039062,0.009765625,0.036132812,-0.0625,0.46875,0.03125,0.0,0.0,0.0
1665676856822,-1.0166016,0.013671875,0.029296875,-0.53125,0.0625,-0.5,0.0,0.0,0.0
1665676856852,-1.0087891,0.009765625,0.021484375,-0.65625,0.25,-0.40625,0.0,0.0,0.0
1665676856911,-1.0097656,0.01171875,0.025390625,-0.25,0.40625,0.09375,0.0,0.0,0.0
1665676856942,-1.0107422,0.018554688,0.038085938,-0.0625,0.34375,-0.21875,0.0,0.0,0.0
1665676856970,-1.0048828,0.01171875,0.046875,-0.0625,0.46875,-0.28125,0.0,0.0,0.0
1665676857030,-1.0126953,0.013671875,0.040039062,-0.0625,0.59375,-0.09375,0.0,0.0,0.0
1665676857064,-1.0107422,0.01171875,0.029296875,0.0625,0.40625,-0.28125,0.0,0.0,0.0
1665676857091,-1.0039062,0.018554688,0.040039062,0.0625,0.40625,-0.34375,0.0,0.0,0.0
1665676857153,-1.0166016,0.0087890625,0.0390625,-0.53125,0.34375,-0.34375,0.0,0.0,0.0
1665676857182,-1.0117188,0.01953125,0.029296875,-0.125,0.1875,-0.21875,0.0,0.0,0.0
1665676857210,-1.0019531,0.0107421875,0.037109375,-0.65625,0.3125,-0.28125,-64.8125,14.5625,-149.0
1665676857272,-1.0097656,0.0146484375,0.036132812,-0.1875,0.40625,-0.4375,0.0,0.0,0.0
1665676857305,-1.0146484,0.0126953125,0.041992188,-0.3125,0.25,-0.09375,0.0,0.0,0.0
1665676857332,-1.0097656,0.0078125,0.04296875,-0.25,0.3125,-0.40625,0.0,0.0,0.0
1665676857391,-1.0048828,0.00390625,0.029296875,-0.1875,0.34375,-0.03125,0.0,0.0,0.0
1665676857420,-1.0097656,0.017578125,0.048828125,-0.25,0.125,-0.4375,0.0,0.0,0.0
1665676857450,-1.0087891,0.0126953125,0.029296875,-0.25,0.25,-0.21875,0.0,0.0,0.0
1665676857513,-1.0019531,0.0146484375,0.04296875,-0.0625,0.40625,0.03125,0.0,0.0,0.0
1665676857542,-1.0117188,0.015625,0.038085938,-0.25,0.25,-0.40625,0.0,0.0,0.0
1665676857576,-1.0029297,0.01171875,0.0390625,-0.4375,0.46875,0.03125,0.0,0.0,0.0
1665676857632,-1.0078125,0.01171875,0.036132812,-0.3125,0.25,-0.21875,0.0,0.0,0.0
1665676857662,-1.015625,0.013671875,0.047851562,-0.5,-0.3125,-0.03125,0.0,0.0,0.0
1665676857695,-1.0087891,0.0107421875,0.038085938,-0.3125,0.71875,0.09375,0.0,0.0,0.0
1665676857754,-1.0117188,0.0087890625,0.036132812,-0.71875,0.59375,-0.4375,-63.875,14.4375,-147.8125
1665676857782,-1.0039062,0.0146484375,0.049804688,-0.3125,0.3125,0.15625,0.0,0.0,0.0
1665676857813,-1.0126953,0.0126953125,0.038085938,-0.3125,0.0625,-0.15625,0.0,0.0,0.0
1665676857901,-1.015625,0.016601562,0.036132812,-0.1875,0.0625,-0.28125,0.0,0.0,0.0
1665676857903,-1.0097656,0.009765625,0.037109375,-0.25,-0.125,0.21875,0.0,0.0,0.0
1665676857931,-1.0136719,0.015625,0.053710938,-0.1875,0.125,-0.15625,0.0,0.0,0.0
1665676857994,-1.0126953,0.015625,0.04296875,-0.25,0.3125,-0.15625,0.0,0.0,0.0
1665676858022,-1.0048828,0.01171875,0.048828125,-0.25,0.34375,-0.21875,0.0,0.0,0.0
1665676858052,-1.0039062,0.015625,0.03125,0.1875,1.09375,-0.09375,0.0,0.0,0.0
1665676858111,-1.0097656,0.013671875,0.030273438,-0.59375,0.59375,-0.34375,0.0,0.0,0.0
1665676858142,-1.0107422,0.016601562,0.026367188,-0.125,0.53125,0.03125,0.0,0.0,0.0
1665676858172,-1.0078125,0.0087890625,0.038085938,-0.125,0.125,-0.21875,0.0,0.0,0.0
1665676858231,-1.0126953,0.0078125,0.03515625,-0.1875,0.34375,0.03125,-64.8125,15.0625,-149.3125
1665676858264,-1.0175781,0.005859375,0.037109375,0.0,0.125,0.09375,0.0,0.0,0.0
1665676858294,-1.0048828,0.015625,0.038085938,0.0625,0.0,-0.21875,0.0,0.0,0.0
1665676858352,-1.0175781,0.0107421875,0.036132812,-0.125,0.40625,0.21875,0.0,0.0,0.0
1665676858381,-1.0058594,0.01171875,0.034179688,0.25,0.25,0.40625,0.0,0.0,0.0
1665676858411,-1.0097656,0.016601562,0.048828125,-0.25,0.40625,-0.28125,0.0,0.0,0.0
1665676858472,-1.0039062,0.015625,0.040039062,0.0,0.46875,0.03125,0.0,0.0,0.0
1665676858501,-1.0097656,0.0126953125,0.036132812,-0.25,0.34375,-0.21875,0.0,0.0,0.0
1665676858531,-1.0107422,0.0146484375,0.040039062,-0.375,0.53125,-0.09375,0.0,0.0,0.0
1665676858591,-1.0097656,0.009765625,0.034179688,-0.4375,0.34375,-0.21875,0.0,0.0,0.0
1665676858621,-1.0048828,0.001953125,0.03125,-0.53125,0.46875,-0.15625,0.0,0.0,0.0
1665676858651,-1.0097656,0.0146484375,0.036132812,0.0,0.25,-0.03125,0.0,0.0,0.0
1665676858711,-1.0078125,0.017578125,0.03515625,-0.375,0.125,-0.34375,0.0,0.0,0.0
1665676858745,-1.0009766,0.013671875,0.032226562,-0.25,0.125,-0.15625,-64.1875,14.75,-148.125
1665676858773,-1.0175781,0.015625,0.037109375,-0.1875,0.40625,0.03125,0.0,0.0,0.0
1665676858832,-0.99609375,0.0126953125,0.036132812,-0.25,0.0625,0.03125,0.0,0.0,0.0
1665676858861,-1.0087891,0.013671875,0.037109375,-0.375,0.34375,-0.40625,0.0,0.0,0.0
1665676858892,-1.0185547,0.0126953125,0.041992188,-0.125,0.0,-0.15625,0.0,0.0,0.0
1665676858953,-1.0097656,0.0107421875,0.043945312,-0.125,0.59375,0.34375,0.0,0.0,0.0
1665676858983,-1.0058594,0.020507812,0.033203125,-0.25,0.78125,0.09375,0.0,0.0,0.0
1665676859012,-1.0117188,0.0126953125,0.038085938,-0.1875,0.46875,-0.03125,0.0,0.0,0.0
1665676859070,-1.0019531,0.017578125,0.04296875,-0.125,0.65625,0.09375,0.0,0.0,0.0
1665676859104,-1.0019531,0.024414062,0.033203125,-0.25,0.71875,0.15625,0.0,0.0,0.0
1665676859132,-1.0,0.0146484375,0.036132812,-0.5,0.1875,-0.09375,0.0,0.0,0.0
1665676859192,-1.0058594,0.018554688,0.028320312,-0.3125,0.40625,0.28125,0.0,0.0,0.0
1665676859223,-1.0058594,0.0107421875,0.029296875,-0.375,0.84375,0.21875,-64.625,15.5,-149.125
1665676859251,-1.015625,0.009765625,0.03515625,-0.3125,0.53125,-0.03125,0.0,0.0,0.0
1665676859311,-1.0097656,0.013671875,0.03515625,-0.1875,0.65625,0.34375,0.0,0.0,0.0
1665676859341,-1.0146484,0.017578125,0.037109375,-0.375,0.40625,-0.21875,0.0,0.0,0.0
1665676859373,-1.0058594,0.01171875,0.0390625,-0.375,0.71875,-0.03125,0.0,0.0,0.0
1665676859439,-1.0019531,0.017578125,0.040039062,-0.3125,0.25,0.03125,0.0,0.0,0.0
1665676859463,-1.0126953,0.0126953125,0.053710938,-0.0625,0.59375,-0.21875,0.0,0.0,0.0
1665676859492,-1.0078125,0.0107421875,0.033203125,-0.1875,0.78125,-0.15625,0.0,0.0,0.0
1665676859556,-1.0087891,0.0078125,0.037109375,-0.125,0.65625,-0.03125,0.0,0.0,0.0
1665676859583,-1.0078125,0.015625,0.02734375,-0.0625,1.09375,-0.21875,0.0,0.0,0.0
1665676859612,-1.0097656,0.0087890625,0.029296875,-0.1875,0.78125,0.03125,0.0,0.0,0.0
1665676859678,-1.0107422,0.0068359375,0.033203125,0.0,0.78125,-0.15625,0.0,0.0,0.0
1665676859702,-1.0,0.013671875,0.03515625,0.0,0.53125,0.28125,0.0,0.0,0.0
1665676859733,-1.0029297,0.0146484375,0.033203125,-0.5,0.1875,-0.15625,-66.0,15.5,-148.125
1665676859799,-1.0146484,0.015625,0.037109375,-0.3125,0.46875,-0.28125,0.0,0.0,0.0
1665676859822,-1.0058594,0.0126953125,0.0234375,-0.5,0.40625,0.21875,0.0,0.0,0.0
1665676859853,-0.99902344,0.0087890625,0.036132812,-0.125,0.84375,0.15625,0.0,0.0,0.0
1665676859914,-1.0058594,0.0107421875,0.034179688,-0.3125,0.3125,-0.03125,0.0,0.0,0.0
1665676859946,-1.0117188,0.0126953125,0.034179688,-0.1875,0.65625,0.03125,0.0,0.0,0.0
1665676859972,-1.0029297,0.017578125,0.029296875,-0.25,0.34375,-0.21875,0.0,0.0,0.0
1665676860034,-1.0019531,0.0126953125,0.03125,-0.0625,0.40625,-0.15625,0.0,0.0,0.0
1665676860063,-1.0166016,0.017578125,0.033203125,-0.375,0.59375,0.09375,0.0,0.0,0.0
1665676860094,-1.0097656,0.017578125,0.03125,-0.3125,0.53125,-0.15625,0.0,0.0,0.0
1665676860187,-1.0087891,0.0146484375,0.024414062,-0.375,0.65625,-0.34375,0.0,0.0,0.0
1665676860189,-1.0078125,0.013671875,0.037109375,-0.25,0.25,0.03125,0.0,0.0,0.0
1665676860213,-1.0087891,0.017578125,0.033203125,-0.25,0.0625,-0.34375,-66.625,13.8125,-149.0
1665676860278,-1.0107422,0.016601562,0.030273438,-0.3125,0.34375,0.09375,0.0,0.0,0.0
1665676860302,-1.0087891,0.01171875,0.0390625,-0.71875,0.59375,-0.28125,0.0,0.0,0.0
1665676860335,-1.0107422,0.0078125,0.041015625,-0.3125,0.46875,-0.15625,0.0,0.0,0.0
1665676860395,-1.0107422,0.0146484375,0.037109375,-0.125,0.46875,-0.15625,0.0,0.0,0.0
1665676860423,-1.0126953,0.015625,0.022460938,-0.1875,0.25,-0.28125,0.0,0.0,0.0
1665676860452,-1.0048828,0.016601562,0.028320312,-0.25,0.3125,-0.03125,0.0,0.0,0.0
1665676860520,-1.0136719,0.0146484375,0.048828125,-0.375,0.1875,-0.40625,0.0,0.0,0.0
1665676860544,-1.0107422,0.01953125,0.045898438,-0.4375,0.40625,-0.15625,0.0,0.0,0.0
1665676860573,-1.0136719,0.013671875,0.026367188,-0.4375,0.125,0.09375,0.0,0.0,0.0
1665676860637,-1.0097656,0.009765625,0.038085938,-0.1875,0.1875,-0.03125,0.0,0.0,0.0
1665676860662,-1.0126953,0.01171875,0.033203125,-0.5,0.34375,-0.15625,0.0,0.0,0.0
1665676860695,-1.0048828,0.009765625,0.05078125,-0.0625,-0.0625,0.28125,0.0,0.0,0.0
1665676860755,-1.0146484,0.0087890625,0.048828125,0.125,0.3125,-0.03125,-65.5625,15.625,-148.6875
1665676860783,-1.0068359,0.00390625,0.0234375,-0.125,0.1875,0.03125,0.0,0.0,0.0
1665676860816,-1.0107422,0.017578125,0.03515625,-0.1875,0.3125,-0.28125,0.0,0.0,0.0
1665676860874,-1.0019531,0.0126953125,0.02734375,-0.25,0.1875,-0.09375,0.0,0.0,0.0
1665676860903,-1.0058594,0.0107421875,0.034179688,-0.25,0.25,0.09375,0.0,0.0,0.0
1665676860933,-1.0126953,0.015625,0.040039062,-0.375,0.1875,-0.40625,0.0,0.0,0.0
1665676860997,-1.0097656,-0.001953125,0.0390625,-0.5,0.46875,-0.09375,0.0,0.0,0.0
1665676861024,-0.9980469,0.018554688,0.03125,0.0625,0.25,-0.09375,0.0,0.0,0.0
1665676861053,-1.0136719,0.015625,0.03125,-0.4375,0.40625,0.03125,0.0,0.0,0.0
1665676861114,-1.0068359,0.009765625,0.041992188,-0.65625,0.125,-0.15625,0.0,0.0,0.0
1665676861143,-1.0087891,0.0087890625,0.043945312,-0.71875,0.3125,-0.5,0.0,0.0,0.0
1665676861174,-1.0048828,0.0107421875,0.029296875,-0.25,0.0,0.15625,0.0,0.0,0.0
1665676861237,-1.0048828,0.013671875,0.033203125,0.0,0.25,-0.03125,-63.75,14.5625,-147.375
1665676861262,-1.0,0.005859375,0.028320312,-0.25,0.3125,-0.03125,0.0,0.0,0.0
1665676861294,-1.0126953,0.0087890625,0.043945312,-0.1875,0.59375,0.15625,0.0,0.0,0.0
1665676861356,-1.0136719,0.005859375,0.048828125,-0.125,0.25,-0.21875,0.0,0.0,0.0
1665676861382,-1.0117188,0.015625,0.033203125,-0.65625,0.34375,-0.21875,0.0,0.0,0.0
1665676861413,-1.0244141,0.0126953125,0.03125,-0.0625,0.40625,-0.15625,0.0,0.0,0.0
1665676861475,-1.0136719,0.017578125,0.037109375,0.0,0.0625,0.34375,0.0,0.0,0.0
1665676861502,-1.0058594,0.013671875,0.034179688,-0.0625,0.0,-0.09375,0.0,0.0,0.0
1665676861533,-1.0126953,0.017578125,0.040039062,0.0,0.65625,0.03125,0.0,0.0,0.0
1665676861596,-1.0087891,0.0234375,0.0390625,-0.125,0.0,0.15625,0.0,0.0,0.0
1665676861623,-1.0068359,0.017578125,0.030273438,-0.0625,0.40625,-0.03125,0.0,0.0,0.0
1665676861653,-1.0136719,0.0078125,0.029296875,-0.25,0.40625,-0.21875,0.0,0.0,0.0
1665676861713,-1.0029297,0.021484375,0.033203125,-0.25,0.3125,-0.15625,0.0,0.0,0.0
1665676861743,-1.0136719,9.765625E-4,0.030273438,-0.125,0.0625,-0.09375,-64.5,15.625,-148.375
1665676861773,-1.0029297,0.020507812,0.038085938,-0.4375,0.46875,-0.03125,0.0,0.0,0.0
1665676861835,-1.0068359,0.009765625,0.041992188,-0.375,0.0625,-0.34375,0.0,0.0,0.0
1665676861863,-1.0087891,0.0126953125,0.037109375,-0.1875,0.1875,-0.09375,0.0,0.0,0.0
1665676861892,-1.0048828,0.0087890625,0.038085938,-0.125,0.25,0.03125,0.0,0.0,0.0
1665676861955,-1.0087891,0.015625,0.03125,-0.375,0.40625,-0.03125,0.0,0.0,0.0
1665676861984,-1.0087891,0.017578125,0.038085938,-0.3125,0.46875,-0.03125,0.0,0.0,0.0
1665676862012,-1.0048828,0.01953125,0.0390625,-0.0625,0.71875,0.15625,0.0,0.0,0.0
1665676862078,-1.0097656,0.0078125,0.038085938,-0.4375,0.40625,-0.09375,0.0,0.0,0.0
1665676862103,-1.0029297,0.0126953125,0.037109375,-0.1875,0.46875,-0.03125,0.0,0.0,0.0
1665676862134,-1.0068359,0.0146484375,0.032226562,-0.375,0.3125,-0.09375,0.0,0.0,0.0
1665676862194,-1.0126953,0.01171875,0.048828125,-0.1875,0.53125,-0.03125,0.0,0.0,0.0
1665676862223,-1.0146484,0.015625,0.026367188,0.4375,0.34375,-0.03125,-64.9375,13.6875,-148.125
1665676862252,-1.0107422,0.01171875,0.036132812,0.0,0.40625,0.28125,0.0,0.0,0.0
1665676862315,-1.0058594,0.0107421875,0.041992188,-0.0625,0.46875,-0.03125,0.0,0.0,0.0
1665676862343,-1.0019531,0.0146484375,0.0390625,-0.0625,0.125,-0.40625,0.0,0.0,0.0
1665676862374,-1.0136719,0.016601562,0.037109375,-0.25,0.25,-0.09375,0.0,0.0,0.0
1665676862468,-1.0097656,0.01171875,0.038085938,-0.3125,0.25,-0.21875,0.0,0.0,0.0
1665676862470,-1.0058594,0.0146484375,0.036132812,-0.3125,0.40625,-0.03125,0.0,0.0,0.0
1665676862494,-1.0107422,0.015625,0.047851562,-0.25,0.125,-0.09375,0.0,0.0,0.0
1665676862557,-1.0117188,0.01171875,0.033203125,-0.3125,0.59375,0.28125,0.0,0.0,0.0
1665676862582,-1.0126953,0.0146484375,0.037109375,-0.25,0.65625,-0.15625,0.0,0.0,0.0
1665676862612,-1.0039062,0.01171875,0.033203125,-0.375,0.78125,-0.09375,0.0,0.0,0.0
1665676862677,-1.0126953,0.018554688,0.0390625,-0.53125,0.25,-0.09375,0.0,0.0,0.0
1665676862703,-1.0107422,0.026367188,0.026367188,-0.25,0.46875,-0.03125,0.0,0.0,0.0
1665676862733,-1.0107422,0.0146484375,0.045898438,-0.4375,0.0,-0.34375,-65.5625,15.0625,-148.6875
1665676862800,-1.0107422,0.0146484375,0.041992188,-0.375,0.25,-0.28125,0.0,0.0,0.0
1665676862823,-1.0126953,0.009765625,0.028320312,-0.78125,0.40625,-0.09375,0.0,0.0,0.0
1665676862852,-1.0,0.0107421875,0.025390625,-1.09375,0.78125,-0.03125,0.0,0.0,0.0
1665676862915,-1.0126953,0.015625,0.040039062,-0.25,0.34375,-0.15625,0.0,0.0,0.0
1665676862943,-1.0117188,0.016601562,0.024414062,-0.53125,0.53125,-0.15625,0.0,0.0,0.0
1665676862971,-1.0185547,0.021484375,0.02734375,-0.4375,0.84375,-0.15625,0.0,0.0,0.0
1665676863036,-1.0126953,0.0126953125,0.0390625,-0.5,0.71875,0.03125,0.0,0.0,0.0
1665676863063,-1.0009766,0.0107421875,0.038085938,-0.3125,0.34375,-0.21875,0.0,0.0,0.0
1665676863093,-1.0175781,0.01953125,0.046875,-0.1875,0.78125,-0.34375,0.0,0.0,0.0
1665676863156,-1.0097656,0.0078125,0.040039062,-0.59375,0.25,0.03125,0.0,0.0,0.0
1665676863182,-1.0136719,0.017578125,0.041992188,-0.1875,0.40625,-0.15625,0.0,0.0,0.0
1665676863215,-1.0048828,0.01171875,0.040039062,-0.25,0.65625,-0.03125,-64.625,14.75,-148.875
1665676863274,-1.0087891,0.016601562,0.03515625,-0.25,0.40625,0.09375,0.0,0.0,0.0
1665676863303,-1.0146484,0.017578125,0.01953125,-0.375,0.46875,-0.03125,0.0,0.0,0.0
1665676863334,-1.0019531,0.0087890625,0.037109375,-0.25,0.78125,-0.21875,0.0,0.0,0.0
1665676863394,-1.0126953,0.013671875,0.038085938,-0.25,0.90625,-0.09375,0.0,0.0,0.0
1665676863422,-1.0126953,0.01171875,0.036132812,-0.3125,0.59375,0.21875,0.0,0.0,0.0
1665676863452,-1.0136719,0.0107421875,0.024414062,-0.1875,0.46875,-0.09375,0.0,0.0,0.0
1665676863510,-1.0019531,0.01171875,0.036132812,-0.1875,0.90625,0.28125,0.0,0.0,0.0
1665676863542,-1.0068359,0.0078125,0.024414062,-0.53125,0.65625,-0.28125,0.0,0.0,0.0
1665676863572,-1.0048828,0.015625,0.03515625,-0.1875,0.78125,-0.15625,0.0,0.0,0.0
1665676863635,-1.0136719,0.015625,0.040039062,-0.375,0.65625,0.09375,0.0,0.0,0.0
1665676863660,-1.0205078,0.015625,0.040039062,-0.59375,0.3125,-0.09375,0.0,0.0,0.0
1665676863691,-1.0068359,0.01953125,0.03125,-0.375,1.15625,0.21875,0.0,0.0,0.0
1665676863751,-1.0126953,0.015625,0.032226562,-0.375,0.71875,-0.09375,-63.75,13.8125,-149.75
1665676863781,-1.0009766,0.0146484375,0.0234375,-0.3125,0.65625,-0.40625,0.0,0.0,0.0
1665676863813,-1.0136719,0.015625,0.009765625,-0.0625,0.46875,0.09375,0.0,0.0,0.0
1665676863873,-1.0048828,0.01171875,0.026367188,-0.4375,0.46875,-0.28125,0.0,0.0,0.0
1665676863902,-1.0087891,0.020507812,0.022460938,-0.0625,0.1875,-0.34375,0.0,0.0,0.0
1665676863932,-1.0097656,0.0107421875,0.0234375,-0.25,0.3125,0.34375,0.0,0.0,0.0
1665676863992,-1.0097656,0.0146484375,0.0234375,-0.3125,0.25,-0.21875,0.0,0.0,0.0
1665676864022,-1.0078125,0.015625,0.044921875,-0.0625,0.78125,0.09375,0.0,0.0,0.0
1665676864051,-1.0,0.0107421875,0.0390625,-0.25,0.3125,0.34375,0.0,0.0,0.0
1665676864111,-1.0,0.022460938,0.028320312,-0.1875,0.3125,-0.15625,0.0,0.0,0.0
1665676864146,-1.0097656,0.015625,0.040039062,-0.1875,0.59375,-0.03125,0.0,0.0,0.0
1665676864175,-1.0087891,0.020507812,0.036132812,-0.25,0.46875,0.34375,0.0,0.0,0.0
1665676864233,-1.0117188,0.016601562,0.032226562,-0.0625,0.3125,-0.09375,-64.8125,14.3125,-149.75
1665676864262,-1.0039062,0.016601562,0.029296875,-0.125,0.53125,0.15625,0.0,0.0,0.0
1665676864291,-1.0097656,0.015625,0.04296875,-0.3125,0.34375,0.03125,0.0,0.0,0.0
1665676864352,-1.0126953,0.01171875,0.038085938,-0.1875,0.84375,0.03125,0.0,0.0,0.0
1665676864382,-1.0146484,0.022460938,0.020507812,-0.25,0.125,0.21875,0.0,0.0,0.0
1665676864411,-1.0019531,0.01171875,0.03125,0.0,0.53125,-0.03125,0.0,0.0,0.0
1665676864472,-1.0039062,0.020507812,0.029296875,-0.25,0.25,-0.09375,0.0,0.0,0.0
1665676864502,-1.0146484,0.018554688,0.022460938,-0.0625,0.1875,0.09375,0.0,0.0,0.0
1665676864531,-1.0019531,0.01171875,0.033203125,-0.1875,0.53125,0.15625,0.0,0.0,0.0
1665676864593,-1.015625,0.016601562,0.024414062,-0.25,0.40625,0.03125,0.0,0.0,0.0
1665676864621,-1.0117188,0.020507812,0.046875,0.25,-0.125,-0.21875,0.0,0.0,0.0
1665676864653,-1.0136719,0.016601562,0.029296875,0.3125,0.1875,-0.03125,0.0,0.0,0.0
1665676864741,-1.0107422,0.015625,0.022460938,0.0625,0.46875,0.03125,0.0,0.0,0.0
1665676864745,-1.0019531,-0.00390625,0.0234375,0.0625,-0.375,0.03125,-64.9375,15.1875,-148.125
1665676864777,-1.0058594,0.022460938,0.038085938,-0.1875,0.65625,0.03125,0.0,0.0,0.0
1665676864837,-1.0126953,0.0126953125,0.020507812,-0.375,0.40625,-0.03125,0.0,0.0,0.0
1665676864860,-1.0048828,0.0107421875,0.0390625,0.0,0.3125,-0.15625,0.0,0.0,0.0
1665676864891,-1.0078125,0.017578125,0.032226562,0.0,0.40625,0.21875,0.0,0.0,0.0
1665676864951,-1.0087891,0.009765625,0.041992188,0.0,0.1875,-0.03125,0.0,0.0,0.0
1665676864984,-1.0136719,0.016601562,0.036132812,-0.1875,0.3125,-0.15625,0.0,0.0,0.0
1665676865014,-1.0068359,0.018554688,0.033203125,-0.0625,0.40625,-0.09375,0.0,0.0,0.0
1665676865072,-1.0136719,0.0126953125,0.0390625,0.0625,0.25,-0.15625,0.0,0.0,0.0
1665676865102,-1.0058594,0.0048828125,0.034179688,-0.25,0.0,-0.28125,0.0,0.0,0.0
1665676865133,-1.0078125,0.0087890625,0.029296875,-0.1875,0.3125,-0.09375,0.0,0.0,0.0
1665676865192,-1.0097656,0.0126953125,0.013671875,-0.125,0.3125,-0.09375,0.0,0.0,0.0
1665676865223,-1.0039062,0.0068359375,0.041992188,-0.1875,0.0625,-0.34375,-64.5,16.8125,-149.0
1665676865250,-1.0136719,0.0146484375,0.033203125,-0.1875,0.1875,-0.15625,0.0,0.0,0.0
1665676865311,-1.0048828,0.0107421875,0.046875,0.25,-0.25,-0.09375,0.0,0.0,0.0
1665676865342,-1.0126953,0.0107421875,0.0390625,-0.125,-0.0625,-0.03125,0.0,0.0,0.0
1665676865375,-1.0175781,0.0078125,0.0146484375,-0.59375,0.1875,-0.03125,0.0,0.0,0.0
1665676865430,-1.0019531,0.013671875,0.041992188,-0.0625,0.46875,0.28125,0.0,0.0,0.0
1665676865461,-1.0107422,0.022460938,0.03515625,-0.25,-0.125,-0.15625,0.0,0.0,0.0
1665676865491,-1.0136719,0.015625,0.025390625,-0.125,0.25,-0.09375,0.0,0.0,0.0
1665676865553,-1.0029297,0.01953125,0.0234375,-0.125,0.3125,0.15625,0.0,0.0,0.0
1665676865581,-1.0117188,0.015625,0.025390625,-0.25,0.0,-0.09375,0.0,0.0,0.0
1665676865617,-1.0058594,0.018554688,0.036132812,0.0,0.0625,0.09375,0.0,0.0,0.0
1665676865671,-1.0107422,0.017578125,0.03125,-0.3125,0.0,-0.21875,0.0,0.0,0.0
1665676865703,-1.0107422,0.017578125,0.037109375,-0.125,0.0625,-0.09375,0.0,0.0,0.0
1665676865735,-1.0068359,0.026367188,0.026367188,-0.25,0.34375,-0.15625,-64.1875,14.75,-148.875
1665676865796,-1.0058594,0.0126953125,0.024414062,-0.25,0.25,0.09375,0.0,0.0,0.0
1665676865821,-1.0078125,0.0107421875,0.038085938,-0.25,0.3125,0.28125,0.0,0.0,0.0
1665676865851,-1.0048828,0.0146484375,0.041015625,0.0625,0.34375,0.03125,0.0,0.0,0.0
1665676865913,-1.0126953,9.765625E-4,0.024414062,-0.3125,0.25,-0.15625,0.0,0.0,0.0
1665676865942,-1.0029297,0.01171875,0.025390625,-0.0625,0.3125,0.03125,0.0,0.0,0.0
1665676865973,-1.0107422,0.015625,0.025390625,-0.0625,0.65625,0.03125,0.0,0.0,0.0
1665676866031,-1.0136719,0.0107421875,0.033203125,-0.125,0.34375,-0.15625,0.0,0.0,0.0
1665676866063,-1.0039062,0.016601562,0.03515625,-0.0625,0.40625,-0.28125,0.0,0.0,0.0
1665676866090,-1.0117188,0.016601562,0.01953125,-0.4375,0.1875,0.09375,0.0,0.0,0.0
1665676866151,-1.0087891,0.01171875,0.026367188,-0.125,0.40625,-0.15625,0.0,0.0,0.0
1665676866186,-1.0068359,0.0146484375,0.032226562,-0.4375,0.3125,-0.15625,0.0,0.0,0.0
1665676866211,-1.0136719,0.0146484375,0.025390625,-0.1875,0.125,0.15625,-63.75,14.5625,-148.375
1665676866271,-1.0107422,0.0107421875,0.041015625,-0.375,0.65625,-0.15625,0.0,0.0,0.0
1665676866302,-1.015625,0.01171875,0.037109375,-0.1875,0.53125,0.15625,0.0,0.0,0.0
1665676866330,-1.0078125,0.01171875,0.038085938,-0.25,0.25,-0.15625,0.0,0.0,0.0
1665676866393,-1.0136719,0.024414062,0.0146484375,-0.125,0.1875,0.28125,0.0,0.0,0.0
1665676866422,-1.0068359,0.01171875,0.024414062,0.1875,0.46875,-0.03125,0.0,0.0,0.0
1665676866451,-1.0029297,0.0126953125,0.026367188,-0.0625,0.3125,0.15625,0.0,0.0,0.0
1665676866513,-1.0009766,0.015625,0.033203125,-0.1875,0.34375,-0.03125,0.0,0.0,0.0
1665676866541,-1.0107422,0.0146484375,0.022460938,-0.3125,0.34375,-0.09375,0.0,0.0,0.0
1665676866571,-1.0136719,0.001953125,0.041992188,-0.25,0.0625,-0.09375,0.0,0.0,0.0
1665676866636,-1.0048828,0.009765625,0.033203125,-0.25,0.0625,-0.28125,0.0,0.0,0.0
1665676866664,-1.0058594,0.017578125,0.028320312,-0.4375,0.0625,-0.34375,0.0,0.0,0.0
1665676866694,-1.0068359,0.0107421875,0.047851562,-0.25,0.3125,-0.40625,0.0,0.0,0.0
1665676866752,-1.015625,0.0126953125,0.03125,0.125,0.40625,-0.4375,-64.8125,15.625,-148.375
1665676866782,-1.0117188,0.00390625,0.033203125,-0.1875,0.1875,-0.09375,0.0,0.0,0.0
1665676866812,-1.0146484,0.017578125,0.034179688,0.125,0.1875,-0.21875,0.0,0.0,0.0
1665676866873,-1.0087891,0.0107421875,0.038085938,-0.125,0.1875,-0.21875,0.0,0.0,0.0
1665676866902,-1.015625,0.017578125,0.02734375,-0.375,0.46875,-0.03125,0.0,0.0,0.0
1665676866932,-1.0097656,0.0126953125,0.034179688,-0.25,0.40625,-0.15625,0.0,0.0,0.0
1665676867023,-0.99902344,0.01953125,0.033203125,-0.375,-0.0625,-0.21875,0.0,0.0,0.0
1665676867026,-1.0136719,0.018554688,0.030273438,-0.0625,0.1875,-0.09375,0.0,0.0,0.0
1665676867050,-1.0117188,0.00390625,0.03515625,-0.0625,0.25,0.09375,0.0,0.0,0.0
1665676867111,-1.0195312,0.022460938,0.03125,-0.125,0.40625,0.15625,0.0,0.0,0.0
1665676867142,-1.0136719,0.01171875,0.034179688,-0.1875,0.46875,-0.03125,0.0,0.0,0.0
1665676867171,-1.0107422,0.0146484375,0.040039062,-0.0625,0.1875,0.34375,0.0,0.0,0.0
1665676867232,-1.0,0.015625,0.040039062,-0.3125,0.125,-0.21875,-63.125,15.5,-147.8125
1665676867265,-1.0136719,0.0126953125,0.032226562,-0.5,0.125,0.03125,0.0,0.0,0.0
1665676867291,-1.0126953,0.015625,0.036132812,-0.25,0.125,-0.21875,0.0,0.0,0.0
1665676867352,-0.99609375,0.0107421875,0.040039062,-0.0625,0.3125,-0.03125,0.0,0.0,0.0
1665676867381,-0.99609375,0.01953125,0.034179688,0.0625,0.3125,-0.21875,0.0,0.0,0.0
1665676867412,-1.0029297,0.01171875,0.040039062,-0.4375,0.25,-0.15625,0.0,0.0,0.0
1665676867471,-1.0175781,0.021484375,0.033203125,0.25,0.53125,-0.03125,0.0,0.0,0.0
1665676867501,-1.0039062,0.0087890625,0.028320312,-0.3125,0.0,-0.09375,0.0,0.0,0.0
1665676867531,-1.015625,0.0078125,0.026367188,-0.3125,0.0,-0.03125,0.0,0.0,0.0
1665676867592,-1.0107422,0.013671875,0.033203125,-0.4375,-0.1875,-0.15625,0.0,0.0,0.0
1665676867620,-1.0058594,0.017578125,0.032226562,-0.25,-0.4375,-0.4375,0.0,0.0,0.0
1665676867652,-1.0126953,0.0107421875,0.030273438,-0.0625,0.0625,-0.15625,0.0,0.0,0.0
1665676867713,-1.0078125,0.0078125,0.044921875,0.0625,-0.125,-0.15625,0.0,0.0,0.0
1665676867741,-1.0048828,0.0107421875,0.036132812,-0.0625,0.53125,-0.09375,-63.625,14.4375,-148.125
1665676867771,-1.0126953,0.0126953125,0.03125,-0.25,0.125,0.03125,0.0,0.0,0.0
1665676867833,-1.0107422,0.01171875,0.0390625,-0.1875,0.34375,-0.15625,0.0,0.0,0.0
1665676867863,-1.0117188,0.01953125,0.041015625,-0.25,0.1875,0.28125,0.0,0.0,0.0
1665676867890,-1.0166016,0.01171875,0.034179688,-0.125,0.34375,0.09375,0.0,0.0,0.0
1665676867952,-1.0205078,0.0126953125,0.025390625,-0.1875,0.46875,-0.03125,0.0,0.0,0.0
1665676867984,-1.0146484,-9.765625E-4,0.048828125,-0.53125,0.3125,0.21875,0.0,0.0,0.0
1665676868013,-1.0107422,0.0107421875,0.049804688,-0.53125,0.96875,-0.03125,0.0,0.0,0.0
1665676868072,-1.0097656,0.01953125,0.044921875,-0.1875,0.78125,0.34375,0.0,0.0,0.0
1665676868102,-1.0029297,0.0107421875,0.034179688,-0.1875,0.71875,0.03125,0.0,0.0,0.0
1665676868140,-1.0,0.017578125,0.037109375,-0.1875,0.59375,0.09375,0.0,0.0,0.0
1665676868193,-1.0117188,0.018554688,0.0390625,-0.0625,0.46875,0.21875,0.0,0.0,0.0
1665676868225,-1.0078125,0.0107421875,0.03515625,-0.71875,0.65625,-0.34375,-64.8125,15.0625,-150.0625
1665676868252,-1.0097656,0.0078125,0.028320312,-0.1875,0.34375,0.28125,0.0,0.0,0.0
1665676868311,-1.0068359,0.0126953125,0.05078125,-0.375,0.65625,0.09375,0.0,0.0,0.0
1665676868342,-1.0136719,0.0087890625,0.048828125,-0.1875,0.59375,0.15625,0.0,0.0,0.0
1665676868372,-1.0009766,0.0078125,0.033203125,-0.25,0.96875,0.15625,0.0,0.0,0.0
1665676868433,-1.0146484,0.0029296875,0.038085938,-0.3125,0.65625,-0.03125,0.0,0.0,0.0
1665676868461,-1.0078125,0.017578125,0.033203125,-0.0625,0.78125,-0.09375,0.0,0.0,0.0
1665676868492,-1.0117188,0.0146484375,0.032226562,-0.125,0.1875,0.21875,0.0,0.0,0.0
1665676868553,-1.0087891,0.016601562,0.037109375,-0.3125,0.40625,-0.34375,0.0,0.0,0.0
1665676868580,-1.015625,0.0126953125,0.032226562,-0.1875,0.53125,0.03125,0.0,0.0,0.0
1665676868611,-1.0039062,0.020507812,0.032226562,-0.25,0.1875,0.21875,0.0,0.0,0.0
1665676868672,-1.0126953,0.017578125,0.026367188,-0.375,0.53125,-0.09375,0.0,0.0,0.0
1665676868705,-1.0136719,0.009765625,0.033203125,-0.1875,0.59375,0.21875,0.0,0.0,0.0
1665676868731,-1.0058594,0.0146484375,0.041015625,-0.1875,0.3125,0.21875,-64.1875,15.5,-150.1875
1665676868791,-1.0068359,0.013671875,0.03515625,-0.0625,0.53125,0.15625,0.0,0.0,0.0
1665676868822,-1.015625,0.018554688,0.033203125,-0.4375,-0.0625,-0.15625,0.0,0.0,0.0
1665676868850,-1.0097656,0.013671875,0.03515625,-0.25,0.0,0.15625,0.0,0.0,0.0
1665676868911,-1.0175781,0.015625,0.033203125,-0.5,0.53125,0.15625,0.0,0.0,0.0
1665676868942,-1.0117188,0.016601562,0.038085938,-0.1875,0.65625,0.21875,0.0,0.0,0.0
1665676868975,-1.0107422,0.01171875,0.04296875,-0.4375,0.71875,-0.09375,0.0,0.0,0.0
1665676869032,-1.0117188,0.0068359375,0.016601562,0.0,0.53125,-0.03125,0.0,0.0,0.0
1665676869061,-1.0078125,0.0087890625,0.029296875,-0.59375,0.78125,-0.03125,0.0,0.0,0.0
1665676869092,-1.0058594,0.013671875,0.021484375,-0.25,0.1875,-0.09375,0.0,0.0,0.0
1665676869154,-1.0078125,0.015625,0.045898438,-0.1875,0.34375,-0.09375,0.0,0.0,0.0
1665676869180,-1.0136719,0.009765625,0.040039062,-0.4375,0.1875,-0.15625,0.0,0.0,0.0
1665676869212,-1.0087891,0.005859375,0.037109375,-0.0625,0.53125,-0.03125,-63.625,15.1875,-148.5625
1665676869301,-1.0078125,0.016601562,0.045898438,-0.3125,0.65625,-0.15625,0.0,0.0,0.0
1665676869304,-1.0146484,0.01953125,0.026367188,-0.4375,0.3125,0.09375,0.0,0.0,0.0
1665676869332,-1.0136719,0.009765625,0.03125,-0.25,0.84375,0.09375,0.0,0.0,0.0
1665676869393,-1.0146484,0.017578125,0.048828125,-0.1875,0.46875,-0.09375,0.0,0.0,0.0
1665676869423,-1.0019531,0.01953125,0.03515625,-0.125,0.1875,0.09375,0.0,0.0,0.0
1665676869451,-1.0019531,0.015625,0.033203125,-0.1875,0.25,-0.15625,0.0,0.0,0.0
1665676869514,-1.0107422,0.015625,0.028320312,-0.1875,0.53125,-0.21875,0.0,0.0,0.0
1665676869544,-1.0126953,0.009765625,0.016601562,-0.25,0.25,0.09375,0.0,0.0,0.0
1665676869571,-1.0087891,0.022460938,0.024414062,-0.0625,0.65625,0.21875,0.0,0.0,0.0
1665676869631,-1.0146484,0.0126953125,0.034179688,-0.1875,0.59375,0.09375,0.0,0.0,0.0
1665676869661,-1.0048828,0.009765625,0.030273438,-0.375,0.125,0.03125,0.0,0.0,0.0
1665676869692,-1.0126953,0.0078125,0.046875,-0.25,-0.375,-0.15625,0.0,0.0,0.0
1665676869752,-1.0029297,0.017578125,0.022460938,-0.59375,0.1875,-0.03125,-65.375,13.375,-147.8125
1665676869784,-1.0009766,0.009765625,0.021484375,-0.4375,0.0,-0.03125,0.0,0.0,0.0
1665676869812,-1.0166016,0.0068359375,0.034179688,-0.4375,0.1875,-0.15625,0.0,0.0,0.0
1665676869873,-1.0146484,0.024414062,0.045898438,-0.25,-0.125,0.03125,0.0,0.0,0.0
1665676869901,-1.0107422,0.0146484375,0.0390625,-0.125,0.125,0.03125,0.0,0.0,0.0
1665676869935,-1.0039062,0.0107421875,0.03125,0.375,-0.1875,-0.0625,0.0,0.0,0.0
1665676869992,-1.0087891,0.01953125,0.040039062,0.375,-0.5,0.125,0.0,0.0,0.0
1665676870021,-1.0107422,0.018554688,0.0390625,-0.1875,-0.0625,0.125,0.0,0.0,0.0
1665676870051,-1.0175781,0.01171875,0.041992188,0.375,-0.3125,-0.125,0.0,0.0,0.0
1665676870111,-1.0117188,0.009765625,0.04296875,-0.125,0.0,0.0,0.0,0.0,0.0
1665676870141,-1.0058594,0.016601562,0.048828125,0.3125,-0.375,0.125,0.0,0.0,0.0
1665676870172,-1.0126953,0.0234375,0.034179688,-0.0625,-0.125,-0.1875,0.0,0.0,0.0
1665676870231,-1.0107422,0.016601562,0.044921875,-0.125,-0.1875,-0.0625,-65.875,15.625,-148.6875
1665676870263,-1.0068359,0.016601562,0.036132812,-0.0625,0.0625,0.125,0.0,0.0,0.0
1665676870292,-1.0107422,0.01953125,0.034179688,0.25,-0.1875,-0.0625,0.0,0.0,0.0
1665676870351,-1.0146484,0.013671875,0.028320312,0.125,0.0,-0.0625,0.0,0.0,0.0
1665676870380,-1.0097656,0.015625,0.036132812,0.0,-0.0625,0.0,0.0,0.0,0.0
1665676870411,-1.0068359,0.015625,0.041015625,0.3125,-0.1875,0.1875,0.0,0.0,0.0
1665676870471,-1.0058594,0.005859375,0.03515625,0.1875,0.0625,-0.125,0.0,0.0,0.0
1665676870502,-1.0117188,0.01953125,0.040039062,0.0,-0.1875,0.0625,0.0,0.0,0.0
1665676870530,-1.0048828,0.0107421875,0.0234375,0.0625,-0.125,-0.125,0.0,0.0,0.0
1665676870590,-1.0048828,0.025390625,0.040039062,0.125,-0.3125,0.125,0.0,0.0,0.0
1665676870620,-1.0107422,0.0107421875,0.041992188,-0.125,0.25,0.1875,0.0,0.0,0.0
1665676870653,-1.0,0.021484375,0.040039062,0.125,0.0,0.375,0.0,0.0,0.0
1665676870714,-0.9980469,0.015625,0.032226562,0.0625,-0.125,-0.25,0.0,0.0,0.0
1665676870742,-1.0058594,0.024414062,0.041015625,0.1875,0.25,0.0,-63.875,15.1875,-148.125
1665676870771,-1.015625,0.015625,0.0390625,0.25,-0.1875,0.125,0.0,0.0,0.0
1665676870832,-1.0126953,0.013671875,0.04296875,0.375,-0.375,0.0625,0.0,0.0,0.0
1665676870861,-1.0058594,0.01171875,0.025390625,0.125,0.0625,-0.1875,0.0,0.0,0.0
1665676870891,-1.0029297,0.005859375,0.03515625,-0.125,-0.0625,-0.1875,0.0,0.0,0.0
1665676870950,-1.015625,0.024414062,0.049804688,0.25,-0.25,-0.0625,0.0,0.0,0.0
1665676870981,-1.0058594,0.01171875,0.033203125,0.125,-0.3125,-0.40625,0.0,0.0,0.0
1665676871011,-1.0107422,0.0087890625,0.03125,0.0,-0.375,0.1875,0.0,0.0,0.0
1665676871073,-1.0087891,0.018554688,0.028320312,0.0,0.0,-0.1875,0.0,0.0,0.0
1665676871101,-1.0068359,0.01953125,0.040039062,0.0625,-0.125,0.125,0.0,0.0,0.0
1665676871130,-0.99902344,0.0146484375,0.05078125,0.375,-0.25,0.0625,0.0,0.0,0.0
1665676871191,-1.0019531,0.020507812,0.041015625,0.3125,-0.25,-0.0625,0.0,0.0,0.0
1665676871223,-1.0117188,0.0126953125,0.0390625,0.4375,0.125,0.0625,-64.5,15.3125,-147.9375
1665676871253,-1.0087891,0.013671875,0.041992188,0.3125,-0.4375,0.0,0.0,0.0,0.0
1665676871317,-1.0068359,0.009765625,0.04296875,-0.0625,0.0,0.125,0.0,0.0,0.0
1665676871340,-1.0136719,0.022460938,0.040039062,-0.1875,0.125,-0.125,0.0,0.0,0.0
1665676871370,-1.0136719,0.020507812,0.041015625,0.125,-0.25,-0.25,0.0,0.0,0.0
1665676871433,-1.0107422,0.013671875,0.044921875,0.375,0.0,-0.0625,0.0,0.0,0.0
1665676871461,-1.0117188,0.015625,0.0390625,0.53125,-0.65625,0.125,0.0,0.0,0.0
1665676871491,-1.0195312,0.021484375,0.0390625,0.125,0.0,0.125,0.0,0.0,0.0
1665676871582,-1.0078125,0.0146484375,0.041015625,0.0,0.125,0.25,0.0,0.0,0.0
1665676871585,-1.0029297,0.01953125,0.028320312,0.0,-0.125,-0.125,0.0,0.0,0.0
1665676871615,-1.0029297,0.022460938,0.029296875,0.0,0.0625,-0.0625,0.0,0.0,0.0
1665676871671,-1.0078125,0.0146484375,0.045898438,0.0,0.0,0.3125,0.0,0.0,0.0
1665676871702,-1.0107422,0.017578125,0.041992188,0.1875,0.25,-0.125,0.0,0.0,0.0
1665676871731,-1.0078125,0.009765625,0.034179688,0.25,-0.3125,0.25,-63.3125,15.3125,-147.375
1665676871792,-1.0058594,0.020507812,0.048828125,-0.0625,0.1875,-0.0625,0.0,0.0,0.0
1665676871821,-1.0097656,0.0234375,0.048828125,-0.0625,0.0625,-0.34375,0.0,0.0,0.0
1665676871852,-1.0078125,0.017578125,0.037109375,0.0625,0.25,-0.0625,0.0,0.0,0.0
1665676871911,-1.0087891,0.01171875,0.040039062,0.0625,0.125,-0.28125,0.0,0.0,0.0
1665676871941,-1.0107422,0.016601562,0.034179688,0.0,-0.1875,0.0625,0.0,0.0,0.0
1665676871972,-1.0078125,0.01953125,0.0546875,-0.125,0.3125,-0.1875,0.0,0.0,0.0
1665676872031,-1.0146484,0.020507812,0.05078125,-0.125,-0.1875,-0.25,0.0,0.0,0.0
1665676872065,-1.0117188,0.022460938,0.0390625,0.25,0.375,0.0625,0.0,0.0,0.0
1665676872091,-1.0126953,0.009765625,0.037109375,-0.1875,0.0,-0.0625,0.0,0.0,0.0
1665676872153,-1.0068359,0.022460938,0.032226562,0.25,0.375,-0.125,0.0,0.0,0.0
1665676872186,-1.0058594,0.0107421875,0.037109375,0.25,0.0625,0.125,0.0,0.0,0.0
1665676872212,-1.0,0.0087890625,0.038085938,0.0625,0.375,0.125,-62.375,15.9375,-147.5
1665676872271,-1.0087891,0.016601562,0.041015625,0.0,0.0625,0.0625,0.0,0.0,0.0
1665676872303,-1.0048828,0.028320312,0.040039062,-0.0625,0.1875,-0.25,0.0,0.0,0.0
1665676872331,-0.99902344,0.0146484375,0.0390625,0.0,0.125,0.0625,0.0,0.0,0.0
1665676872391,-1.0117188,0.018554688,0.040039062,0.0,-0.0625,0.3125,0.0,0.0,0.0
1665676872423,-0.99902344,0.018554688,0.020507812,-0.3125,0.375,-0.28125,0.0,0.0,0.0
1665676872451,-1.0009766,0.0126953125,0.0390625,0.0,0.3125,0.1875,0.0,0.0,0.0
1665676872511,-1.0039062,0.0107421875,0.041992188,0.25,0.25,0.25,0.0,0.0,0.0
1665676872540,-1.0078125,0.0107421875,0.026367188,0.0,0.0,-0.0625,0.0,0.0,0.0
1665676872570,-1.0087891,0.018554688,0.020507812,-0.0625,0.34375,-0.1875,0.0,0.0,0.0
1665676872633,-1.0097656,0.013671875,0.04296875,-0.3125,-0.03125,-0.125,0.0,0.0,0.0
1665676872663,-1.0,0.0126953125,0.026367188,-0.0625,-0.03125,-0.3125,0.0,0.0,0.0
1665676872691,-1.0009766,0.026367188,0.048828125,-0.0625,0.34375,-0.3125,0.0,0.0,0.0
1665676872751,-1.0048828,0.016601562,0.038085938,0.0,0.15625,0.125,-64.625,15.5,-149.125
1665676872782,-1.0136719,0.024414062,0.03515625,-0.125,-0.09375,-0.125,0.0,0.0,0.0
1665676872812,-1.0087891,0.024414062,0.037109375,-0.0625,-0.03125,-0.0625,0.0,0.0,0.0
1665676872871,-1.0048828,0.018554688,0.038085938,0.0625,0.15625,0.0625,0.0,0.0,0.0
1665676872902,-1.015625,0.020507812,0.047851562,-0.375,-0.59375,-0.375,0.0,0.0,0.0
1665676872932,-1.0058594,0.01953125,0.038085938,-0.5,-0.71875,-0.3125,0.0,0.0,0.0
1665676872992,-1.015625,0.015625,0.05078125,-0.3125,-0.53125,-0.25,0.0,0.0,0.0
1665676873021,-1.0058594,0.020507812,0.038085938,-0.4375,-0.15625,0.125,0.0,0.0,0.0
1665676873050,-1.0126953,0.013671875,0.04296875,-0.4375,-0.65625,-0.3125,0.0,0.0,0.0
1665676873110,-1.0107422,0.016601562,0.038085938,-0.375,0.28125,-0.1875,0.0,0.0,0.0
1665676873142,-1.0087891,0.0107421875,0.041992188,-0.1875,0.5,0.0,0.0,0.0,0.0
1665676873171,-1.0126953,0.018554688,0.02734375,-0.375,-0.09375,0.25,0.0,0.0,0.0
1665676873265,-1.0087891,0.017578125,0.045898438,-0.3125,0.40625,-0.375,-65.375,15.1875,-149.125
1665676873269,-1.0107422,0.018554688,0.05078125,-0.25,0.03125,0.0,0.0,0.0,0.0
1665676873294,-1.0039062,0.0107421875,0.06347656,0.0625,-0.21875,0.0,0.0,0.0,0.0
1665676873354,-1.0117188,0.017578125,0.044921875,-0.4375,0.15625,-0.125,0.0,0.0,0.0
1665676873383,-1.0048828,0.013671875,0.041015625,-0.5,0.21875,0.25,0.0,0.0,0.0
1665676873412,-1.0068359,0.018554688,0.044921875,-0.0625,0.03125,-0.125,0.0,0.0,0.0
1665676873471,-1.0029297,0.0146484375,0.041992188,-0.25,0.34375,-0.25,0.0,0.0,0.0
1665676873501,-1.0058594,0.02734375,0.041992188,-0.125,0.28125,0.0625,0.0,0.0,0.0
1665676873531,-1.0039062,0.020507812,0.029296875,0.0,0.34375,-0.25,0.0,0.0,0.0
1665676873591,-1.0107422,0.020507812,0.04296875,0.0625,0.34375,-0.0625,0.0,0.0,0.0
1665676873622,-1.0117188,0.017578125,0.02734375,-0.3125,-0.03125,-0.375,0.0,0.0,0.0
1665676873652,-1.0126953,0.0087890625,0.03515625,-0.375,0.34375,-0.0625,0.0,0.0,0.0
1665676873716,-1.0097656,0.013671875,0.04296875,-0.1875,0.09375,-0.3125,0.0,0.0,0.0
1665676873741,-1.0,0.016601562,0.043945312,-0.3125,-0.03125,-0.0625,-64.625,14.75,-147.5
1665676873773,-1.0185547,0.022460938,0.049804688,-0.25,-0.03125,0.125,0.0,0.0,0.0
1665676873862,-1.0136719,0.017578125,0.038085938,-0.5,-0.03125,-0.1875,0.0,0.0,0.0
1665676873866,-1.015625,0.0126953125,0.051757812,0.0,0.03125,0.5625,0.0,0.0,0.0
1665676873891,-1.0136719,0.024414062,0.044921875,-0.4375,-0.21875,-0.3125,0.0,0.0,0.0
1665676873951,-1.0048828,0.0087890625,0.05078125,-0.0625,-0.03125,-0.46875,0.0,0.0,0.0
1665676873982,-1.0087891,0.0146484375,0.046875,0.1875,0.28125,0.0,0.0,0.0,0.0
1665676874011,-1.0107422,0.009765625,0.03515625,-0.1875,0.15625,-0.1875,0.0,0.0,0.0
1665676874072,-1.0087891,0.016601562,0.02734375,-0.0625,0.625,-0.125,0.0,0.0,0.0
1665676874105,-1.0136719,0.022460938,0.044921875,0.0,0.5,0.0,0.0,0.0,0.0
1665676874131,-1.0097656,0.0107421875,0.046875,0.0,0.21875,0.0,0.0,0.0,0.0
1665676874193,-1.0029297,0.0146484375,0.030273438,-0.1875,0.34375,0.125,0.0,0.0,0.0
1665676874224,-1.0126953,0.016601562,0.048828125,-0.25,-0.09375,-0.1875,-64.8125,16.0625,-148.6875
1665676874254,-1.0087891,0.0048828125,0.02734375,-0.3125,0.8125,0.0,0.0,0.0,0.0
1665676874312,-1.0029297,0.0146484375,0.0390625,-0.125,0.46875,0.25,0.0,0.0,0.0
1665676874341,-1.0,0.0126953125,0.038085938,-0.4375,0.28125,-0.375,0.0,0.0,0.0
1665676874372,-1.0058594,0.01953125,0.034179688,0.0,0.40625,0.0,0.0,0.0,0.0
1665676874431,-1.0087891,0.01953125,0.045898438,-0.1875,-0.15625,-0.125,0.0,0.0,0.0
1665676874462,-1.0117188,0.016601562,0.038085938,0.0,0.21875,-0.0625,0.0,0.0,0.0
1665676874494,-1.0107422,0.01171875,0.03515625,0.25,-0.15625,-0.125,0.0,0.0,0.0
1665676874552,-1.0097656,0.015625,0.048828125,-0.5,0.09375,-0.375,0.0,0.0,0.0
1665676874582,-1.0087891,0.015625,0.045898438,0.0,0.15625,-0.0625,0.0,0.0,0.0
1665676874612,-1.0117188,0.01171875,0.032226562,-0.0625,0.21875,0.125,0.0,0.0,0.0
1665676874673,-1.0058594,0.0146484375,0.036132812,-0.125,0.34375,-0.3125,0.0,0.0,0.0
1665676874702,-1.0136719,0.016601562,0.036132812,-0.125,0.875,-0.1875,0.0,0.0,0.0
1665676874731,-1.0087891,0.01171875,0.037109375,0.0625,0.28125,-0.125,-64.5,14.3125,-148.375
1665676874793,-1.0136719,0.016601562,0.03515625,0.125,0.34375,-0.0625,0.0,0.0,0.0
1665676874823,-1.0097656,0.015625,0.040039062,-0.0625,-0.03125,0.0625,0.0,0.0,0.0
1665676874855,-1.0048828,0.0107421875,0.040039062,0.0,0.03125,-0.0625,0.0,0.0,0.0
1665676874912,-1.0126953,0.0126953125,0.030273438,0.0,0.15625,0.125,0.0,0.0,0.0
1665676874941,-1.0087891,0.01171875,0.024414062,-0.0625,0.09375,-0.125,0.0,0.0,0.0
1665676874972,-1.0009766,0.0087890625,0.034179688,-0.25,0.34375,0.0,0.0,0.0,0.0
1665676875034,-1.0107422,0.015625,0.041992188,-0.25,0.34375,-0.25,0.0,0.0,0.0
1665676875063,-1.0126953,0.017578125,0.0390625,-0.125,-0.21875,-0.1875,0.0,0.0,0.0
1665676875093,-1.0136719,0.015625,0.043945312,-0.125,-0.15625,-0.125,0.0,0.0,0.0
1665676875151,-1.0107422,0.01953125,0.034179688,-0.0625,-0.34375,-0.125,0.0,0.0,0.0
1665676875183,-1.0097656,0.0068359375,0.03125,0.0,0.46875,0.125,0.0,0.0,0.0
1665676875212,-1.0117188,0.020507812,0.018554688,0.0625,0.21875,0.0,-66.3125,15.0625,-148.6875
1665676875271,-1.0029297,0.005859375,0.029296875,-0.0625,-0.34375,-0.1875,0.0,0.0,0.0
1665676875302,-1.0078125,0.0146484375,0.036132812,0.1875,0.28125,-0.125,0.0,0.0,0.0
1665676875332,-1.0136719,0.017578125,0.032226562,0.0,-0.21875,-0.1875,0.0,0.0,0.0
1665676875392,-1.0029297,0.021484375,0.048828125,0.125,-0.53125,0.0625,0.0,0.0,0.0
1665676875421,-1.0107422,0.013671875,0.028320312,-0.0625,0.34375,0.0625,0.0,0.0,0.0
1665676875452,-1.0107422,0.01953125,0.028320312,-0.1875,-0.28125,-0.4375,0.0,0.0,0.0
1665676875511,-1.015625,0.009765625,0.025390625,0.0625,0.34375,-0.125,0.0,0.0,0.0
1665676875542,-1.0126953,0.0126953125,0.045898438,0.0,0.03125,-0.125,0.0,0.0,0.0
1665676875572,-1.0048828,0.0048828125,0.024414062,0.1875,-0.34375,0.0,0.0,0.0,0.0
1665676875631,-1.0078125,0.017578125,0.028320312,0.125,0.15625,-0.1875,0.0,0.0,0.0
1665676875662,-1.0117188,0.015625,0.0390625,-0.0625,0.03125,0.1875,0.0,0.0,0.0
1665676875695,-1.0117188,0.009765625,0.029296875,-0.125,0.03125,-0.1875,0.0,0.0,0.0
1665676875751,-1.0058594,0.0107421875,0.034179688,0.125,0.03125,0.125,-63.875,14.4375,-147.8125
1665676875785,-1.0039062,0.013671875,0.037109375,0.3125,0.15625,0.125,0.0,0.0,0.0
1665676875812,-1.0068359,0.018554688,0.029296875,-0.0625,0.15625,-0.25,0.0,0.0,0.0
1665676875871,-1.0019531,0.0126953125,0.028320312,0.125,0.15625,0.0625,0.0,0.0,0.0
1665676875903,-1.0009766,0.020507812,0.048828125,-0.0625,-0.03125,-0.1875,0.0,0.0,0.0
1665676875935,-1.0039062,0.0146484375,0.03515625,0.0,0.15625,-0.0625,0.0,0.0,0.0
1665676875992,-1.0107422,0.022460938,0.03125,0.1875,-0.28125,0.125,0.0,0.0,0.0
1665676876021,-1.0019531,0.015625,0.04296875,-0.0625,-0.28125,-0.0625,0.0,0.0,0.0
1665676876051,-1.0166016,0.020507812,0.024414062,-0.125,0.03125,-0.0625,0.0,0.0,0.0
1665676876143,-1.0087891,0.0146484375,0.03125,-0.0625,0.09375,0.0,0.0,0.0,0.0
1665676876145,-1.0107422,0.0107421875,0.025390625,-0.0625,-0.21875,-0.25,0.0,0.0,0.0
1665676876170,-1.0097656,0.015625,0.03515625,-0.0625,0.03125,-0.25,0.0,0.0,0.0
1665676876233,-1.0146484,0.016601562,0.044921875,0.0625,-0.28125,0.1875,-64.8125,15.0625,-148.375
1665676876261,-1.0097656,0.0126953125,0.032226562,0.125,-0.21875,-0.1875,0.0,0.0,0.0
1665676876291,-1.0107422,0.018554688,0.045898438,0.1875,-0.40625,-0.0625,0.0,0.0,0.0
1665676876355,-1.0068359,0.0146484375,0.044921875,-0.125,0.15625,-0.4375,0.0,0.0,0.0
1665676876382,-1.0107422,0.016601562,0.030273438,-0.0625,-0.09375,-0.1875,0.0,0.0,0.0
1665676876412,-1.0068359,0.024414062,0.051757812,0.1875,-0.09375,-0.1875,0.0,0.0,0.0
1665676876471,-1.0107422,0.020507812,0.030273438,-0.1875,-0.15625,-0.1875,0.0,0.0,0.0
1665676876502,-1.0117188,0.0146484375,0.032226562,-0.0625,-0.40625,-0.25,0.0,0.0,0.0
1665676876532,-1.0048828,0.009765625,0.025390625,0.125,0.28125,-0.0625,0.0,0.0,0.0
1665676876591,-1.0136719,0.00390625,0.033203125,0.0,-0.09375,-0.0625,0.0,0.0,0.0
1665676876622,-1.0097656,0.01171875,0.028320312,0.0625,-0.21875,0.375,0.0,0.0,0.0
1665676876651,-1.0117188,0.01953125,0.041015625,0.1875,-0.09375,0.125,0.0,0.0,0.0
1665676876712,-1.015625,0.018554688,0.03125,0.0,-0.09375,0.0625,0.0,0.0,0.0
1665676876742,-1.0058594,0.015625,0.040039062,0.1875,0.09375,0.1875,-64.8125,14.3125,-148.6875
1665676876771,-1.015625,0.016601562,0.049804688,0.0625,0.15625,0.125,0.0,0.0,0.0
1665676876832,-1.0019531,0.0146484375,0.029296875,0.0,-0.15625,0.3125,0.0,0.0,0.0
1665676876861,-1.0097656,0.0087890625,0.0390625,0.0,0.625,0.125,0.0,0.0,0.0
1665676876892,-1.0058594,0.01953125,0.041992188,0.0,0.03125,0.375,0.0,0.0,0.0
1665676876953,-1.0117188,0.0078125,0.043945312,-0.0625,-0.09375,0.0625,0.0,0.0,0.0
1665676876980,-1.0107422,0.015625,0.049804688,-0.125,0.28125,0.0625,0.0,0.0,0.0
1665676877010,-1.0029297,0.013671875,0.045898438,-0.3125,0.28125,0.125,0.0,0.0,0.0
1665676877072,-1.0117188,0.026367188,0.043945312,0.3125,0.09375,0.0,0.0,0.0,0.0
1665676877100,-1.0136719,0.009765625,0.022460938,-0.0625,-0.09375,-0.125,0.0,0.0,0.0
1665676877132,-1.0058594,0.018554688,0.026367188,0.0,0.21875,0.0,0.0,0.0,0.0
1665676877193,-1.0117188,0.009765625,0.037109375,0.0625,-0.03125,-0.0625,0.0,0.0,0.0
1665676877223,-1.0126953,0.0107421875,0.034179688,0.0,-0.34375,-0.1875,-65.5625,15.0625,-147.625
1665676877256,-1.0205078,0.0146484375,0.0390625,0.1875,0.28125,-0.0625,0.0,0.0,0.0
1665676877312,-1.0078125,0.0146484375,0.034179688,-0.1875,-0.09375,-0.25,0.0,0.0,0.0
1665676877342,-1.0126953,0.0107421875,0.034179688,0.125,-0.03125,0.0,0.0,0.0,0.0
1665676877372,-1.0166016,0.020507812,0.0234375,0.1875,0.09375,0.125,0.0,0.0,0.0
1665676877433,-1.0048828,0.015625,0.047851562,0.125,0.03125,-0.3125,0.0,0.0,0.0
1665676877466,-1.0087891,0.0126953125,0.038085938,0.0,0.15625,-0.0625,0.0,0.0,0.0
1665676877491,-1.0126953,0.021484375,0.034179688,-0.1875,-0.03125,-0.0625,0.0,0.0,0.0
1665676877551,-1.0039062,0.015625,0.044921875,-0.0625,0.03125,-0.1875,0.0,0.0,0.0
1665676877581,-1.015625,0.013671875,0.046875,0.0625,0.09375,-0.1875,0.0,0.0,0.0
1665676877611,-1.0097656,0.018554688,0.036132812,-0.0625,-0.03125,-0.25,0.0,0.0,0.0
1665676877673,-1.0048828,0.020507812,0.041015625,0.0,0.28125,-0.1875,0.0,0.0,0.0
1665676877702,-1.0117188,0.013671875,0.03125,-0.0625,-0.21875,-0.53125,0.0,0.0,0.0
1665676877732,-1.0166016,0.0078125,0.034179688,0.0625,0.21875,0.0,-65.125,15.3125,-150.0625
1665676877791,-1.0117188,0.013671875,0.034179688,-0.25,-0.15625,0.0,0.0,0.0,0.0
1665676877823,-1.0058594,0.020507812,0.038085938,0.0,0.09375,-0.125,0.0,0.0,0.0
1665676877854,-1.0068359,0.018554688,0.025390625,0.0,0.15625,-0.125,0.0,0.0,0.0
1665676877910,-1.0126953,0.015625,0.025390625,-0.125,0.15625,0.25,0.0,0.0,0.0
1665676877943,-1.0097656,0.016601562,0.032226562,-0.4375,0.40625,-0.0625,0.0,0.0,0.0
1665676877972,-1.0087891,0.005859375,0.041015625,-0.0625,0.09375,-0.125,0.0,0.0,0.0
1665676878031,-1.0087891,0.020507812,0.04296875,0.0,0.03125,-0.0625,0.0,0.0,0.0
1665676878061,-1.015625,0.017578125,0.03125,-0.3125,-0.09375,0.0625,0.0,0.0,0.0
1665676878092,-1.0097656,0.013671875,0.024414062,-0.0625,-0.09375,-0.375,0.0,0.0,0.0
1665676878151,-1.0107422,0.01171875,0.046875,0.0,0.28125,0.0625,0.0,0.0,0.0
1665676878183,-1.0136719,0.0087890625,0.047851562,0.0,-0.03125,0.0,0.0,0.0,0.0
1665676878210,-1.0087891,0.016601562,0.046875,-0.25,-0.21875,-0.1875,-62.375,15.5,-148.5625
1665676878272,-1.0117188,0.013671875,0.040039062,0.0,0.03125,-0.25,0.0,0.0,0.0
1665676878306,-1.0078125,0.0146484375,0.041015625,-0.3125,0.21875,0.0,0.0,0.0,0.0
1665676878332,-1.0009766,0.025390625,0.0390625,-0.25,-0.40625,0.125,0.0,0.0,0.0
1665676878424,-1.0107422,0.017578125,0.048828125,-0.0625,-0.09375,-0.4375,0.0,0.0,0.0
1665676878428,-1.0117188,0.013671875,0.04296875,-0.25,0.40625,0.3125,0.0,0.0,0.0
1665676878452,-1.015625,0.013671875,0.057617188,-0.0625,0.34375,-0.0625,0.0,0.0,0.0
1665676878517,-1.0039062,0.0146484375,0.04296875,0.3125,0.875,0.25,0.0,0.0,0.0
1665676878543,-1.0097656,0.022460938,0.038085938,0.125,0.28125,0.1875,0.0,0.0,0.0
1665676878573,-1.0097656,0.0107421875,0.038085938,-0.1875,0.40625,0.0625,0.0,0.0,0.0
1665676878635,-1.0146484,0.016601562,0.041015625,-0.1875,0.28125,-0.125,0.0,0.0,0.0
1665676878660,-1.0195312,0.0078125,0.028320312,-0.125,0.21875,0.125,0.0,0.0,0.0
1665676878692,-1.0058594,0.0146484375,0.041992188,-0.0625,-0.09375,-0.0625,0.0,0.0,0.0
1665676878754,-0.9980469,0.01953125,0.022460938,-0.25,0.15625,-0.3125,-63.125,14.4375,-149.625
1665676878782,-1.0058594,0.0107421875,0.040039062,0.0625,0.03125,0.0,0.0,0.0,0.0
1665676878812,-1.015625,0.01953125,0.033203125,0.0625,0.46875,0.0,0.0,0.0,0.0
1665676878878,-1.0058594,0.01953125,0.018554688,-0.375,0.875,0.25,0.0,0.0,0.0
1665676878901,-1.0,0.015625,0.029296875,-0.3125,0.6875,-0.1875,0.0,0.0,0.0
1665676878932,-1.0058594,0.0234375,0.0390625,-0.3125,0.40625,-0.125,0.0,0.0,0.0
1665676878996,-1.0068359,0.018554688,0.045898438,-0.3125,0.28125,-0.0625,0.0,0.0,0.0
1665676879023,-1.0107422,0.024414062,0.04296875,-0.375,0.40625,-0.125,0.0,0.0,0.0
1665676879052,-0.9980469,0.017578125,0.0390625,-0.125,-0.09375,-0.4375,0.0,0.0,0.0
1665676879115,-1.0048828,0.0068359375,0.029296875,-0.0625,-0.21875,0.0,0.0,0.0,0.0
1665676879142,-1.0048828,0.0126953125,0.043945312,0.0625,-0.15625,-0.0625,0.0,0.0,0.0
1665676879173,-1.0107422,0.0078125,0.041992188,0.0625,-0.15625,-0.25,0.0,0.0,0.0
1665676879235,-1.0087891,0.021484375,0.036132812,-0.0625,0.09375,0.1875,-65.375,15.1875,-148.875
1665676879262,-1.0136719,0.018554688,0.018554688,0.0,0.34375,0.0,0.0,0.0,0.0
1665676879294,-1.0097656,0.017578125,0.036132812,-0.375,0.15625,-0.0625,0.0,0.0,0.0
1665676879354,-1.0097656,0.017578125,0.036132812,-0.25,0.46875,0.125,0.0,0.0,0.0
1665676879383,-1.0068359,0.016601562,0.0234375,-0.0625,0.21875,0.1875,0.0,0.0,0.0
1665676879413,-1.0117188,0.0087890625,0.028320312,0.0625,0.15625,0.125,0.0,0.0,0.0
1665676879474,-0.9970703,0.013671875,0.048828125,0.0625,0.34375,0.0625,0.0,0.0,0.0
1665676879502,-1.0039062,0.009765625,0.037109375,0.125,0.625,0.1875,0.0,0.0,0.0
1665676879532,-1.0146484,0.016601562,0.033203125,0.1875,0.03125,0.1875,0.0,0.0,0.0
1665676879596,-1.0117188,0.0234375,0.04296875,-0.0625,0.28125,0.1875,0.0,0.0,0.0
1665676879621,-1.0175781,0.01953125,0.040039062,-0.25,0.40625,-0.125,0.0,0.0,0.0
1665676879652,-1.0146484,0.024414062,0.037109375,-0.5,-0.40625,-0.4375,0.0,0.0,0.0
1665676879714,-1.0097656,0.0146484375,0.028320312,-0.125,0.03125,-0.1875,0.0,0.0,0.0
1665676879743,-1.0107422,0.013671875,0.03125,-0.0625,0.21875,0.125,-64.625,14.4375,-148.125
1665676879773,-1.0117188,0.0146484375,0.03125,-0.0625,-0.21875,-0.125,0.0,0.0,0.0
1665676879837,-1.0136719,0.0146484375,0.02734375,0.25,0.09375,0.0625,0.0,0.0,0.0
1665676879864,-1.0117188,0.021484375,0.036132812,0.0,0.21875,0.0625,0.0,0.0,0.0
1665676879892,-1.0029297,0.016601562,0.024414062,-0.0625,-0.09375,0.0625,0.0,0.0,0.0
1665676879955,-1.0068359,0.018554688,0.02734375,0.1875,-0.09375,0.0625,0.0,0.0,0.0
1665676879982,-1.0029297,0.0107421875,0.038085938,-0.3125,-0.28125,-0.0625,0.0,0.0,0.0
1665676880012,-1.0224609,0.015625,0.0234375,0.0625,0.40625,-0.25,0.0,0.0,0.0
1665676880077,-1.0087891,0.0146484375,0.041992188,0.0,0.03125,0.0625,0.0,0.0,0.0
1665676880102,-1.0205078,0.0068359375,0.0234375,0.0625,0.40625,-0.0625,0.0,0.0,0.0
1665676880132,-1.0058594,0.013671875,0.048828125,-0.125,0.28125,-0.25,0.0,0.0,0.0
1665676880195,-1.015625,0.013671875,0.024414062,0.1875,0.03125,0.0,0.0,0.0,0.0
1665676880222,-1.0097656,0.021484375,0.028320312,-0.25,-0.09375,0.0625,-64.5,15.625,-150.0625
1665676880252,-1.0097656,0.013671875,0.033203125,-0.0625,0.15625,0.0625,0.0,0.0,0.0
1665676880313,-1.0058594,0.01171875,0.028320312,-0.0625,0.28125,-0.0625,0.0,0.0,0.0
1665676880343,-1.0195312,0.02734375,0.022460938,-0.0625,0.15625,0.0625,0.0,0.0,0.0
1665676880372,-1.0195312,0.016601562,0.03515625,0.0,0.03125,-0.125,0.0,0.0,0.0
1665676880439,-1.0058594,0.021484375,0.029296875,0.25,0.21875,0.125,0.0,0.0,0.0
1665676880463,-1.0146484,0.013671875,0.038085938,0.125,-0.21875,-0.4375,0.0,0.0,0.0
1665676880494,-1.0087891,0.0068359375,0.032226562,-0.0625,-0.28125,-0.125,0.0,0.0,0.0
1665676880555,-1.015625,0.01953125,0.037109375,0.1875,0.03125,0.1875,0.0,0.0,0.0
1665676880583,-1.0087891,0.0078125,0.025390625,-0.1875,0.15625,0.0625,0.0,0.0,0.0
1665676880614,-1.0029297,0.0087890625,0.032226562,-0.25,-0.03125,-0.3125,0.0,0.0,0.0
1665676880708,-1.0039062,0.01953125,0.025390625,-0.125,-0.09375,-0.1875,0.0,0.0,0.0
1665676880710,-1.0117188,0.01953125,0.030273438,0.125,-0.15625,0.0,0.0,0.0,0.0
1665676880732,-1.0068359,0.02734375,0.02734375,0.125,-0.15625,-0.0625,-63.125,15.1875,-147.8125
1665676880795,-1.0117188,0.018554688,0.025390625,0.0,-0.59375,-0.125,0.0,0.0,0.0
1665676880821,-1.0107422,0.016601562,0.032226562,0.0625,0.15625,-0.25,0.0,0.0,0.0
1665676880854,-1.0126953,0.017578125,0.028320312,-0.0625,-0.15625,-0.1875,0.0,0.0,0.0
1665676880914,-1.0117188,0.015625,0.05078125,-0.0625,0.03125,-0.125,0.0,0.0,0.0
1665676880944,-1.0009766,0.009765625,0.02734375,0.0625,-0.09375,-0.0625,0.0,0.0,0.0
1665676880973,-1.0019531,0.0126953125,0.02734375,-0.0625,-0.09375,-0.0625,0.0,0.0,0.0
1665676881032,-1.0087891,0.020507812,0.026367188,0.0,-0.21875,0.125,0.0,0.0,0.0
1665676881063,-1.0107422,0.0087890625,0.0234375,0.0,-0.15625,0.1875,0.0,0.0,0.0
1665676881093,-1.0039062,0.024414062,0.02734375,0.0,-0.03125,-0.1875,0.0,0.0,0.0
1665676881155,-1.0029297,0.020507812,0.026367188,0.1875,-0.03125,0.0,0.0,0.0,0.0
1665676881187,-1.0117188,0.0087890625,0.036132812,-0.125,-0.15625,-0.0625,0.0,0.0,0.0
1665676881213,-1.0058594,0.01953125,0.025390625,0.3125,-0.34375,-0.1875,-64.8125,15.0625,-148.6875
1665676881277,-1.0117188,0.0146484375,0.03125,0.0625,-0.28125,0.0625,0.0,0.0,0.0
1665676881303,-1.0048828,0.016601562,0.040039062,-0.0625,-0.21875,-0.125,0.0,0.0,0.0
1665676881333,-1.0097656,0.026367188,0.025390625,0.0,-0.21875,-0.0625,0.0,0.0,0.0
1665676881398,-1.0087891,0.021484375,0.036132812,-0.0625,-0.21875,0.0,0.0,0.0,0.0
1665676881423,-1.0107422,0.020507812,0.036132812,0.0,0.34375,0.125,0.0,0.0,0.0
1665676881452,-1.0058594,0.013671875,0.032226562,-0.125,-0.34375,-0.1875,0.0,0.0,0.0
1665676881513,-1.0029297,0.009765625,0.03125,0.1875,0.03125,-0.0625,0.0,0.0,0.0
1665676881544,-1.0126953,0.020507812,0.026367188,0.125,-0.21875,0.0625,0.0,0.0,0.0
1665676881573,-1.0048828,0.017578125,0.03125,-0.0625,-0.21875,-0.25,0.0,0.0,0.0
1665676881636,-1.0048828,0.016601562,0.040039062,0.46875,-0.46875,-0.0625,0.0,0.0,0.0
1665676881663,-1.0136719,0.01953125,0.043945312,0.0625,-0.15625,-0.1875,0.0,0.0,0.0
1665676881693,-1.0136719,0.0146484375,0.041992188,-0.3125,-0.15625,-0.125,0.0,0.0,0.0
1665676881754,-1.0107422,0.0107421875,0.017578125,0.1875,-0.28125,0.0,-62.875,15.1875,-147.5
1665676881783,-1.0019531,0.015625,0.03515625,0.1875,-0.21875,0.125,0.0,0.0,0.0
1665676881813,-1.0019531,0.013671875,0.036132812,0.125,-0.34375,-0.25,0.0,0.0,0.0
1665676881878,-1.0039062,0.009765625,0.028320312,0.125,-0.21875,0.0625,0.0,0.0,0.0
1665676881902,-1.0039062,0.01171875,0.032226562,0.1875,-0.28125,-0.0625,0.0,0.0,0.0
1665676881933,-1.0058594,0.0107421875,0.017578125,0.0625,-0.28125,-0.125,0.0,0.0,0.0
1665676881994,-1.0048828,0.013671875,0.041015625,0.25,-0.28125,0.0,0.0,0.0,0.0
1665676882023,-1.0039062,0.015625,0.036132812,0.1875,0.09375,-0.125,0.0,0.0,0.0
1665676882051,-1.0146484,0.013671875,0.036132812,0.125,0.03125,0.0,0.0,0.0,0.0
1665676882113,-1.0078125,0.016601562,0.017578125,0.0625,-0.09375,0.125,0.0,0.0,0.0
1665676882141,-1.0087891,0.017578125,0.037109375,-0.0625,-0.28125,0.1875,0.0,0.0,0.0
1665676882173,-1.0058594,0.017578125,0.032226562,-0.0625,-0.40625,-0.0625,0.0,0.0,0.0
1665676882235,-1.0019531,0.025390625,0.045898438,0.0625,-0.65625,0.125,-64.625,14.4375,-148.875
1665676882262,-1.0136719,0.0146484375,0.033203125,-0.125,-0.21875,-0.1875,0.0,0.0,0.0
1665676882292,-1.0117188,0.016601562,0.038085938,-0.25,-0.15625,-0.125,0.0,0.0,0.0
1665676882355,-1.0097656,0.015625,0.034179688,0.125,-0.28125,-0.25,0.0,0.0,0.0
1665676882382,-1.0087891,0.0146484375,0.036132812,0.1875,0.03125,-0.25,0.0,0.0,0.0
1665676882414,-1.0087891,0.025390625,0.0390625,0.0625,-0.28125,-0.0625,0.0,0.0,0.0
1665676882476,-1.0185547,0.015625,0.032226562,0.25,-0.46875,0.0,0.0,0.0,0.0
1665676882502,-1.0087891,0.01171875,0.034179688,0.3125,-0.59375,0.0625,0.0,0.0,0.0
1665676882534,-1.015625,0.0126953125,0.026367188,0.0625,0.03125,-0.59375,0.0,0.0,0.0
1665676882592,-1.0097656,0.01953125,0.040039062,0.125,-0.34375,-0.1875,0.0,0.0,0.0
1665676882620,-1.0019531,0.009765625,0.028320312,0.0,0.46875,0.125,0.0,0.0,0.0
1665676882654,-1.0107422,0.017578125,0.036132812,0.0625,-0.28125,-0.0625,0.0,0.0,0.0
1665676882712,-1.0117188,0.0078125,0.041992188,0.125,0.09375,0.0,0.0,0.0,0.0
1665676882740,-1.0078125,0.016601562,0.0390625,0.0,-0.28125,0.125,-64.0625,15.0625,-147.9375
1665676882773,-1.0107422,0.015625,0.032226562,0.125,0.03125,0.125,0.0,0.0,0.0
1665676882830,-1.0068359,0.0126953125,0.03125,0.0,-0.15625,-0.0625,0.0,0.0,0.0
1665676882860,-1.0029297,0.01171875,0.032226562,0.0,0.03125,0.0625,0.0,0.0,0.0
1665676882891,-1.0058594,0.015625,0.03125,-0.0625,-0.09375,-0.0625,0.0,0.0,0.0
1665676882984,-1.0068359,0.0068359375,0.0234375,0.125,0.15625,0.125,0.0,0.0,0.0
1665676882986,-1.0117188,0.00390625,0.049804688,0.0,-0.15625,-0.125,0.0,0.0,0.0
1665676883011,-1.0048828,0.018554688,0.033203125,0.0625,-0.09375,0.0625,0.0,0.0,0.0
1665676883074,-1.0117188,0.017578125,0.036132812,-0.0625,-0.40625,-0.1875,0.0,0.0,0.0
1665676883105,-1.0,0.01171875,0.041992188,0.1875,0.15625,0.0625,0.0,0.0,0.0
1665676883130,-1.0087891,0.0087890625,0.040039062,-0.0625,-0.21875,0.0625,0.0,0.0,0.0
1665676883191,-1.0039062,0.0078125,0.026367188,-0.4375,0.03125,-0.25,0.0,0.0,0.0
1665676883224,-1.0039062,0.016601562,0.038085938,0.0,0.15625,0.0625,-63.75,14.5625,-147.9375
1665676883251,-1.0078125,0.0126953125,0.044921875,0.0,-0.28125,-0.25,0.0,0.0,0.0
1665676883314,-1.0097656,0.026367188,0.020507812,0.125,0.15625,-0.25,0.0,0.0,0.0
1665676883344,-1.0214844,0.005859375,0.041015625,-0.0625,-0.15625,0.0625,0.0,0.0,0.0
1665676883372,-1.0078125,0.013671875,0.034179688,0.125,-0.09375,-0.1875,0.0,0.0,0.0
1665676883431,-1.0087891,0.0107421875,0.030273438,-0.0625,-0.40625,0.0625,0.0,0.0,0.0
1665676883462,-1.0058594,0.0146484375,0.040039062,-0.25,-0.03125,-0.3125,0.0,0.0,0.0
1665676883493,-1.0087891,0.0126953125,0.028320312,0.0625,-0.34375,0.0625,0.0,0.0,0.0
1665676883619,-1.0068359,0.018554688,0.038085938,-0.1875,-0.03125,0.0625,0.0,0.0,0.0
1665676883622,-1.0146484,0.020507812,0.038085938,0.0625,-0.21875,-0.125,0.0,0.0,0.0
1665676883623,-1.0048828,0.0146484375,0.038085938,0.0,0.09375,-0.125,0.0,0.0,0.0
1665676883701,-1.0166016,0.0087890625,0.036132812,-0.0625,-0.15625,-0.125,0.0,0.0,0.0
1665676883703,-1.0166016,0.015625,0.033203125,0.125,-0.03125,0.125,0.0,0.0,0.0
1665676883731,-1.0058594,0.0107421875,0.032226562,-0.125,-0.15625,-0.1875,-63.875,15.1875,-149.125
1665676883821,-1.0126953,0.015625,0.028320312,0.0,0.28125,0.0,0.0,0.0,0.0
1665676883823,-1.0117188,0.0146484375,0.02734375,0.0,0.09375,0.1875,0.0,0.0,0.0
1665676883851,-0.99902344,0.016601562,0.029296875,-0.1875,0.28125,0.1875,0.0,0.0,0.0
1665676883911,-1.0087891,0.020507812,0.030273438,0.0,-0.03125,0.125,0.0,0.0,0.0
1665676883941,-1.0136719,0.022460938,0.036132812,-0.125,0.09375,-0.125,0.0,0.0,0.0
1665676883972,-1.0058594,0.01171875,0.033203125,-0.3125,0.28125,-0.1875,0.0,0.0,0.0
1665676884033,-0.9980469,0.0087890625,0.032226562,-0.1875,0.28125,-0.125,0.0,0.0,0.0
1665676884062,-1.0146484,0.01171875,0.032226562,-0.25,-0.34375,-0.125,0.0,0.0,0.0
1665676884092,-1.0117188,0.0107421875,0.032226562,-0.625,0.28125,-0.25,0.0,0.0,0.0
1665676884156,-1.0107422,0.013671875,0.033203125,-0.375,0.5625,-0.25,0.0,0.0,0.0
1665676884179,-1.0087891,0.021484375,0.047851562,-0.40625,0.03125,-0.0625,0.0,0.0,0.0
1665676884209,-1.0048828,0.0087890625,0.029296875,-0.21875,0.375,-0.25,-63.625,15.5,-147.8125
1665676884302,-1.0068359,0.01953125,0.04296875,-0.53125,0.09375,0.0625,0.0,0.0,0.0
1665676884304,-1.0019531,0.015625,0.030273438,-0.03125,0.6875,-0.1875,0.0,0.0,0.0
1665676884330,-1.0087891,0.020507812,0.033203125,-0.28125,0.09375,0.0625,0.0,0.0,0.0
1665676884392,-1.0234375,0.020507812,0.03515625,-0.40625,0.3125,-0.375,0.0,0.0,0.0
1665676884420,-1.0117188,0.017578125,0.032226562,-0.21875,0.21875,0.0,0.0,0.0,0.0
1665676884453,-1.0107422,0.01171875,0.038085938,-0.03125,-0.21875,-0.125,0.0,0.0,0.0
1665676884510,-1.0166016,0.016601562,0.032226562,-0.15625,0.21875,0.0,0.0,0.0,0.0
1665676884542,-1.0107422,0.016601562,0.032226562,-0.09375,0.09375,0.15625,0.0,0.0,0.0
1665676884572,-1.0126953,0.018554688,0.0390625,-0.15625,0.3125,-0.1875,0.0,0.0,0.0
1665676884660,-1.0068359,0.0146484375,0.024414062,-0.03125,0.3125,0.09375,0.0,0.0,0.0
1665676884663,-1.0195312,0.013671875,0.01953125,-0.09375,0.6875,-0.125,0.0,0.0,0.0
1665676884694,-1.0136719,0.009765625,0.0146484375,-0.21875,0.4375,-0.0625,0.0,0.0,0.0
1665676884781,-1.0126953,0.017578125,0.026367188,-0.03125,0.625,0.09375,-63.75,14.3125,-148.375
1665676884784,-1.0136719,0.018554688,0.0234375,-0.15625,0.25,0.0,0.0,0.0,0.0
1665676884812,-1.0107422,0.028320312,0.029296875,0.0625,0.21875,0.0,0.0,0.0,0.0
1665676884873,-1.0117188,0.016601562,0.03125,-0.34375,0.09375,0.0,0.0,0.0,0.0
1665676884900,-1.0019531,0.0087890625,0.025390625,0.0625,0.21875,-0.125,0.0,0.0,0.0
1665676884931,-1.0029297,0.015625,0.022460938,0.0,-0.15625,0.09375,0.0,0.0,0.0
1665676884992,-1.015625,0.024414062,0.016601562,-0.40625,0.3125,-0.0625,0.0,0.0,0.0
1665676885022,-1.0068359,0.021484375,0.028320312,-0.28125,0.625,0.09375,0.0,0.0,0.0
1665676885052,-1.0097656,0.0146484375,0.021484375,-0.15625,0.09375,-0.4375,0.0,0.0,0.0
1665676885112,-1.0097656,0.016601562,0.024414062,-0.15625,0.09375,0.0,0.0,0.0,0.0
1665676885141,-1.0107422,0.01953125,0.022460938,0.0,0.09375,-0.0625,0.0,0.0,0.0
1665676885203,-1.0126953,0.015625,0.02734375,-0.03125,0.09375,0.0,0.0,0.0,0.0
1665676885261,-1.0097656,0.0087890625,0.030273438,0.0625,-0.09375,0.15625,-65.375,14.75,-149.125
1665676885264,-1.0087891,0.0126953125,0.020507812,0.0,0.25,0.0,0.0,0.0,0.0
1665676885293,-1.0097656,0.0146484375,0.040039062,-0.21875,0.03125,-0.125,0.0,0.0,0.0
1665676885352,-1.0068359,0.025390625,0.020507812,0.0,0.03125,0.15625,0.0,0.0,0.0
1665676885386,-1.0175781,0.013671875,0.029296875,-0.15625,-0.03125,-0.1875,0.0,0.0,0.0
1665676885411,-1.0136719,0.020507812,0.024414062,-0.09375,0.4375,0.09375,0.0,0.0,0.0
1665676885471,-1.0146484,0.01171875,0.028320312,0.0,0.03125,0.0,0.0,0.0,0.0
1665676885503,-1.0019531,0.0107421875,0.037109375,-0.03125,0.21875,-0.1875,0.0,0.0,0.0
1665676885532,-1.0175781,0.017578125,0.013671875,0.0,0.03125,0.21875,0.0,0.0,0.0
1665676885591,-1.0126953,0.015625,0.03515625,0.4375,0.03125,0.0,0.0,0.0,0.0
1665676885620,-1.0107422,0.013671875,0.015625,0.0625,0.21875,0.53125,0.0,0.0,0.0
1665676885652,-1.0146484,0.0068359375,0.041015625,0.0625,0.375,-0.0625,0.0,0.0,0.0
1665676885712,-1.0117188,0.01953125,0.020507812,0.0,0.5625,0.53125,0.0,0.0,0.0
1665676885742,-1.0068359,0.01953125,0.026367188,0.125,0.15625,-0.1875,-65.375,14.75,-148.5625
1665676885770,-1.0107422,0.017578125,0.013671875,0.0,0.3125,0.0625,0.0,0.0,0.0
1665676885831,-1.0166016,0.018554688,0.016601562,0.0625,0.15625,0.21875,0.0,0.0,0.0
1665676885862,-1.0126953,0.0146484375,0.020507812,0.0,0.15625,0.0625,0.0,0.0,0.0
1665676885892,-1.0058594,0.016601562,0.025390625,0.125,-0.15625,-0.0625,0.0,0.0,0.0
1665676885952,-1.0009766,0.018554688,0.022460938,0.0,-0.40625,0.15625,0.0,0.0,0.0
1665676885982,-1.0214844,0.01171875,0.020507812,0.3125,-0.21875,0.0625,0.0,0.0,0.0
1665676886011,-1.0126953,0.020507812,0.024414062,-0.03125,-0.09375,0.15625,0.0,0.0,0.0
1665676886071,-1.0097656,0.017578125,0.03515625,0.375,-0.65625,0.15625,0.0,0.0,0.0
1665676886101,-1.0087891,0.0126953125,0.03125,0.125,0.21875,0.0625,0.0,0.0,0.0
1665676886132,-1.0175781,0.015625,0.037109375,-0.15625,-0.28125,-0.0625,0.0,0.0,0.0
1665676886192,-1.0126953,0.022460938,0.01953125,0.125,0.09375,0.0625,0.0,0.0,0.0
1665676886222,-1.0,0.0146484375,0.022460938,0.0,-0.09375,0.09375,-63.125,13.375,-149.625
1665676886250,-1.0087891,0.0234375,0.0234375,0.4375,-0.09375,0.0625,0.0,0.0,0.0
1665676886312,-1.0097656,0.013671875,0.02734375,0.0625,-0.34375,-0.0625,0.0,0.0,0.0
1665676886343,-1.0078125,0.013671875,0.030273438,0.25,-0.15625,0.15625,0.0,0.0,0.0
1665676886371,-1.0117188,0.01953125,0.03125,0.25,-0.34375,-0.1875,0.0,0.0,0.0
1665676886432,-1.0107422,0.021484375,0.026367188,0.0,-0.09375,0.0625,0.0,0.0,0.0
1665676886463,-1.0097656,0.015625,0.020507812,0.375,-0.03125,0.0625,0.0,0.0,0.0
1665676886492,-1.0117188,0.018554688,0.03125,0.25,-0.34375,-0.3125,0.0,0.0,0.0
1665676886551,-1.0107422,0.0107421875,0.034179688,0.5,-0.15625,0.21875,0.0,0.0,0.0
1665676886581,-1.0126953,0.017578125,0.021484375,0.625,-0.53125,0.09375,0.0,0.0,0.0
1665676886612,-1.0126953,0.013671875,0.033203125,0.8125,-0.90625,0.0,0.0,0.0,0.0
1665676886671,-1.0068359,0.013671875,0.03125,0.4375,-0.46875,0.0625,0.0,0.0,0.0
1665676886704,-1.0019531,0.016601562,0.028320312,0.375,-0.40625,0.34375,0.0,0.0,0.0
1665676886731,-1.0166016,0.0107421875,0.028320312,0.4375,-0.53125,-0.125,-65.375,15.9375,-146.75
1665676886791,-1.0039062,0.0146484375,0.037109375,0.4375,-0.46875,-0.0625,0.0,0.0,0.0
1665676886821,-1.0117188,0.0234375,0.04296875,0.3125,-0.40625,0.0625,0.0,0.0,0.0
1665676886854,-1.0107422,0.017578125,0.01953125,0.0625,-0.28125,-0.125,0.0,0.0,0.0
1665676886913,-1.0117188,0.01171875,0.030273438,0.1875,-0.53125,0.0,0.0,0.0,0.0
1665676886941,-1.0029297,0.016601562,0.024414062,0.0625,-0.21875,-0.125,0.0,0.0,0.0
1665676886971,-1.0097656,0.0078125,0.032226562,0.125,-0.03125,-0.0625,0.0,0.0,0.0
1665676887031,-1.0058594,0.018554688,0.018554688,0.5,-0.28125,0.28125,0.0,0.0,0.0
1665676887061,-1.0107422,0.0126953125,0.032226562,0.75,-0.21875,0.28125,0.0,0.0,0.0
1665676887091,-1.0097656,0.015625,0.034179688,0.6875,0.15625,0.46875,0.0,0.0,0.0
1665676887153,-1.0087891,0.017578125,0.03515625,0.625,-0.40625,0.28125,0.0,0.0,0.0
1665676887182,-1.0029297,0.021484375,0.026367188,0.125,0.03125,-0.0625,0.0,0.0,0.0
1665676887210,-1.0126953,0.015625,0.013671875,0.25,-0.28125,0.09375,-65.5625,15.3125,-149.3125
1665676887273,-1.0048828,0.009765625,0.03515625,0.125,0.03125,0.0625,0.0,0.0,0.0
1665676887301,-1.0126953,0.016601562,0.0390625,0.1875,-0.21875,0.0625,0.0,0.0,0.0
1665676887335,-1.015625,0.021484375,0.030273438,0.0,-0.03125,-0.3125,0.0,0.0,0.0
1665676887392,-1.0117188,0.01953125,0.02734375,-0.03125,-0.28125,0.15625,0.0,0.0,0.0
1665676887424,-1.0117188,0.020507812,0.03125,0.3125,0.03125,-0.125,0.0,0.0,0.0
1665676887452,-1.0097656,0.025390625,0.034179688,0.25,-0.28125,0.28125,0.0,0.0,0.0
1665676887548,-1.0097656,0.021484375,0.036132812,-0.28125,-0.09375,0.09375,0.0,0.0,0.0
1665676887551,-1.0107422,0.016601562,0.032226562,-0.65625,-0.09375,-0.25,0.0,0.0,0.0
1665676887571,-1.0175781,0.0146484375,0.03125,0.375,-0.53125,0.21875,0.0,0.0,0.0
1665676887631,-1.0087891,0.01171875,0.025390625,-0.09375,-0.21875,-0.0625,0.0,0.0,0.0
1665676887660,-1.0107422,0.013671875,0.03515625,-0.03125,-0.21875,-0.125,0.0,0.0,0.0
1665676887691,-1.0029297,0.016601562,0.033203125,0.3125,-0.09375,0.28125,0.0,0.0,0.0
1665676887752,-1.0107422,0.017578125,0.028320312,0.3125,-0.21875,0.0,-64.1875,16.5625,-147.8125
1665676887781,-1.0136719,0.016601562,0.04296875,0.1875,-0.34375,0.0625,0.0,0.0,0.0
1665676887812,-1.0214844,0.017578125,0.036132812,0.125,0.03125,-0.25,0.0,0.0,0.0
1665676887873,-1.0126953,0.015625,0.029296875,0.0,-0.65625,-0.125,0.0,0.0,0.0
1665676887908,-1.0078125,0.018554688,0.018554688,-0.03125,-0.03125,-0.125,0.0,0.0,0.0
1665676887930,-1.0146484,0.0234375,0.033203125,-0.03125,-0.46875,0.0,0.0,0.0,0.0
1665676887992,-1.0078125,0.0126953125,0.040039062,0.125,-0.03125,-0.25,0.0,0.0,0.0
1665676888022,-1.0117188,0.0126953125,0.029296875,0.1875,-0.21875,-0.125,0.0,0.0,0.0
1665676888051,-1.0126953,0.015625,0.0107421875,0.0,-0.34375,0.0625,0.0,0.0,0.0
1665676888112,-1.0058594,0.017578125,0.037109375,0.0625,0.03125,-0.125,0.0,0.0,0.0
1665676888145,-1.0058594,0.01171875,0.034179688,0.125,-0.03125,-0.0625,0.0,0.0,0.0
1665676888171,-1.0097656,0.020507812,0.028320312,0.0625,-0.03125,0.0625,0.0,0.0,0.0
1665676888231,-1.015625,0.021484375,0.021484375,-0.03125,-0.09375,-0.0625,-64.5,14.5625,-149.75
1665676888262,-1.0039062,0.018554688,0.03125,0.0,-0.03125,0.21875,0.0,0.0,0.0
1665676888291,-1.0058594,0.016601562,0.03125,0.0625,0.03125,-0.125,0.0,0.0,0.0
1665676888352,-1.0117188,0.013671875,0.032226562,0.1875,0.15625,0.21875,0.0,0.0,0.0
1665676888384,-1.0087891,0.0107421875,0.033203125,0.125,0.03125,0.21875,0.0,0.0,0.0
1665676888412,-1.0048828,0.018554688,0.020507812,-0.21875,0.15625,0.0,0.0,0.0,0.0
1665676888473,-1.0087891,0.01953125,0.029296875,-0.03125,0.15625,0.09375,0.0,0.0,0.0
1665676888504,-1.0097656,0.018554688,0.028320312,0.0,-0.15625,0.0,0.0,0.0,0.0
1665676888531,-1.0019531,0.0146484375,0.029296875,0.0,-0.28125,0.0625,0.0,0.0,0.0
1665676888593,-1.0146484,0.016601562,0.03515625,0.0625,-0.09375,0.0,0.0,0.0,0.0
1665676888621,-1.0068359,0.0107421875,0.02734375,0.0625,-0.34375,-0.125,0.0,0.0,0.0
1665676888651,-1.0048828,0.015625,0.034179688,0.25,-0.53125,-0.25,0.0,0.0,0.0
1665676888713,-1.015625,0.0146484375,0.026367188,0.0,-0.34375,0.0625,0.0,0.0,0.0
1665676888744,-1.0126953,0.01953125,0.048828125,0.0,-0.21875,0.09375,-63.625,13.6875,-147.5
1665676888771,-1.0029297,0.013671875,0.043945312,0.0,-0.15625,0.0,0.0,0.0,0.0
1665676888831,-1.0087891,0.013671875,0.03515625,0.1875,-0.40625,0.28125,0.0,0.0,0.0
1665676888862,-1.0068359,0.020507812,0.04296875,0.125,-0.21875,0.15625,0.0,0.0,0.0
1665676888892,-1.0019531,0.022460938,0.0390625,-0.21875,-0.28125,-0.25,0.0,0.0,0.0
1665676888952,-1.0136719,0.018554688,0.026367188,0.1875,-0.09375,0.0625,0.0,0.0,0.0
1665676888982,-1.0136719,0.025390625,0.025390625,-0.09375,-0.15625,0.09375,0.0,0.0,0.0
1665676889013,-1.0039062,0.024414062,0.041015625,0.1875,0.15625,-0.3125,0.0,0.0,0.0
1665676889074,-1.015625,0.020507812,0.040039062,-0.09375,-0.09375,0.21875,0.0,0.0,0.0
1665676889103,-1.0117188,0.018554688,0.036132812,-0.21875,-0.03125,0.09375,0.0,0.0,0.0
1665676889131,-1.0058594,0.0146484375,0.029296875,-0.21875,-0.03125,0.0625,0.0,0.0,0.0
1665676889191,-1.0117188,0.01953125,0.041015625,-0.09375,-0.09375,0.09375,0.0,0.0,0.0
1665676889222,-1.0097656,0.018554688,0.034179688,-0.09375,-0.09375,0.15625,-63.875,14.4375,-146.75
1665676889253,-1.0117188,0.020507812,0.03125,-0.09375,0.09375,0.21875,0.0,0.0,0.0
1665676889312,-1.0107422,0.0107421875,0.029296875,-0.15625,0.375,-0.0625,0.0,0.0,0.0
1665676889342,-1.0068359,0.016601562,0.034179688,-0.15625,-0.09375,-0.125,0.0,0.0,0.0
1665676889374,-1.0146484,0.028320312,0.032226562,-0.25,0.28125,0.0,0.0,0.0,0.0
1665676889432,-1.0146484,0.022460938,0.026367188,-0.1875,0.09375,-0.375,0.0,0.0,0.0
1665676889461,-1.0195312,0.016601562,0.03515625,-0.25,-0.15625,-0.125,0.0,0.0,0.0
1665676889490,-1.0068359,0.015625,0.043945312,-0.0625,0.34375,-0.1875,0.0,0.0,0.0
1665676889554,-1.0058594,0.0146484375,0.041015625,-0.46875,0.21875,-0.5625,0.0,0.0,0.0
1665676889584,-1.0136719,0.0234375,0.02734375,-0.40625,-0.09375,-0.5,0.0,0.0,0.0
1665676889612,-1.0097656,0.0078125,0.022460938,-0.40625,0.59375,-0.1875,0.0,0.0,0.0
1665676889671,-1.0087891,0.009765625,0.033203125,-0.34375,-0.15625,-0.25,0.0,0.0,0.0
1665676889701,-1.0039062,0.0107421875,0.026367188,-0.34375,0.21875,-0.25,0.0,0.0,0.0
1665676889732,-1.0087891,0.01953125,0.038085938,-0.3125,0.46875,0.0,-64.0625,14.5625,-149.0
1665676889821,-1.0,0.015625,0.024414062,-0.125,0.15625,0.25,0.0,0.0,0.0
1665676889825,-1.0185547,0.01953125,0.04296875,-0.25,0.15625,-0.0625,0.0,0.0,0.0
1665676889851,-1.0097656,0.015625,0.020507812,0.0625,0.46875,0.1875,0.0,0.0,0.0
1665676889912,-1.015625,0.015625,0.036132812,-0.34375,0.625,0.125,0.0,0.0,0.0
1665676889941,-1.0048828,0.01171875,0.028320312,-0.34375,0.75,0.0,0.0,0.0,0.0
1665676889972,-1.0117188,0.017578125,0.038085938,0.0625,0.28125,-0.25,0.0,0.0,0.0
1665676890031,-1.0078125,0.0146484375,0.021484375,-0.125,0.46875,0.125,0.0,0.0,0.0
1665676890062,-1.0097656,0.01171875,0.03125,-0.34375,0.28125,-0.125,0.0,0.0,0.0
1665676890094,-1.0136719,0.0234375,0.033203125,-0.25,0.40625,-0.125,0.0,0.0,0.0
1665676890120,-1.0107422,0.018554688,0.033203125,-0.59375,0.625,0.1875,0.0,0.0,0.0
1665676890182,-1.0019531,0.015625,0.036132812,-0.125,0.46875,-0.375,0.0,0.0,0.0
1665676890211,-1.0146484,0.018554688,0.024414062,-0.125,0.34375,-0.0625,0.0,0.0,0.0
1665676890271,-1.0087891,0.017578125,0.015625,-0.125,0.46875,-0.3125,-65.125,14.5625,-149.0
1665676890303,-1.0097656,0.013671875,0.013671875,0.0,0.28125,-0.125,0.0,0.0,0.0
1665676890361,-1.0117188,0.024414062,0.0234375,0.0625,0.09375,-0.0625,0.0,0.0,0.0
1665676890363,-1.0009766,0.0048828125,0.026367188,-0.46875,0.59375,-0.25,0.0,0.0,0.0
1665676890421,-1.0058594,0.0126953125,0.0234375,-0.46875,0.6875,-0.1875,0.0,0.0,0.0
1665676890453,-1.0107422,0.017578125,0.024414062,-0.59375,0.75,-0.375,0.0,0.0,0.0
1665676890481,-1.015625,0.0107421875,0.033203125,-0.46875,0.59375,-0.125,0.0,0.0,0.0
1665676890541,-1.015625,0.0146484375,0.017578125,-0.3125,0.8125,-0.375,0.0,0.0,0.0
1665676890573,-1.0107422,0.0234375,0.020507812,-0.3125,0.59375,-0.3125,0.0,0.0,0.0
1665676890602,-1.0175781,0.013671875,0.0234375,-0.34375,0.625,-0.1875,0.0,0.0,0.0
1665676890663,-1.0078125,0.0146484375,0.020507812,-0.25,0.21875,-0.125,0.0,0.0,0.0
1665676890691,-1.0146484,0.016601562,0.01953125,-0.125,0.28125,-0.0625,0.0,0.0,0.0
1665676890753,-1.0048828,0.013671875,0.038085938,0.0,0.21875,0.125,-65.5625,15.0625,-148.375
1665676890782,-1.0058594,0.0146484375,0.018554688,-0.34375,0.6875,0.0,0.0,0.0,0.0
1665676890812,-1.0078125,0.0234375,0.0146484375,-0.40625,0.40625,-0.4375,0.0,0.0,0.0
1665676890842,-1.0058594,0.015625,0.028320312,-0.34375,0.03125,0.25,0.0,0.0,0.0
1665676890901,-1.0146484,0.0078125,0.02734375,-0.3125,0.875,0.0625,0.0,0.0,0.0
1665676890932,-1.0126953,0.017578125,0.026367188,-0.25,0.53125,-0.125,0.0,0.0,0.0
1665676890960,-1.0048828,0.0068359375,0.030273438,-0.34375,0.15625,0.0,0.0,0.0,0.0
1665676891023,-1.0185547,0.013671875,0.016601562,0.125,0.34375,0.0625,0.0,0.0,0.0
1665676891051,-1.0136719,0.024414062,0.017578125,-0.34375,0.21875,-0.1875,0.0,0.0,0.0
1665676891082,-1.0048828,0.0146484375,0.01953125,-0.125,0.03125,-0.1875,0.0,0.0,0.0
1665676891142,-1.0087891,0.020507812,0.0234375,-0.25,-0.03125,-0.125,0.0,0.0,0.0
1665676891172,-1.0058594,0.0107421875,0.022460938,-0.0625,0.15625,-0.4375,0.0,0.0,0.0
1665676891202,-1.0097656,0.024414062,0.01171875,-0.125,-0.03125,-0.0625,0.0,0.0,0.0
1665676891264,-1.0058594,0.0126953125,0.030273438,-0.125,-0.21875,0.0,-63.75,16.0625,-148.375
1665676891292,-1.0146484,0.0146484375,0.024414062,0.0,0.03125,-0.125,0.0,0.0,0.0
1665676891354,-1.0126953,0.0146484375,0.024414062,0.0625,-0.15625,-0.0625,0.0,0.0,0.0
1665676891383,-1.0087891,0.015625,0.018554688,0.1875,0.09375,0.375,0.0,0.0,0.0
1665676891412,-1.0019531,0.0126953125,0.00390625,0.0,-0.03125,-0.125,0.0,0.0,0.0
1665676891440,-1.0175781,0.0107421875,0.016601562,0.125,-0.03125,-0.0625,0.0,0.0,0.0
1665676891502,-1.0117188,0.015625,0.01953125,0.375,0.21875,0.0625,0.0,0.0,0.0
1665676891532,-0.9970703,0.020507812,0.020507812,0.0625,-0.03125,-0.0625,0.0,0.0,0.0
1665676891560,-1.0136719,0.013671875,0.020507812,0.0,-0.34375,0.0,0.0,0.0,0.0
1665676891621,-1.015625,0.016601562,0.033203125,0.125,-0.46875,0.1875,0.0,0.0,0.0
1665676891651,-1.0048828,0.0078125,0.025390625,-0.125,0.03125,0.0625,0.0,0.0,0.0
1665676891681,-1.0,0.009765625,0.020507812,0.1875,-0.09375,0.0625,0.0,0.0,0.0
1665676891740,-1.0058594,0.022460938,0.0234375,0.5,-0.875,-0.1875,-64.625,14.125,-148.125
