# Sensor type: Thingy
# Activity type: Walking at normal speed
# Activity code: 1
# Subject id: s1800825
# Notes: 
timestamp,accel_x,accel_y,accel_z,gyro_x,gyro_y,gyro_z,mag_x,mag_y,mag_z
1664566757982,-1.0332031,0.0107421875,0.07324219,0.21875,-7.21875,1.625,0.0,0.0,0.0
1664566758022,-0.9902344,0.0078125,0.018554688,-10.4375,-9.34375,-0.375,0.0,0.0,0.0
1664566758064,-1.0097656,0.057617188,0.08300781,1.9375,-11.1875,1.6875,0.0,0.0,0.0
1664566758102,-0.9941406,0.046875,0.10546875,-3.625,-26.5625,1.09375,0.0,0.0,0.0
1664566758142,-0.93359375,0.0390625,0.07714844,-18.75,-30.21875,-4.65625,0.0,0.0,0.0
1664566758181,-0.98339844,0.07421875,0.14746094,-18.875,-36.8125,-8.6875,0.0,0.0,0.0
1664566758221,-1.0585938,0.123046875,0.28027344,-2.9375,-44.3125,-1.125,0.0,0.0,0.0
1664566758261,-0.9160156,0.09472656,0.17382812,-4.90625,-67.40625,8.59375,0.0,0.0,0.0
1664566758302,-1.0263672,0.0390625,0.34570312,18.0,-46.28125,6.03125,0.0,0.0,0.0
1664566758341,-1.1054688,0.068359375,0.3359375,0.09375,-39.25,6.5625,0.0,0.0,0.0
1664566758381,-0.9472656,0.046875,0.30371094,-1.25,-34.0625,0.84375,0.0,0.0,0.0
1664566758421,-0.8886719,0.041015625,0.3720703,-15.09375,-20.03125,-7.40625,0.0,0.0,0.0
1664566758481,-0.70214844,0.024414062,0.35253906,-39.5625,-2.9375,-24.4375,-62.375,-13.1875,-127.375
1664566758501,-0.8671875,-0.06738281,0.34570312,-32.25,14.4375,-14.53125,0.0,0.0,0.0
1664566758541,-0.8125,-0.11621094,0.4189453,-13.8125,20.25,-3.4375,0.0,0.0,0.0
1664566758581,-0.8876953,-0.11816406,0.46777344,17.25,-9.46875,15.0625,0.0,0.0,0.0
1664566758622,-0.6513672,-0.030273438,0.4580078,29.34375,-28.59375,13.03125,0.0,0.0,0.0
1664566758662,-0.7939453,0.044921875,0.48535156,4.1875,-47.1875,19.09375,0.0,0.0,0.0
1664566758702,-0.86816406,0.038085938,0.5644531,24.71875,-45.71875,29.28125,0.0,0.0,0.0
1664566758742,-0.9511719,-0.051757812,0.7949219,28.1875,-21.0,17.1875,0.0,0.0,0.0
1664566758781,-1.0097656,-0.15039062,0.8203125,5.53125,0.65625,1.5625,0.0,0.0,0.0
1664566758821,-0.9746094,-0.07714844,0.6376953,6.03125,26.96875,-10.625,0.0,0.0,0.0
1664566758862,-0.86035156,0.0546875,0.44921875,-2.28125,60.71875,-4.46875,0.0,0.0,0.0
1664566758901,-1.0107422,0.41308594,0.049804688,-21.3125,106.3125,6.875,0.0,0.0,0.0
1664566758943,-0.9423828,0.111328125,0.09082031,-6.25,38.625,32.28125,-73.0625,-6.875,-138.9375
1664566758982,-0.96484375,0.060546875,-0.36328125,12.5,70.59375,5.34375,0.0,0.0,0.0
1664566759022,-0.9951172,0.26367188,0.24511719,84.875,48.5,9.9375,0.0,0.0,0.0
1664566759062,-0.96777344,0.06933594,0.06640625,26.0,43.125,-21.375,0.0,0.0,0.0
1664566759102,-0.7294922,0.0087890625,-0.07519531,-1.71875,84.09375,-35.0625,0.0,0.0,0.0
1664566759142,-0.80078125,0.20703125,0.11035156,47.15625,77.0,-8.25,0.0,0.0,0.0
1664566759182,-0.8955078,0.10253906,-0.047851562,31.59375,75.375,-3.0,0.0,0.0,0.0
1664566759241,-0.90722656,0.095703125,0.22851562,36.59375,78.59375,6.5625,0.0,0.0,0.0
1664566759262,-0.90625,0.01953125,0.0,-5.3125,55.96875,8.46875,0.0,0.0,0.0
1664566759302,-1.0029297,0.123046875,0.061523438,8.46875,63.875,21.96875,0.0,0.0,0.0
1664566759342,-1.1884766,-0.03515625,0.07128906,-46.46875,42.46875,21.34375,0.0,0.0,0.0
1664566759381,-1.3408203,-0.18945312,0.12597656,-43.53125,33.96875,-12.96875,0.0,0.0,0.0
1664566759422,-1.5888672,0.17480469,0.33496094,-60.0625,13.46875,-16.6875,0.0,0.0,0.0
1664566759461,-1.3886719,-0.22949219,0.07910156,-41.34375,-53.0625,-15.15625,-73.0625,-5.5,-155.625
1664566759502,-0.63378906,-0.13671875,-0.33496094,-1.125,-89.0,-46.40625,0.0,0.0,0.0
1664566759541,-1.4433594,0.14550781,-0.12011719,81.53125,-109.34375,-66.53125,0.0,0.0,0.0
1664566759582,-1.78125,0.5498047,-0.25195312,-13.9375,-130.875,-36.6875,0.0,0.0,0.0
1664566759622,-1.0820312,0.4111328,0.14550781,2.90625,-163.46875,6.46875,0.0,0.0,0.0
1664566759662,-0.7441406,0.095703125,0.07128906,-49.5,-214.3125,39.0,0.0,0.0,0.0
1664566759702,-0.6904297,-0.19238281,-0.0078125,-24.90625,-145.28125,-10.875,0.0,0.0,0.0
1664566759741,-0.40625,-0.020507812,-0.052734375,-7.65625,-61.96875,-60.75,0.0,0.0,0.0
1664566759782,-0.16601562,0.16601562,-0.10449219,65.96875,-31.625,-32.0,0.0,0.0,0.0
1664566759822,-0.31835938,0.034179688,0.1640625,61.25,43.1875,11.03125,0.0,0.0,0.0
1664566759861,-0.49609375,-0.020507812,0.81640625,36.0625,71.28125,12.75,0.0,0.0,0.0
1664566759903,-1.9326172,0.072265625,0.6738281,5.0,66.6875,37.28125,0.0,0.0,0.0
1664566759944,-1.0517578,0.12792969,1.4326172,-40.78125,-89.90625,-37.3125,-71.875,-11.0625,-122.875
1664566760001,-1.3466797,-0.375,0.87402344,-97.0,-61.21875,-42.1875,0.0,0.0,0.0
1664566760024,-1.2519531,0.6425781,-0.5673828,41.375,164.59375,33.1875,0.0,0.0,0.0
1664566760061,-0.6269531,0.61035156,0.09472656,35.875,-60.8125,32.625,0.0,0.0,0.0
1664566760101,-1.3925781,0.053710938,-0.4921875,-8.625,115.78125,115.9375,0.0,0.0,0.0
1664566760141,-1.2988281,-0.22070312,0.057617188,-20.78125,114.0625,-26.9375,0.0,0.0,0.0
1664566760202,-0.7734375,0.15625,0.10253906,50.46875,51.8125,-33.65625,0.0,0.0,0.0
1664566760221,-0.49804688,0.25097656,-0.08496094,-3.1875,118.5,-46.03125,0.0,0.0,0.0
1664566760262,-0.703125,0.19140625,-0.02734375,15.3125,108.25,-5.21875,0.0,0.0,0.0
1664566760302,-0.63964844,0.0029296875,-0.0234375,6.8125,57.0625,22.875,0.0,0.0,0.0
1664566760342,-0.75097656,0.09667969,0.27929688,39.0,117.84375,21.46875,0.0,0.0,0.0
1664566760382,-0.97753906,0.041015625,0.0146484375,-19.375,91.21875,38.0625,0.0,0.0,0.0
1664566760422,-1.2324219,-0.10546875,0.060546875,-76.5,41.5,25.5625,0.0,0.0,0.0
1664566760461,-1.3486328,-0.25878906,0.07324219,-57.09375,14.21875,-10.625,-73.9375,-6.6875,-148.875
1664566760501,-1.6474609,-0.046875,0.22949219,-55.9375,-8.4375,-33.03125,0.0,0.0,0.0
1664566760542,-1.3271484,-0.0029296875,-0.14550781,-31.5,-76.1875,-44.6875,0.0,0.0,0.0
1664566760581,-0.6455078,0.34179688,-0.16210938,54.84375,-88.21875,-54.09375,0.0,0.0,0.0
1664566760621,-2.0,0.1484375,-0.040039062,49.71875,-102.8125,-56.90625,0.0,0.0,0.0
1664566760661,-1.6083984,0.68359375,-0.13476562,-39.0625,-139.71875,-28.75,0.0,0.0,0.0
1664566760702,-0.8769531,0.203125,0.23828125,-22.28125,-187.15625,30.5625,0.0,0.0,0.0
1664566760762,-0.60058594,0.030273438,0.018554688,-65.875,-156.75,14.875,0.0,0.0,0.0
1664566760781,-0.6201172,-0.26367188,-0.15429688,-5.09375,-95.96875,-44.8125,0.0,0.0,0.0
1664566760822,-0.1171875,0.047851562,-0.040039062,38.0625,-55.8125,-71.96875,0.0,0.0,0.0
1664566760862,-0.11816406,0.11230469,-0.059570312,64.75,20.4375,-15.8125,0.0,0.0,0.0
1664566760902,-0.3984375,-0.083984375,0.39941406,52.28125,61.5,16.53125,0.0,0.0,0.0
1664566760941,-0.85546875,-0.08984375,0.8173828,48.9375,89.34375,26.03125,-74.5625,-7.3125,-124.5625
1664566760982,-2.0,0.5410156,1.296875,-4.09375,-61.53125,-3.90625,0.0,0.0,0.0
1664566761022,-0.8564453,-0.2685547,1.4902344,-57.75,-42.5625,-17.46875,0.0,0.0,0.0
1664566761061,-1.3554688,-0.13574219,0.29296875,-70.6875,-34.5625,-34.875,0.0,0.0,0.0
1664566761101,-1.0869141,0.30859375,-0.265625,49.1875,189.125,-1.125,0.0,0.0,0.0
1664566761141,-0.5761719,0.9511719,0.5830078,74.25,-46.34375,88.78125,0.0,0.0,0.0
1664566761181,-1.4111328,-0.2421875,-0.4404297,-79.65625,152.28125,84.03125,0.0,0.0,0.0
1664566761222,-0.8964844,0.0068359375,0.20117188,-27.53125,101.4375,-15.09375,0.0,0.0,0.0
1664566761262,-0.9580078,0.07324219,0.078125,76.65625,40.6875,-3.5625,0.0,0.0,0.0
1664566761302,-0.58496094,0.2529297,0.07128906,-29.375,122.40625,-47.8125,0.0,0.0,0.0
1664566761342,-0.78125,0.12695312,0.02734375,8.03125,80.96875,-5.625,0.0,0.0,0.0
1664566761383,-0.7421875,0.09667969,0.08105469,6.6875,101.1875,6.6875,0.0,0.0,0.0
1664566761422,-0.81640625,0.022460938,0.20214844,8.03125,72.5625,33.625,0.0,0.0,0.0
1664566761462,-0.9765625,0.08300781,0.078125,-8.75,72.875,32.9375,-72.625,-5.9375,-142.6875
1664566761523,-1.2646484,0.041015625,0.23242188,-56.21875,64.5625,25.4375,0.0,0.0,0.0
1664566761542,-1.3398438,-0.42871094,0.061523438,-29.1875,23.84375,-3.96875,0.0,0.0,0.0
1664566761582,-1.6689453,0.041015625,0.23925781,-26.9375,-9.46875,-33.875,0.0,0.0,0.0
1664566761621,-1.2949219,0.08691406,-0.025390625,-31.25,-77.84375,-37.0625,0.0,0.0,0.0
1664566761662,-0.4794922,0.46972656,-0.0048828125,40.09375,-73.9375,-37.375,0.0,0.0,0.0
1664566761703,-1.8115234,-0.16601562,-0.19628906,-18.875,-103.71875,-56.59375,0.0,0.0,0.0
1664566761741,-1.6074219,0.75390625,-0.09082031,-27.46875,-96.8125,-52.6875,0.0,0.0,0.0
1664566761782,-0.8457031,0.34960938,0.23144531,-19.0625,-164.125,17.0625,0.0,0.0,0.0
1664566761822,-0.7265625,-0.083984375,0.02734375,-64.40625,-106.21875,0.84375,0.0,0.0,0.0
1664566761862,-0.6308594,-0.119140625,-0.11035156,20.0,-59.65625,-59.84375,0.0,0.0,0.0
1664566761902,-0.30859375,0.14257812,9.765625E-4,25.4375,-48.59375,-71.5,0.0,0.0,0.0
1664566761942,-0.38867188,-0.11816406,-0.021484375,72.1875,11.40625,9.125,-74.875,-9.125,-125.875
1664566761981,-0.42578125,0.017578125,0.40722656,28.65625,18.53125,17.75,0.0,0.0,0.0
1664566762023,-0.9667969,0.05859375,0.59375,19.875,81.28125,42.84375,0.0,0.0,0.0
1664566762062,-1.5068359,-0.10253906,1.0966797,62.0625,-96.09375,9.5,0.0,0.0,0.0
1664566762102,-0.93066406,-0.107421875,1.3310547,-76.5,-17.65625,-28.28125,0.0,0.0,0.0
1664566762141,-1.4677734,-0.12597656,0.3388672,-51.59375,-13.625,-15.40625,0.0,0.0,0.0
1664566762182,-1.2724609,0.49121094,-0.37890625,49.78125,142.5625,28.3125,0.0,0.0,0.0
1664566762222,-0.10839844,0.53222656,0.036132812,57.34375,-23.4375,24.71875,0.0,0.0,0.0
1664566762281,-1.5585938,-0.1640625,-0.42382812,-38.53125,138.84375,83.46875,0.0,0.0,0.0
1664566762302,-1.015625,0.051757812,0.18847656,37.8125,37.03125,5.65625,0.0,0.0,0.0
1664566762342,-0.9326172,0.21289062,0.0107421875,46.375,43.375,-6.375,0.0,0.0,0.0
1664566762382,-0.5878906,0.3779297,0.1796875,2.96875,115.21875,-33.34375,0.0,0.0,0.0
1664566762422,-0.7519531,0.040039062,-0.09765625,-69.03125,97.28125,-4.46875,0.0,0.0,0.0
1664566762462,-0.68066406,0.05859375,0.17089844,-18.6875,109.84375,18.40625,-74.375,-9.25,-137.75
1664566762502,-0.8251953,-0.072265625,0.12988281,-17.34375,81.96875,25.5,0.0,0.0,0.0
1664566762542,-0.92871094,0.053710938,0.19238281,8.15625,84.625,32.09375,0.0,0.0,0.0
1664566762581,-1.1777344,-0.048828125,0.15722656,-33.15625,70.0625,32.9375,0.0,0.0,0.0
1664566762621,-1.3408203,-0.4892578,0.080078125,-31.5,19.40625,15.4375,0.0,0.0,0.0
1664566762662,-1.578125,0.09765625,0.35742188,-19.90625,24.9375,-20.59375,0.0,0.0,0.0
1664566762702,-1.4990234,-0.009765625,0.041992188,-32.96875,-47.25,-27.71875,0.0,0.0,0.0
1664566762742,-0.7246094,0.22363281,-0.1484375,12.9375,-70.3125,-38.71875,0.0,0.0,0.0
1664566762782,-1.2001953,0.0048828125,-0.2607422,5.53125,-109.75,-54.65625,0.0,0.0,0.0
1664566762822,-1.7802734,0.47851562,-0.083984375,7.3125,-123.3125,-38.71875,0.0,0.0,0.0
1664566762862,-1.2490234,0.60253906,0.19824219,-28.8125,-166.46875,15.65625,0.0,0.0,0.0
1664566762902,-0.78222656,0.087890625,0.1953125,-74.96875,-174.625,16.28125,0.0,0.0,0.0
1664566762942,-0.6074219,-0.1640625,-9.765625E-4,-47.8125,-105.53125,-1.65625,-75.125,-10.625,-131.3125
1664566762982,-0.515625,-0.10058594,-0.001953125,3.84375,-40.3125,-83.28125,0.0,0.0,0.0
1664566763042,-0.20703125,0.19042969,-0.03515625,47.59375,-2.8125,-29.8125,0.0,0.0,0.0
1664566763062,-0.41503906,-0.0146484375,0.1875,49.96875,38.25,14.5,0.0,0.0,0.0
1664566763102,-0.6425781,-0.049804688,0.6777344,24.46875,50.53125,27.625,0.0,0.0,0.0
1664566763142,-1.9755859,0.15234375,0.9140625,34.53125,70.59375,48.375,0.0,0.0,0.0
1664566763182,-1.0693359,0.0234375,1.2402344,-44.21875,-41.65625,-40.71875,0.0,0.0,0.0
1664566763221,-1.1826172,-0.36132812,0.73828125,-69.90625,-51.96875,-35.0625,0.0,0.0,0.0
1664566763262,-1.3017578,0.5253906,-0.24121094,38.0625,137.25,21.21875,0.0,0.0,0.0
1664566763301,-0.89453125,0.23046875,0.24902344,58.40625,-0.5,6.46875,0.0,0.0,0.0
1664566763341,-0.97265625,-0.015625,-0.203125,54.96875,-6.59375,82.5625,0.0,0.0,0.0
1664566763402,-1.25,-0.10839844,-0.27929688,-37.1875,132.5,17.75,0.0,0.0,0.0
1664566763462,-0.9433594,0.32128906,0.2861328,89.71875,29.59375,-2.875,0.0,0.0,0.0
1664566763463,-0.70996094,0.2626953,-0.041015625,16.84375,93.96875,-22.46875,-91.625,1.8125,-131.875
1664566763502,-0.7783203,-0.00390625,0.1015625,-1.53125,70.78125,1.5,0.0,0.0,0.0
1664566763564,-0.72753906,0.15820312,0.08691406,9.9375,105.15625,-7.875,0.0,0.0,0.0
1664566763602,-0.82714844,0.0078125,0.14550781,4.5625,96.125,11.15625,0.0,0.0,0.0
1664566763642,-0.95703125,0.00390625,0.18457031,5.21875,77.8125,23.65625,0.0,0.0,0.0
1664566763682,-0.9921875,0.07324219,0.19824219,1.75,64.625,30.0,0.0,0.0,0.0
1664566763722,-1.2148438,-0.11621094,0.14453125,-50.5625,39.78125,23.0625,0.0,0.0,0.0
1664566763762,-1.3984375,-0.17480469,0.15136719,-24.1875,20.4375,-18.625,0.0,0.0,0.0
1664566763802,-1.7070312,0.016601562,0.20605469,-16.125,-21.6875,-44.8125,0.0,0.0,0.0
1664566763822,-1.0019531,0.23535156,-0.22558594,5.0,-86.9375,-32.96875,0.0,0.0,0.0
1664566763861,-1.0478516,0.099609375,-0.14160156,28.1875,-127.9375,-34.5625,0.0,0.0,0.0
1664566763922,-1.9746094,0.28515625,-0.08203125,-33.34375,-116.09375,-42.9375,0.0,0.0,0.0
1664566763962,-1.2109375,0.6201172,0.12988281,-47.6875,-142.84375,-10.28125,-75.625,-12.5625,-136.25
1664566764001,-0.8828125,0.0234375,0.23144531,-66.0625,-169.28125,17.625,0.0,0.0,0.0
1664566764043,-0.6142578,-0.07714844,0.0146484375,-41.9375,-121.71875,-0.3125,0.0,0.0,0.0
1664566764081,-0.7060547,-0.21289062,-0.026367188,5.0,-52.3125,-49.8125,0.0,0.0,0.0
1664566764102,-0.20214844,0.22363281,9.765625E-4,41.0625,-23.4375,-54.09375,0.0,0.0,0.0
1664566764142,-0.29785156,0.020507812,0.115234375,63.28125,36.65625,-6.5,0.0,0.0,0.0
1664566764202,-0.62597656,-0.051757812,0.51464844,44.1875,47.59375,30.375,0.0,0.0,0.0
1664566764243,-1.1210938,0.13476562,0.71484375,17.5,95.3125,42.21875,0.0,0.0,0.0
1664566764282,-1.4375,0.072265625,1.1230469,40.9375,-73.0625,-17.71875,0.0,0.0,0.0
1664566764302,-1.2011719,-0.6699219,1.2929688,-57.9375,-66.78125,-27.59375,0.0,0.0,0.0
1664566764342,-0.8876953,0.24414062,0.041992188,-46.9375,48.75,-36.15625,0.0,0.0,0.0
1664566764381,-1.2138672,0.23632812,-0.041015625,109.65625,120.53125,17.5,0.0,0.0,0.0
1664566764423,-0.6484375,0.58984375,0.37402344,75.1875,-75.8125,73.21875,0.0,0.0,0.0
1664566764483,-1.2666016,-0.23339844,-0.50683594,-62.9375,144.46875,43.4375,-92.375,5.4375,-132.625
1664566764502,-1.0107422,0.24804688,0.4033203,112.34375,72.125,-21.375,0.0,0.0,0.0
1664566764562,-0.77441406,0.22167969,-0.053710938,37.46875,68.90625,-23.5625,0.0,0.0,0.0
1664566764582,-0.6738281,0.17578125,0.1015625,-20.15625,98.5,-11.0625,0.0,0.0,0.0
1664566764642,-0.8046875,0.040039062,-0.0107421875,-22.0,90.25,-4.59375,0.0,0.0,0.0
1664566764681,-0.7402344,0.07421875,0.15039062,-8.4375,96.96875,11.40625,0.0,0.0,0.0
1664566764722,-0.82128906,-0.05078125,0.17285156,-0.25,93.5,26.34375,0.0,0.0,0.0
1664566764762,-1.1152344,0.033203125,0.12988281,13.15625,88.1875,39.96875,0.0,0.0,0.0
1664566764803,-1.2763672,-0.0068359375,0.13476562,-33.03125,58.28125,27.4375,0.0,0.0,0.0
1664566764822,-1.3203125,-0.265625,0.17480469,-24.3125,23.0625,-7.78125,0.0,0.0,0.0
1664566764862,-1.6748047,0.061523438,0.1953125,-32.125,-10.9375,-28.9375,0.0,0.0,0.0
1664566764902,-1.1923828,0.13867188,-0.22851562,-39.625,-89.75,-36.6875,0.0,0.0,0.0
1664566764962,-0.74902344,0.21777344,-0.018554688,30.0,-109.09375,-45.90625,-75.4375,-4.625,-146.4375
1664566764982,-1.8466797,0.123046875,-0.19824219,0.03125,-99.0625,-56.21875,0.0,0.0,0.0
1664566765022,-1.4179688,0.66015625,-0.07519531,-17.53125,-117.8125,-23.6875,0.0,0.0,0.0
1664566765064,-0.81152344,0.20898438,0.21484375,-37.5625,-210.59375,30.375,0.0,0.0,0.0
1664566765101,-0.75390625,-0.05859375,0.17578125,-76.4375,-117.15625,2.0,0.0,0.0,0.0
1664566765142,-0.53222656,-0.107421875,-0.055664062,-18.875,-65.8125,-41.8125,0.0,0.0,0.0
1664566765182,-0.37402344,0.10253906,0.009765625,7.75,-27.46875,-35.84375,0.0,0.0,0.0
1664566765222,-0.27734375,0.12792969,-0.026367188,56.5625,23.375,2.0,0.0,0.0,0.0
1664566765262,-0.48535156,-0.03515625,0.32910156,51.4375,51.625,25.125,0.0,0.0,0.0
1664566765322,-1.1123047,-0.0546875,0.65625,14.75,74.8125,17.5625,0.0,0.0,0.0
1664566765342,-1.4599609,0.1796875,1.4111328,74.875,-66.125,3.03125,0.0,0.0,0.0
1664566765382,-0.9892578,-0.18066406,0.8535156,-80.21875,6.875,-30.15625,0.0,0.0,0.0
1664566765422,-1.4765625,0.12109375,0.5625,-5.5625,7.84375,-17.71875,0.0,0.0,0.0
1664566765462,-1.2314453,0.49121094,-0.421875,-25.15625,88.78125,15.4375,-78.75,1.25,-138.5
1664566765502,-0.103515625,0.4423828,0.08300781,49.0,-64.28125,43.0625,0.0,0.0,0.0
1664566765542,-1.46875,-0.23046875,-0.6669922,-57.21875,163.5625,48.3125,0.0,0.0,0.0
1664566765582,-0.9746094,0.0146484375,0.32421875,70.96875,12.1875,26.34375,0.0,0.0,0.0
1664566765621,-0.9140625,0.064453125,-0.2861328,15.0,54.0625,1.21875,0.0,0.0,0.0
1664566765662,-0.5732422,0.25683594,0.29101562,1.03125,121.09375,-22.0,0.0,0.0,0.0
1664566765702,-0.7919922,-0.040039062,-0.07519531,-24.84375,74.875,-8.4375,0.0,0.0,0.0
1664566765742,-0.7314453,0.10058594,0.16503906,13.15625,90.0625,4.375,0.0,0.0,0.0
1664566765782,-0.85546875,0.03125,0.16992188,-12.40625,87.875,23.375,0.0,0.0,0.0
1664566765822,-0.95214844,0.015625,0.15429688,-7.8125,83.90625,30.375,0.0,0.0,0.0
1664566765862,-1.2851562,-0.09375,0.22460938,-26.75,61.75,38.875,0.0,0.0,0.0
1664566765902,-1.3818359,-0.29003906,0.16210938,-26.625,17.9375,-11.125,0.0,0.0,0.0
1664566765944,-1.6279297,0.05078125,0.19335938,-20.40625,2.5,-25.34375,-72.125,-2.8125,-150.625
1664566765982,-1.3105469,0.11621094,-0.08300781,-28.09375,-81.25,-15.46875,0.0,0.0,0.0
1664566766025,-0.515625,0.19140625,-0.0068359375,22.8125,-92.65625,-37.0625,0.0,0.0,0.0
1664566766084,-1.5585938,0.038085938,-0.15136719,-6.84375,-91.5,-62.46875,0.0,0.0,0.0
1664566766101,-1.5566406,0.48828125,-0.14648438,-26.1875,-130.6875,-33.03125,0.0,0.0,0.0
1664566766142,-1.03125,0.29882812,0.21582031,-8.5625,-164.5625,-4.71875,0.0,0.0,0.0
1664566766181,-0.7089844,0.0107421875,0.140625,-63.96875,-156.25,4.375,0.0,0.0,0.0
1664566766222,-0.68066406,-0.15917969,-0.08886719,-19.90625,-79.96875,-55.375,0.0,0.0,0.0
1664566766261,-0.4658203,-0.005859375,-0.02734375,66.6875,-25.46875,-89.6875,0.0,0.0,0.0
1664566766302,-0.30664062,0.08496094,0.024414062,65.28125,19.6875,-23.4375,0.0,0.0,0.0
1664566766342,-0.54589844,-0.018554688,0.3076172,54.96875,53.375,-2.46875,0.0,0.0,0.0
1664566766382,-0.7998047,-0.015625,0.49902344,13.03125,36.0,27.4375,0.0,0.0,0.0
1664566766421,-1.5625,0.20996094,1.0751953,45.6875,21.71875,43.0,0.0,0.0,0.0
1664566766461,-1.1064453,-0.18164062,1.0507812,-29.96875,-25.96875,-3.75,-70.9375,-3.6875,-130.375
1664566766501,-1.9697266,-0.13671875,0.76660156,-43.65625,18.34375,-18.3125,0.0,0.0,0.0
1664566766542,-0.7373047,0.3076172,-0.69140625,-30.53125,98.0,-67.59375,0.0,0.0,0.0
1664566766581,-0.22851562,0.7626953,0.25585938,88.71875,-79.71875,58.34375,0.0,0.0,0.0
1664566766622,-1.5605469,-0.2841797,-0.6386719,-113.46875,178.03125,46.1875,0.0,0.0,0.0
1664566766661,-0.8183594,0.12402344,0.33398438,131.625,-25.90625,29.21875,0.0,0.0,0.0
1664566766701,-1.0126953,0.013671875,-0.2421875,0.09375,86.03125,18.40625,0.0,0.0,0.0
1664566766742,-0.7314453,0.059570312,0.18945312,25.5625,123.53125,-33.28125,0.0,0.0,0.0
1664566766782,-0.703125,0.14355469,-0.049804688,24.8125,83.40625,-12.40625,0.0,0.0,0.0
1664566766842,-0.7392578,0.13476562,-0.018554688,29.40625,114.96875,11.71875,0.0,0.0,0.0
1664566766861,-0.8730469,0.05078125,0.17089844,8.03125,86.03125,34.46875,0.0,0.0,0.0
1664566766902,-1.0195312,0.12988281,0.053710938,0.0,83.0625,36.125,0.0,0.0,0.0
1664566766942,-1.2890625,0.15722656,0.2265625,-42.625,59.90625,42.71875,-70.1875,-2.1875,-144.9375
1664566766982,-1.28125,-0.5136719,-0.0146484375,-42.0625,19.40625,11.15625,0.0,0.0,0.0
1664566767022,-1.6386719,-0.07128906,0.10058594,6.21875,8.71875,-27.46875,0.0,0.0,0.0
1664566767062,-1.4482422,0.18457031,-0.09863281,-10.09375,-65.25,-33.84375,0.0,0.0,0.0
1664566767102,-0.7871094,0.265625,-0.095703125,27.09375,-101.21875,-47.8125,0.0,0.0,0.0
1664566767142,-1.0400391,0.10644531,-0.17871094,17.8125,-110.1875,-52.03125,0.0,0.0,0.0
1664566767182,-1.8955078,0.35253906,-0.18457031,-45.5,-111.40625,-30.15625,0.0,0.0,0.0
1664566767222,-1.3076172,0.59765625,0.06542969,3.84375,-168.03125,4.5625,0.0,0.0,0.0
1664566767261,-0.65625,0.07714844,0.4326172,-39.03125,-211.9375,2.65625,0.0,0.0,0.0
1664566767302,-0.5888672,-0.06640625,-0.055664062,-89.0625,-106.21875,-12.84375,0.0,0.0,0.0
1664566767342,-0.46484375,-0.001953125,0.12988281,17.375,-55.375,-35.65625,0.0,0.0,0.0
1664566767382,-0.20605469,0.17382812,0.043945312,16.90625,-6.90625,-18.5625,0.0,0.0,0.0
1664566767421,-0.35351562,0.037109375,0.08984375,40.625,33.4375,12.75,0.0,0.0,0.0
1664566767462,-0.5078125,-0.047851562,0.60253906,43.125,90.4375,36.96875,-85.8125,1.6875,-129.625
1664566767502,-1.8173828,0.040039062,0.6933594,2.71875,78.53125,41.1875,0.0,0.0,0.0
1664566767543,-1.0673828,0.013671875,1.1445312,18.71875,-75.28125,-36.03125,0.0,0.0,0.0
1664566767602,-1.3144531,-0.17382812,0.8310547,-77.46875,-29.0,-28.875,0.0,0.0,0.0
1664566767621,-1.1777344,0.52441406,-0.33691406,38.75,60.71875,3.90625,0.0,0.0,0.0
1664566767661,-0.8388672,0.37109375,0.23730469,74.625,-33.78125,24.9375,0.0,0.0,0.0
1664566767702,-0.7910156,0.07910156,-0.33691406,-33.09375,49.0625,56.0625,0.0,0.0,0.0
1664566767742,-1.4560547,-0.0625,-0.14355469,4.0,158.125,15.5,0.0,0.0,0.0
1664566767781,-0.8613281,0.31933594,0.42871094,39.34375,80.0,-15.21875,0.0,0.0,0.0
1664566767821,-0.61621094,0.06933594,-0.11816406,4.4375,109.0625,-19.59375,0.0,0.0,0.0
1664566767862,-0.8076172,-0.07128906,0.033203125,-20.78125,95.875,-15.21875,0.0,0.0,0.0
1664566767901,-0.6826172,0.12597656,0.051757812,4.5625,90.75,4.75,0.0,0.0,0.0
1664566767962,-0.8857422,0.10449219,0.20703125,-9.65625,76.875,29.34375,-69.625,-6.6875,-144.375
1664566767981,-0.9404297,0.0087890625,0.14648438,-39.625,74.75,27.875,0.0,0.0,0.0
1664566768022,-1.0800781,0.034179688,0.08984375,-30.71875,59.96875,36.46875,0.0,0.0,0.0
1664566768061,-1.3144531,-0.4453125,-0.0048828125,-49.5,22.4375,16.9375,0.0,0.0,0.0
1664566768103,-1.5058594,-0.09277344,0.13183594,-5.375,15.625,-14.46875,0.0,0.0,0.0
1664566768142,-1.6123047,0.041015625,0.08496094,-7.65625,-43.59375,-21.3125,0.0,0.0,0.0
1664566768182,-0.828125,0.3203125,-0.041992188,27.75,-101.625,-32.65625,0.0,0.0,0.0
1664566768222,-1.1376953,-0.038085938,-0.21972656,5.71875,-98.90625,-49.03125,0.0,0.0,0.0
1664566768261,-1.6748047,0.2705078,-0.22851562,-2.03125,-113.84375,-48.40625,0.0,0.0,0.0
1664566768301,-1.2617188,0.5908203,0.045898438,25.25,-147.28125,8.90625,0.0,0.0,0.0
1664566768361,-0.6816406,0.095703125,0.26171875,-64.96875,-200.03125,16.40625,0.0,0.0,0.0
1664566768381,-0.5957031,-0.045898438,0.10253906,-55.375,-112.875,-8.75,0.0,0.0,0.0
1664566768423,-0.57714844,-0.08105469,-0.0068359375,16.59375,-39.3125,-46.03125,0.0,0.0,0.0
1664566768463,-0.0859375,0.23730469,-0.12695312,37.59375,-29.0625,-22.21875,-100.625,4.0625,-132.625
1664566768502,-0.2421875,0.087890625,0.04296875,67.625,41.90625,6.46875,0.0,0.0,0.0
1664566768542,-0.70996094,0.091796875,0.5439453,27.8125,65.0625,30.9375,0.0,0.0,0.0
1664566768582,-1.7119141,0.328125,0.89746094,-9.125,70.1875,53.5625,0.0,0.0,0.0
1664566768621,-1.1542969,-0.12402344,1.296875,-24.6875,-73.1875,-23.28125,0.0,0.0,0.0
1664566768662,-1.3632812,-0.5205078,0.8935547,-26.25,8.78125,-26.625,0.0,0.0,0.0
1664566768702,-1.0810547,0.51660156,-0.25390625,-4.46875,64.5,-35.28125,0.0,0.0,0.0
1664566768742,-1.0136719,0.5390625,0.21875,96.34375,49.46875,11.8125,0.0,0.0,0.0
1664566768782,-0.8564453,0.1953125,0.0107421875,54.3125,-57.375,90.0,0.0,0.0,0.0
1664566768821,-1.3515625,-0.1015625,-0.29296875,-52.25,164.34375,-2.15625,0.0,0.0,0.0
1664566768863,-0.8544922,0.31933594,0.4716797,103.5625,66.875,-12.21875,0.0,0.0,0.0
1664566768902,-0.5722656,0.087890625,-0.0390625,7.0,121.75,-23.875,0.0,0.0,0.0
1664566768942,-0.81933594,-0.08105469,0.05859375,-43.53125,105.21875,-10.28125,-82.8125,-3.6875,-139.375
1664566768982,-0.6201172,0.08203125,0.091796875,11.71875,98.0625,0.0,0.0,0.0,0.0
1664566769022,-0.8798828,0.09082031,0.20800781,0.15625,90.0625,28.375,0.0,0.0,0.0
1664566769062,-0.9560547,-0.0107421875,0.1015625,-11.625,72.5,32.21875,0.0,0.0,0.0
1664566769122,-1.2773438,-0.015625,0.24804688,-25.96875,67.25,38.0625,0.0,0.0,0.0
1664566769142,-1.3945312,-0.40722656,0.07714844,-22.28125,19.8125,1.5,0.0,0.0,0.0
1664566769182,-1.5273438,0.11621094,0.19335938,-6.125,9.09375,-25.78125,0.0,0.0,0.0
1664566769222,-1.4033203,0.11621094,-0.10839844,-8.9375,-65.3125,-23.03125,0.0,0.0,0.0
1664566769261,-0.6826172,0.22265625,-0.1171875,35.625,-109.9375,-40.96875,0.0,0.0,0.0
1664566769302,-1.7382812,-0.03125,-0.111328125,3.9375,-88.625,-73.875,0.0,0.0,0.0
1664566769341,-1.515625,0.625,-0.18359375,-16.5625,-130.375,-41.03125,0.0,0.0,0.0
1664566769384,-1.0048828,0.33496094,0.18066406,22.9375,-181.21875,15.84375,0.0,0.0,0.0
1664566769424,-0.7373047,0.01171875,0.26660156,-85.46875,-162.6875,-0.375,0.0,0.0,0.0
1664566769461,-0.5917969,-0.13574219,-0.103515625,-8.375,-88.34375,-22.34375,-83.6875,-14.6875,-137.75
1664566769501,-0.2783203,0.15136719,-0.015625,55.03125,-52.03125,-28.21875,0.0,0.0,0.0
1664566769542,-0.20898438,0.18359375,0.046875,53.75,7.375,-2.28125,0.0,0.0,0.0
1664566769582,-0.41210938,-0.030273438,0.29882812,57.25,38.25,30.0625,0.0,0.0,0.0
1664566769621,-0.859375,0.041992188,0.69921875,16.84375,59.0,32.40625,0.0,0.0,0.0
1664566769662,-1.71875,0.203125,1.5488281,67.4375,-27.65625,10.46875,0.0,0.0,0.0
1664566769701,-0.9013672,-0.1953125,1.0644531,-98.21875,-4.09375,-33.34375,0.0,0.0,0.0
1664566769742,-1.5253906,0.049804688,0.39453125,-20.34375,13.90625,-11.25,0.0,0.0,0.0
1664566769782,-1.1455078,0.4501953,-0.5888672,23.375,153.90625,-9.0625,0.0,0.0,0.0
1664566769822,-0.20410156,0.66308594,0.24414062,44.0,-66.90625,32.09375,0.0,0.0,0.0
1664566769883,-1.5380859,-0.2705078,-0.5498047,-99.9375,170.03125,43.625,0.0,0.0,0.0
1664566769901,-0.91503906,0.055664062,0.2685547,72.875,16.65625,3.71875,0.0,0.0,0.0
1664566769942,-0.8671875,0.15527344,-0.091796875,-8.625,95.375,-29.0625,-90.4375,6.0625,-131.4375
1664566769982,-0.60839844,0.23730469,0.20019531,27.09375,104.59375,-22.90625,0.0,0.0,0.0
1664566770022,-0.75,0.018554688,-0.053710938,-18.03125,91.71875,-9.65625,0.0,0.0,0.0
1664566770062,-0.73828125,0.08984375,0.09082031,-8.6875,80.25,16.09375,0.0,0.0,0.0
1664566770102,-0.8408203,0.025390625,0.18945312,-46.78125,88.1875,28.5,0.0,0.0,0.0
1664566770142,-1.0898438,-0.033203125,0.087890625,-26.75,65.0,42.96875,0.0,0.0,0.0
1664566770181,-1.2666016,-0.0068359375,0.17578125,-29.0,49.3125,34.28125,0.0,0.0,0.0
1664566770222,-1.4228516,-0.26757812,0.20605469,-26.3125,16.59375,-9.96875,0.0,0.0,0.0
1664566770262,-1.6923828,-0.0107421875,0.125,-4.03125,-20.34375,-30.03125,0.0,0.0,0.0
1664566770302,-0.9589844,0.14746094,-0.28515625,14.75,-86.8125,-42.4375,0.0,0.0,0.0
1664566770344,-0.9404297,0.23144531,-0.16699219,40.4375,-115.375,-57.6875,0.0,0.0,0.0
1664566770382,-1.7890625,0.1171875,-0.076171875,9.1875,-106.8125,-55.5,0.0,0.0,0.0
1664566770421,-1.4980469,0.7050781,-0.0126953125,-48.84375,-119.03125,-9.53125,0.0,0.0,0.0
1664566770463,-0.73828125,0.087890625,0.24023438,-7.78125,-202.46875,20.375,-73.625,-12.125,-138.5
1664566770502,-0.7109375,-0.1953125,0.07421875,-74.59375,-156.375,0.09375,0.0,0.0,0.0
1664566770542,-0.6464844,-0.18652344,0.015625,17.125,-35.0,-55.0625,0.0,0.0,0.0
1664566770583,-0.27929688,0.19140625,0.10839844,82.125,-19.3125,-44.875,0.0,0.0,0.0
1664566770641,-0.29003906,0.123046875,0.080078125,63.09375,34.21875,-16.96875,0.0,0.0,0.0
1664566770662,-0.61328125,0.0234375,0.44628906,38.3125,65.0625,18.21875,0.0,0.0,0.0
1664566770703,-1.0117188,0.09277344,0.5859375,-3.0,56.9375,41.125,0.0,0.0,0.0
1664566770741,-1.4941406,0.072265625,1.0654297,69.5625,-33.53125,28.625,0.0,0.0,0.0
1664566770781,-1.0878906,-0.2265625,1.1767578,-38.84375,-20.59375,-16.6875,0.0,0.0,0.0
1664566770822,-1.3017578,0.26171875,0.41308594,-33.71875,5.34375,-12.53125,0.0,0.0,0.0
1664566770862,-1.1455078,0.34765625,-0.2529297,71.6875,110.34375,-7.15625,0.0,0.0,0.0
1664566770902,-0.5283203,0.64941406,0.35742188,75.1875,-82.96875,72.125,0.0,0.0,0.0
1664566770947,-1.3232422,-0.11230469,-0.67089844,-107.9375,200.59375,8.59375,-85.5,7.25,-134.3125
1664566770984,-0.8544922,0.22851562,0.6152344,116.125,-16.0,8.15625,0.0,0.0,0.0
1664566771023,-0.8310547,0.036132812,-0.2890625,-38.15625,99.84375,-23.9375,0.0,0.0,0.0
1664566771062,-0.64160156,0.076171875,0.13183594,-11.4375,96.0625,-21.3125,0.0,0.0,0.0
1664566771101,-0.7246094,0.10644531,0.04296875,1.09375,95.03125,-7.71875,0.0,0.0,0.0
1664566771143,-0.8144531,0.15527344,0.024414062,-13.75,85.8125,15.84375,0.0,0.0,0.0
1664566771182,-0.8964844,-0.01953125,0.2578125,-19.25,103.875,28.84375,0.0,0.0,0.0
1664566771221,-1.0839844,0.07324219,0.041992188,-16.625,77.5,30.25,0.0,0.0,0.0
1664566771263,-1.3671875,-0.31933594,0.18554688,-56.03125,40.75,27.03125,0.0,0.0,0.0
1664566771302,-1.3027344,-0.20019531,0.11621094,-20.03125,8.84375,-5.875,0.0,0.0,0.0
1664566771342,-1.7646484,0.12792969,0.12792969,-5.15625,-17.90625,-26.875,0.0,0.0,0.0
1664566771402,-1.0087891,0.40820312,-0.13378906,12.3125,-93.40625,-35.59375,0.0,0.0,0.0
1664566771422,-0.94433594,0.14648438,-0.14355469,-11.4375,-117.8125,-45.78125,0.0,0.0,0.0
1664566771461,-1.6943359,0.032226562,-0.099609375,-27.0625,-109.875,-38.53125,-73.0625,-10.9375,-145.875
1664566771502,-1.4384766,0.68359375,0.051757812,-38.90625,-147.34375,-16.875,0.0,0.0,0.0
1664566771543,-0.7832031,0.13964844,0.3125,-66.375,-196.78125,-1.0,0.0,0.0,0.0
1664566771584,-0.8105469,-0.20214844,0.059570312,-27.125,-125.4375,-10.75,0.0,0.0,0.0
1664566771623,-0.5605469,-0.029296875,-0.01953125,18.71875,-53.90625,-41.8125,0.0,0.0,0.0
1664566771662,-0.18457031,0.1953125,-0.08496094,44.125,-46.65625,-21.4375,0.0,0.0,0.0
1664566771702,-0.2841797,0.12207031,0.13574219,67.0,7.625,8.03125,0.0,0.0,0.0
1664566771741,-0.4873047,-0.032226562,0.5722656,35.5625,72.1875,33.125,0.0,0.0,0.0
1664566771782,-0.9785156,-0.076171875,0.7128906,-14.25,20.0625,51.0625,0.0,0.0,0.0
1664566771822,-1.8291016,0.2763672,1.3613281,107.40625,14.21875,22.5625,0.0,0.0,0.0
1664566771861,-1.0478516,-0.11816406,1.2724609,-57.75,-13.5,-28.46875,0.0,0.0,0.0
1664566771902,-1.1152344,0.16894531,0.359375,-35.28125,9.1875,-10.4375,0.0,0.0,0.0
1664566771942,-1.3320312,0.328125,-0.087890625,110.875,80.71875,16.40625,-71.5625,-0.25,-139.5625
1664566771982,-0.47460938,0.42285156,0.14257812,15.0,-0.875,35.5,0.0,0.0,0.0
1664566772022,-1.3603516,-0.055664062,-0.37597656,-61.84375,162.15625,12.25,0.0,0.0,0.0
1664566772061,-0.88671875,0.20410156,0.3642578,101.84375,3.09375,10.25,0.0,0.0,0.0
1664566772102,-0.7529297,0.20507812,-0.06933594,1.09375,118.40625,-21.5,0.0,0.0,0.0
1664566772163,-0.7861328,-0.0546875,0.0068359375,-3.875,97.59375,-8.1875,0.0,0.0,0.0
1664566772182,-0.74316406,0.0048828125,0.078125,4.4375,92.8125,-1.25,0.0,0.0,0.0
1664566772224,-0.82128906,0.14257812,0.061523438,15.96875,77.625,15.65625,0.0,0.0,0.0
1664566772262,-0.9951172,0.048828125,0.21875,-9.125,95.03125,29.34375,0.0,0.0,0.0
1664566772301,-1.1181641,0.10644531,0.21582031,-31.75,74.15625,31.96875,0.0,0.0,0.0
1664566772342,-1.3330078,-0.31445312,0.14257812,-69.71875,23.84375,26.65625,0.0,0.0,0.0
1664566772382,-1.3759766,-0.22460938,0.19628906,-23.4375,4.625,-19.0,0.0,0.0,0.0
1664566772421,-1.5283203,0.07910156,-0.0087890625,-0.9375,-41.59375,-33.78125,0.0,0.0,0.0
1664566772461,-0.84765625,0.24707031,-0.1796875,36.4375,-116.71875,-38.34375,-71.5625,-5.9375,-153.0625
1664566772502,-1.3183594,0.049804688,-0.19628906,-6.25,-109.5625,-68.0,0.0,0.0,0.0
1664566772542,-1.6943359,0.37695312,-0.20605469,-38.59375,-114.46875,-49.9375,0.0,0.0,0.0
1664566772581,-1.2226562,0.5546875,0.12792969,-12.09375,-169.625,0.40625,0.0,0.0,0.0
1664566772621,-0.7207031,0.0087890625,0.2548828,-90.34375,-197.28125,10.375,0.0,0.0,0.0
1664566772662,-0.73046875,-0.20019531,-0.072265625,-13.4375,-111.40625,-28.28125,0.0,0.0,0.0
1664566772701,-0.4248047,0.041992188,0.041015625,40.75,-48.96875,-42.3125,0.0,0.0,0.0
1664566772742,-0.15429688,0.27929688,0.045898438,53.6875,-22.0,-4.71875,0.0,0.0,0.0
1664566772782,-0.24902344,-0.049804688,0.25976562,54.625,39.78125,22.3125,0.0,0.0,0.0
1664566772822,-0.7480469,-0.27441406,0.6328125,38.125,84.03125,44.90625,0.0,0.0,0.0
1664566772862,-1.9833984,0.41796875,0.859375,62.125,99.90625,35.15625,0.0,0.0,0.0
1664566772922,-0.8183594,0.030273438,1.3261719,-87.59375,-38.03125,-40.375,0.0,0.0,0.0
1664566772943,-1.2675781,-0.072265625,0.4970703,-40.1875,-14.1875,7.5625,-69.3125,-3.875,-131.875
1664566772981,-1.3925781,0.68066406,-0.48828125,63.21875,140.125,21.71875,0.0,0.0,0.0
1664566773022,-0.3720703,0.41601562,0.12109375,3.15625,-80.28125,-8.4375,0.0,0.0,0.0
1664566773062,-1.25,-0.11425781,-0.30859375,-56.40625,90.6875,37.53125,0.0,0.0,0.0
1664566773101,-1.2617188,-0.01953125,-0.005859375,12.875,53.6875,-28.59375,0.0,0.0,0.0
1664566773143,-0.8515625,0.33398438,0.1953125,39.0,62.3125,-29.0,0.0,0.0,0.0
1664566773182,-0.62597656,0.27929688,0.10058594,22.3125,99.65625,-16.0625,0.0,0.0,0.0
1664566773222,-0.8261719,-0.07421875,0.0078125,-27.40625,103.375,-9.15625,0.0,0.0,0.0
1664566773262,-0.74316406,0.076171875,0.11035156,3.90625,81.53125,8.59375,0.0,0.0,0.0
1664566773301,-0.8417969,0.06738281,0.14941406,-8.5,90.3125,27.6875,0.0,0.0,0.0
1664566773342,-0.94140625,0.029296875,0.17871094,-24.0625,86.65625,37.34375,0.0,0.0,0.0
1664566773382,-1.2451172,-0.08984375,0.203125,-34.375,65.34375,28.90625,0.0,0.0,0.0
1664566773422,-1.34375,-0.33789062,0.15429688,-24.375,17.8125,1.75,0.0,0.0,0.0
1664566773461,-1.5419922,0.0078125,0.2265625,-10.28125,9.3125,-23.40625,-74.6875,-3.125,-156.5
1664566773502,-1.484375,0.09082031,-0.051757812,-23.5625,-60.8125,-15.53125,0.0,0.0,0.0
1664566773542,-0.6044922,0.3330078,-0.044921875,25.625,-81.0625,-35.28125,0.0,0.0,0.0
1664566773582,-1.2109375,0.11035156,-0.07519531,-10.34375,-116.03125,-48.90625,0.0,0.0,0.0
1664566773622,-1.6806641,0.34277344,-0.16503906,-86.375,-130.3125,-35.71875,0.0,0.0,0.0
1664566773682,-1.1113281,0.55371094,0.32128906,-50.125,-153.875,-15.46875,0.0,0.0,0.0
1664566773704,-0.69628906,-0.080078125,0.09082031,-65.375,-121.0,-7.59375,0.0,0.0,0.0
1664566773742,-0.75,-0.3876953,-0.059570312,-6.3125,-66.59375,-47.0,0.0,0.0,0.0
1664566773782,-0.3046875,0.07910156,-0.0126953125,60.71875,-51.59375,-48.1875,0.0,0.0,0.0
1664566773822,-0.22265625,0.25195312,0.041992188,68.59375,-12.78125,-4.40625,0.0,0.0,0.0
1664566773861,-0.41992188,-0.032226562,0.34472656,51.3125,13.84375,26.71875,0.0,0.0,0.0
1664566773901,-0.80859375,-0.18164062,0.63183594,17.75,33.84375,45.15625,0.0,0.0,0.0
1664566773942,-1.6933594,0.095703125,1.2929688,87.875,21.34375,42.53125,-76.9375,-1.0,-136.6875
1664566773982,-1.1230469,-0.234375,1.1621094,-34.75,0.03125,-37.0625,0.0,0.0,0.0
1664566774023,-1.5283203,0.0,0.6035156,-19.125,6.40625,-27.78125,0.0,0.0,0.0
1664566774081,-1.2509766,0.4248047,-0.74609375,31.46875,158.25,-1.59375,0.0,0.0,0.0
1664566774101,-0.18457031,0.72753906,0.14453125,60.71875,-97.71875,40.5625,0.0,0.0,0.0
1664566774142,-1.5058594,-0.21582031,-0.5878906,-95.71875,173.625,35.625,0.0,0.0,0.0
1664566774182,-0.9433594,-0.025390625,0.25585938,67.375,4.375,-6.5,0.0,0.0,0.0
1664566774222,-0.8564453,0.2734375,-0.14355469,0.84375,86.78125,-13.25,0.0,0.0,0.0
1664566774262,-0.66308594,0.2763672,0.23339844,66.8125,89.875,-12.53125,0.0,0.0,0.0
1664566774302,-0.7832031,-0.057617188,-0.043945312,-32.375,89.53125,-7.65625,0.0,0.0,0.0
1664566774342,-0.8261719,0.10253906,0.15136719,-20.84375,75.375,16.09375,0.0,0.0,0.0
1664566774384,-0.98828125,-0.12792969,0.13183594,-25.65625,88.0,17.1875,0.0,0.0,0.0
1664566774442,-1.0009766,0.087890625,0.2734375,-6.96875,77.75,29.15625,0.0,0.0,0.0
1664566774462,-1.1689453,0.0,0.1328125,-41.65625,43.0,35.75,-74.25,-5.8125,-155.625
1664566774502,-1.3466797,-0.42089844,0.18945312,-23.9375,17.125,8.59375,0.0,0.0,0.0
1664566774543,-1.5693359,0.0859375,0.22460938,-4.28125,-0.1875,-24.25,0.0,0.0,0.0
1664566774582,-1.3203125,0.23046875,-0.12011719,-20.03125,-68.9375,-20.40625,0.0,0.0,0.0
1664566774622,-0.5683594,0.25390625,-0.05078125,31.71875,-86.875,-37.5625,0.0,0.0,0.0
1664566774664,-1.6689453,0.025390625,-0.001953125,15.90625,-96.21875,-66.1875,0.0,0.0,0.0
1664566774701,-1.4423828,0.50683594,-0.107421875,-56.84375,-108.96875,-45.3125,0.0,0.0,0.0
1664566774742,-0.82128906,0.22949219,0.05859375,-9.125,-167.6875,5.125,0.0,0.0,0.0
1664566774782,-0.77246094,-0.0390625,0.07421875,-51.40625,-125.875,-10.5625,0.0,0.0,0.0
1664566774822,-0.59277344,-0.048828125,-0.08300781,9.3125,-89.625,-22.46875,0.0,0.0,0.0
1664566774882,-0.6201172,0.10058594,0.109375,54.84375,-56.40625,-27.3125,0.0,0.0,0.0
1664566774902,-0.25683594,0.16308594,0.061523438,50.875,-4.84375,-12.59375,0.0,0.0,0.0
1664566774942,-0.4326172,0.00390625,0.32617188,43.75,21.34375,19.21875,-98.5625,4.6875,-130.875
1664566774982,-0.86328125,-0.016601562,0.5732422,0.34375,55.59375,31.46875,0.0,0.0,0.0
1664566775021,-1.5664062,0.07714844,1.4326172,109.53125,-48.96875,24.71875,0.0,0.0,0.0
1664566775062,-1.0449219,-0.20410156,1.0224609,-54.34375,7.4375,-30.40625,0.0,0.0,0.0
1664566775102,-1.5009766,-0.03125,0.44335938,-5.4375,13.53125,-24.96875,0.0,0.0,0.0
1664566775142,-1.1699219,0.5029297,-0.60058594,-2.6875,138.15625,-2.40625,0.0,0.0,0.0
1664566775202,-0.19433594,0.5234375,0.19042969,59.5625,-66.0625,40.34375,0.0,0.0,0.0
1664566775221,-1.6064453,0.02734375,-0.4658203,-72.90625,167.78125,49.125,0.0,0.0,0.0
1664566775262,-0.88183594,-0.018554688,0.16210938,46.1875,23.78125,-22.84375,0.0,0.0,0.0
1664566775302,-0.8642578,0.20703125,-0.119140625,15.3125,83.125,-24.75,0.0,0.0,0.0
1664566775342,-0.66503906,0.2529297,0.18652344,32.8125,79.03125,-6.59375,0.0,0.0,0.0
1664566775382,-0.81152344,-0.0146484375,0.048828125,-21.75,87.8125,-1.59375,0.0,0.0,0.0
1664566775422,-0.8173828,0.0048828125,0.0859375,-15.21875,82.1875,-1.96875,0.0,0.0,0.0
1664566775462,-0.8808594,0.0048828125,0.19921875,6.34375,77.125,15.5625,-78.875,-10.4375,-149.3125
1664566775502,-0.94628906,0.048828125,0.16601562,-13.25,66.5625,25.0625,0.0,0.0,0.0
1664566775542,-1.2646484,-0.01171875,0.12207031,-36.21875,62.125,30.625,0.0,0.0,0.0
1664566775581,-1.3183594,-0.421875,0.072265625,-21.0625,18.84375,7.375,0.0,0.0,0.0
1664566775623,-1.5361328,0.16992188,0.17871094,-7.46875,9.875,-28.8125,0.0,0.0,0.0
1664566775662,-1.40625,0.27246094,-0.10546875,-42.5,-71.65625,-17.71875,0.0,0.0,0.0
1664566775701,-0.58496094,0.1875,-0.087890625,-0.6875,-96.875,-27.0,0.0,0.0,0.0
1664566775742,-1.4287109,-0.076171875,-0.12011719,-32.65625,-90.28125,-68.3125,0.0,0.0,0.0
1664566775783,-1.7138672,0.4091797,-0.061523438,-53.84375,-112.5625,-49.875,0.0,0.0,0.0
1664566775822,-1.015625,0.24316406,0.17773438,-14.96875,-179.46875,-2.28125,0.0,0.0,0.0
1664566775861,-0.73535156,-0.06933594,0.13964844,-32.84375,-139.34375,-6.5,0.0,0.0,0.0
1664566775902,-0.7519531,-0.2763672,-0.05859375,32.75,-81.25,-60.4375,0.0,0.0,0.0
1664566775962,-0.23144531,0.14941406,-0.01953125,52.0625,-45.5625,-47.0625,-94.8125,-13.3125,-135.5
1664566775982,-0.31835938,0.23144531,-0.0087890625,85.6875,-30.65625,11.40625,0.0,0.0,0.0
1664566776022,-0.35839844,0.14746094,0.43066406,46.75,36.25,19.03125,0.0,0.0,0.0
1664566776062,-0.7207031,-0.064453125,0.5214844,-27.59375,48.5625,47.53125,0.0,0.0,0.0
1664566776101,-1.8310547,0.12207031,1.0224609,52.0625,68.21875,45.40625,0.0,0.0,0.0
1664566776142,-1.0166016,-0.091796875,1.15625,-61.53125,3.59375,-38.65625,0.0,0.0,0.0
1664566776181,-1.2324219,-0.13378906,0.7050781,-62.625,-19.65625,-7.65625,0.0,0.0,0.0
1664566776224,-1.0283203,0.6425781,-0.10546875,37.40625,85.125,26.96875,0.0,0.0,0.0
1664566776262,-1.3115234,0.50097656,0.47851562,67.5,-4.21875,46.8125,0.0,0.0,0.0
1664566776302,-0.5283203,0.21582031,-0.296875,-36.46875,44.84375,53.09375,0.0,0.0,0.0
1664566776342,-1.5166016,-0.15039062,-0.29492188,-57.875,120.21875,6.6875,0.0,0.0,0.0
1664566776382,-0.89453125,0.26464844,0.23144531,42.65625,75.1875,-32.78125,0.0,0.0,0.0
1664566776421,-0.5908203,0.22167969,-0.015625,1.5,102.46875,-20.71875,0.0,0.0,0.0
1664566776462,-0.90234375,-0.046875,0.12988281,-50.5625,97.59375,-2.9375,-94.9375,-5.1875,-143.0
1664566776503,-0.7714844,0.05078125,0.08203125,-14.90625,60.59375,6.03125,0.0,0.0,0.0
1664566776542,-0.8076172,0.025390625,0.171875,-4.65625,72.5,18.84375,0.0,0.0,0.0
1664566776582,-0.8144531,0.037109375,0.203125,2.0,85.5,27.9375,0.0,0.0,0.0
1664566776622,-1.1435547,-0.13183594,0.06347656,-36.9375,64.25,33.0625,0.0,0.0,0.0
1664566776662,-1.3085938,-0.21386719,0.0390625,-30.28125,35.03125,19.6875,0.0,0.0,0.0
1664566776722,-1.453125,-0.055664062,0.24023438,-19.65625,17.5,-16.6875,0.0,0.0,0.0
1664566776741,-1.65625,0.036132812,0.10546875,-33.875,-37.5,-27.84375,0.0,0.0,0.0
1664566776783,-0.9316406,0.18945312,-0.1875,-12.46875,-77.09375,-36.40625,0.0,0.0,0.0
1664566776822,-1.1025391,0.1328125,-0.033203125,27.4375,-114.34375,-40.125,0.0,0.0,0.0
1664566776862,-1.5761719,0.053710938,-0.1640625,-37.90625,-102.0625,-41.40625,0.0,0.0,0.0
1664566776903,-1.3544922,0.546875,0.051757812,-14.34375,-143.875,-10.875,0.0,0.0,0.0
1664566776942,-0.76953125,0.125,0.23925781,-4.34375,-186.40625,3.65625,-78.875,-13.75,-149.0
1664566776982,-0.7050781,-0.04296875,0.13574219,-32.3125,-125.0,-7.28125,0.0,0.0,0.0
1664566777022,-0.5908203,-0.06542969,0.0107421875,0.71875,-35.28125,-57.21875,0.0,0.0,0.0
1664566777063,-0.15136719,0.1484375,0.0087890625,54.0625,-23.625,-32.71875,0.0,0.0,0.0
1664566777102,-0.42382812,0.10546875,0.040039062,80.71875,21.90625,-4.15625,0.0,0.0,0.0
1664566777142,-0.4501953,9.765625E-4,0.6123047,62.0,61.03125,21.59375,0.0,0.0,0.0
1664566777182,-1.7177734,0.09277344,0.5234375,15.65625,59.5,59.625,0.0,0.0,0.0
1664566777222,-0.83203125,0.21777344,1.3847656,1.625,-70.6875,-10.875,0.0,0.0,0.0
1664566777262,-1.078125,-0.1328125,0.8125,-36.8125,-28.6875,9.5,0.0,0.0,0.0
1664566777302,-1.6601562,0.42578125,-0.0107421875,11.03125,110.34375,-4.96875,0.0,0.0,0.0
1664566777342,-0.013671875,0.111328125,0.15234375,36.65625,-0.8125,-40.0,0.0,0.0,0.0
1664566777382,-1.5664062,0.41992188,-0.09472656,55.96875,15.96875,114.125,0.0,0.0,0.0
1664566777422,-1.2138672,-0.2939453,-0.15429688,-44.15625,88.78125,-23.875,0.0,0.0,0.0
1664566777481,-0.7246094,0.30078125,0.26953125,102.15625,29.84375,-36.6875,-95.125,9.1875,-134.4375
1664566777502,-0.7246094,0.123046875,-0.12597656,-22.125,99.53125,-32.25,0.0,0.0,0.0
1664566777542,-0.8613281,0.025390625,0.061523438,13.28125,93.375,-0.75,0.0,0.0,0.0
1664566777582,-0.734375,0.033203125,0.037109375,29.28125,86.03125,8.71875,0.0,0.0,0.0
1664566777621,-0.8730469,0.032226562,0.109375,29.65625,86.96875,19.09375,0.0,0.0,0.0
1664566777662,-0.77734375,0.17480469,0.08203125,25.125,78.0,30.4375,0.0,0.0,0.0
1664566777702,-1.2382812,0.041992188,0.091796875,-53.0625,70.25,36.59375,0.0,0.0,0.0
1664566777742,-1.3173828,-0.3076172,0.123046875,-48.84375,28.125,11.28125,0.0,0.0,0.0
1664566777781,-1.4765625,-0.1015625,0.2421875,-43.71875,14.3125,-13.25,0.0,0.0,0.0
1664566777822,-1.6103516,0.04296875,0.03125,-48.96875,-35.40625,-26.5625,0.0,0.0,0.0
1664566777861,-0.7636719,0.28125,-0.09472656,12.3125,-91.4375,-31.21875,0.0,0.0,0.0
1664566777902,-1.2226562,-0.028320312,-0.15722656,-21.6875,-101.53125,-62.03125,0.0,0.0,0.0
1664566777942,-1.6064453,0.22363281,-0.12988281,-63.5625,-104.8125,-63.0625,-73.625,-12.4375,-147.8125
1664566777982,-1.2304688,0.65625,0.017578125,-24.3125,-136.625,-9.84375,0.0,0.0,0.0
1664566778021,-0.69921875,0.11425781,0.30078125,-42.3125,-135.21875,-4.65625,0.0,0.0,0.0
1664566778063,-0.5097656,-0.23730469,-0.15625,-94.125,-77.15625,-4.28125,0.0,0.0,0.0
1664566778101,-0.6425781,-0.18652344,0.12597656,75.65625,-46.28125,-55.625,0.0,0.0,0.0
1664566778142,-0.35839844,0.2421875,-0.01953125,93.125,-19.5,-22.71875,0.0,0.0,0.0
1664566778182,-0.41210938,0.12109375,0.29589844,70.1875,17.5,-3.75,0.0,0.0,0.0
1664566778242,-0.83984375,-0.024414062,0.39746094,10.59375,69.75,34.03125,0.0,0.0,0.0
1664566778262,-1.6054688,0.0078125,1.2480469,80.1875,-8.1875,41.65625,0.0,0.0,0.0
1664566778302,-1.1689453,-0.09375,0.9404297,-59.21875,11.75,-24.84375,0.0,0.0,0.0
1664566778341,-1.2988281,-0.38964844,1.0527344,5.0625,-35.40625,-23.34375,0.0,0.0,0.0
1664566778382,-1.2666016,0.5410156,-0.4423828,-11.25,118.09375,-15.34375,0.0,0.0,0.0
1664566778422,-0.70214844,0.69921875,0.25097656,120.28125,-47.625,14.375,0.0,0.0,0.0
1664566778461,-1.0693359,0.10839844,-0.27734375,13.71875,24.53125,88.90625,-85.0625,10.6875,-140.4375
1664566778502,-1.2626953,-0.22949219,-0.31054688,-50.25,125.53125,-15.40625,0.0,0.0,0.0
1664566778542,-0.85253906,0.48242188,0.3779297,154.65625,36.90625,2.5,0.0,0.0,0.0
1664566778581,-0.50683594,0.28027344,-0.06542969,-24.0625,120.53125,-28.09375,0.0,0.0,0.0
1664566778622,-0.93066406,-0.08886719,9.765625E-4,-30.46875,98.875,4.25,0.0,0.0,0.0
1664566778661,-0.8173828,0.15527344,0.14941406,-2.6875,80.5,-2.15625,0.0,0.0,0.0
1664566778702,-0.88183594,0.0146484375,0.23925781,-12.59375,79.6875,17.5,0.0,0.0,0.0
1664566778742,-0.89941406,0.05078125,-0.025390625,-12.28125,78.28125,23.96875,0.0,0.0,0.0
1664566778785,-1.3398438,0.048828125,0.14550781,3.71875,66.40625,49.0625,0.0,0.0,0.0
1664566778822,-1.3066406,-0.17480469,0.16210938,-40.40625,21.71875,9.375,0.0,0.0,0.0
1664566778862,-1.484375,-0.15234375,0.13769531,-38.84375,3.28125,-13.1875,0.0,0.0,0.0
1664566778902,-1.3632812,0.052734375,-0.19726562,-27.40625,-59.28125,-29.625,0.0,0.0,0.0
1664566778942,-0.80859375,0.29882812,-0.076171875,36.53125,-94.125,-52.375,-72.875,-8.5,-158.875
1664566779002,-1.6884766,0.10449219,-0.078125,17.8125,-97.0,-62.6875,0.0,0.0,0.0
1664566779021,-1.5214844,0.5,-0.19824219,-47.5,-122.03125,-15.28125,0.0,0.0,0.0
1664566779061,-0.9433594,0.22753906,0.08105469,-6.59375,-162.625,9.9375,0.0,0.0,0.0
1664566779105,-0.63964844,0.13574219,0.10449219,-75.15625,-169.8125,4.1875,0.0,0.0,0.0
1664566779142,-0.45507812,0.049804688,-0.076171875,-47.375,-75.875,-7.03125,0.0,0.0,0.0
1664566779182,-0.54003906,0.029296875,0.001953125,40.34375,-31.75,-34.375,0.0,0.0,0.0
1664566779222,-0.3701172,0.15527344,0.030273438,40.75,15.1875,-33.53125,0.0,0.0,0.0
1664566779261,-0.44433594,0.043945312,0.3359375,32.75,23.4375,13.71875,0.0,0.0,0.0
1664566779302,-0.81933594,0.051757812,0.40429688,-14.1875,53.09375,30.8125,0.0,0.0,0.0
1664566779342,-1.7529297,-0.05859375,1.2617188,79.8125,-37.125,49.96875,0.0,0.0,0.0
1664566779382,-1.2568359,-0.31347656,1.0722656,-70.5625,23.78125,-51.40625,0.0,0.0,0.0
1664566779422,-1.5263672,-0.08984375,0.66796875,-25.84375,26.21875,-29.96875,0.0,0.0,0.0
1664566779462,-1.0888672,0.5136719,-0.5283203,24.46875,143.40625,3.21875,-69.0,-2.8125,-139.25
1664566779502,-0.30566406,0.76464844,0.16503906,80.84375,-78.25,39.15625,0.0,0.0,0.0
1664566779542,-1.5849609,0.08886719,-0.30566406,-65.8125,123.03125,67.90625,0.0,0.0,0.0
1664566779582,-1.0625,-0.26660156,-0.2685547,7.5,76.34375,-8.1875,0.0,0.0,0.0
1664566779622,-0.8300781,0.3388672,0.3046875,82.25,59.25,-13.125,0.0,0.0,0.0
1664566779661,-0.6513672,0.078125,-0.064453125,-14.0,113.5,-44.9375,0.0,0.0,0.0
1664566779703,-0.83984375,0.10546875,0.15527344,-1.90625,93.90625,-3.5,0.0,0.0,0.0
1664566779762,-0.8095703,0.018554688,0.022460938,3.53125,86.34375,4.25,0.0,0.0,0.0
1664566779783,-0.8017578,0.060546875,0.17578125,-13.8125,70.84375,20.8125,0.0,0.0,0.0
1664566779822,-1.0683594,0.001953125,0.125,-32.5625,72.8125,31.28125,0.0,0.0,0.0
1664566779862,-1.3066406,-0.08691406,0.1875,-21.0625,51.875,35.6875,0.0,0.0,0.0
1664566779902,-1.3242188,-0.29882812,0.09765625,-15.15625,11.75,1.375,0.0,0.0,0.0
1664566779942,-1.5283203,0.022460938,0.09082031,-4.28125,-11.0,-16.0,-68.5625,-9.5625,-156.8125
1664566779982,-1.2119141,0.21972656,-0.24023438,-0.3125,-73.9375,-23.8125,0.0,0.0,0.0
1664566780021,-0.77734375,0.27246094,-0.11328125,51.5,-105.96875,-44.4375,0.0,0.0,0.0
1664566780063,-1.7304688,0.14355469,0.028320312,0.34375,-105.84375,-54.6875,0.0,0.0,0.0
1664566780102,-1.3613281,0.6425781,-0.11230469,-46.875,-117.875,-20.875,0.0,0.0,0.0
1664566780141,-0.8457031,0.07128906,0.059570312,-46.84375,-186.0,11.8125,0.0,0.0,0.0
1664566780182,-0.6953125,-0.018554688,0.23632812,-114.75,-133.5,1.3125,0.0,0.0,0.0
1664566780222,-0.46875,0.05859375,-0.18945312,3.34375,-64.53125,-21.125,0.0,0.0,0.0
1664566780262,-0.59472656,0.048828125,0.1171875,81.46875,-45.375,-33.59375,0.0,0.0,0.0
1664566780302,-0.33007812,0.12207031,0.1484375,52.34375,18.1875,-17.84375,0.0,0.0,0.0
1664566780342,-0.4765625,-0.087890625,0.38476562,44.125,36.375,18.40625,0.0,0.0,0.0
1664566780382,-1.0048828,0.024414062,0.5019531,2.125,54.90625,29.9375,0.0,0.0,0.0
1664566780424,-1.46875,0.13183594,1.3720703,75.0,-51.96875,8.71875,0.0,0.0,0.0
1664566780462,-0.9794922,-0.20703125,0.921875,-61.21875,16.46875,-34.1875,-81.125,-7.0,-137.125
1664566780522,-1.3925781,-0.12792969,0.50878906,-22.71875,19.6875,-22.90625,0.0,0.0,0.0
1664566780542,-1.1025391,0.49316406,-0.38378906,14.8125,115.59375,3.59375,0.0,0.0,0.0
1664566780582,-0.48828125,0.72753906,0.27441406,73.15625,-73.125,44.90625,0.0,0.0,0.0
1664566780622,-1.3857422,-0.16796875,-0.42089844,-67.34375,102.59375,51.875,0.0,0.0,0.0
1664566780665,-1.1679688,-0.10839844,-0.13378906,3.03125,76.28125,-16.5625,0.0,0.0,0.0
1664566780702,-0.7910156,0.2734375,0.0390625,52.84375,68.40625,-24.96875,0.0,0.0,0.0
1664566780743,-0.5957031,0.35742188,0.06640625,-1.59375,102.28125,-23.875,0.0,0.0,0.0
1664566780782,-0.8515625,-0.018554688,0.03125,-14.96875,100.875,-3.3125,0.0,0.0,0.0
1664566780823,-0.7451172,-0.07128906,-0.030273438,-11.5625,84.53125,4.6875,0.0,0.0,0.0
1664566780863,-0.79785156,0.14257812,0.12109375,-12.03125,77.0,17.1875,0.0,0.0,0.0
1664566780902,-1.0107422,0.0234375,0.08300781,-6.78125,74.25,35.5625,0.0,0.0,0.0
1664566780941,-1.2490234,0.032226562,0.12988281,-29.625,59.3125,28.0,-72.875,-10.3125,-155.75
1664566780982,-1.3408203,-0.23632812,0.0859375,-49.03125,13.0,6.5625,0.0,0.0,0.0
1664566781021,-1.5048828,-0.11230469,0.17773438,-46.03125,-13.8125,-11.625,0.0,0.0,0.0
1664566781065,-1.2910156,-0.055664062,-0.10839844,-31.8125,-61.90625,-28.65625,0.0,0.0,0.0
1664566781102,-0.6230469,0.27441406,-0.10546875,37.8125,-98.34375,-37.75,0.0,0.0,0.0
1664566781142,-1.5527344,0.040039062,-0.06933594,11.65625,-90.65625,-64.65625,0.0,0.0,0.0
1664566781181,-1.6484375,0.5410156,-0.099609375,-42.4375,-118.65625,-29.375,0.0,0.0,0.0
1664566781222,-0.9794922,0.31445312,0.19042969,-2.8125,-114.53125,3.34375,0.0,0.0,0.0
1664566781282,-0.70703125,0.13867188,0.038085938,-130.03125,-257.875,11.28125,0.0,0.0,0.0
1664566781302,-0.44921875,-0.087890625,0.009765625,-41.03125,-78.9375,-16.75,0.0,0.0,0.0
1664566781342,-0.47460938,-0.0234375,-0.0078125,63.65625,-39.5625,-33.40625,0.0,0.0,0.0
1664566781382,-0.24511719,0.17871094,0.059570312,53.75,-5.15625,6.8125,0.0,0.0,0.0
1664566781422,-0.5107422,0.06347656,0.30664062,52.15625,44.28125,28.90625,0.0,0.0,0.0
1664566781462,-0.8925781,-0.060546875,0.76953125,16.90625,53.6875,21.28125,-98.6875,-6.125,-146.625
1664566781502,-1.5214844,0.01953125,1.0048828,-12.96875,39.96875,-0.6875,0.0,0.0,0.0
1664566781543,-1.1210938,-0.1171875,1.0761719,-68.5,8.53125,-45.5625,0.0,0.0,0.0
1664566781582,-1.2167969,-0.4248047,0.9970703,-0.125,-25.90625,-16.6875,0.0,0.0,0.0
1664566781622,-1.0878906,0.54003906,-0.06347656,17.75,69.875,5.34375,0.0,0.0,0.0
1664566781662,-1.1201172,0.43066406,0.026367188,95.75,58.625,30.3125,0.0,0.0,0.0
1664566781701,-0.8339844,-0.076171875,0.030273438,42.71875,-28.15625,72.1875,0.0,0.0,0.0
1664566781742,-1.2265625,-0.02734375,-0.4248047,-29.375,120.21875,-14.59375,0.0,0.0,0.0
1664566781783,-0.9003906,0.33398438,0.3623047,130.71875,27.09375,-4.15625,0.0,0.0,0.0
1664566781822,-0.7373047,0.25097656,-0.18066406,-10.9375,81.59375,-21.625,0.0,0.0,0.0
1664566781863,-0.68652344,-0.0029296875,0.19335938,38.0625,92.4375,-7.15625,0.0,0.0,0.0
1664566781902,-0.72265625,0.04296875,-0.0126953125,-13.4375,82.125,-3.375,0.0,0.0,0.0
1664566781942,-0.8798828,0.08300781,0.20507812,17.0625,95.03125,17.875,-73.5,-12.25,-152.4375
1664566781983,-0.83984375,0.1171875,0.0625,-3.90625,86.59375,31.65625,0.0,0.0,0.0
1664566782042,-1.1972656,0.13183594,0.20019531,-41.875,71.59375,32.15625,0.0,0.0,0.0
1664566782062,-1.4121094,-0.3876953,0.07519531,-59.34375,29.21875,17.0625,0.0,0.0,0.0
1664566782103,-1.5390625,-0.17480469,0.119140625,-51.59375,2.4375,-16.1875,0.0,0.0,0.0
1664566782142,-1.4677734,0.08203125,-0.09765625,-35.84375,-45.5,-21.125,0.0,0.0,0.0
1664566782182,-0.81347656,0.31152344,-0.08300781,16.46875,-97.1875,-24.78125,0.0,0.0,0.0
1664566782223,-1.3886719,0.1484375,-0.040039062,16.90625,-118.59375,-50.84375,0.0,0.0,0.0
1664566782262,-1.6064453,0.49121094,-0.068359375,-25.09375,-114.03125,-67.53125,0.0,0.0,0.0
1664566782302,-1.2050781,0.2861328,0.2265625,-15.15625,-136.71875,-20.78125,0.0,0.0,0.0
1664566782345,-0.82910156,-0.045898438,0.18359375,-43.78125,-139.40625,-15.15625,0.0,0.0,0.0
1664566782382,-0.52441406,-0.13867188,-0.041015625,-47.5,-112.8125,-24.25,0.0,0.0,0.0
1664566782422,-0.3935547,0.025390625,0.0126953125,16.46875,-49.5,-27.0,0.0,0.0,0.0
1664566782462,-0.31933594,0.1328125,-0.0087890625,47.65625,-9.0625,-6.71875,-75.4375,-14.9375,-147.8125
1664566782502,-0.43847656,0.057617188,0.24414062,40.21875,25.8125,9.375,0.0,0.0,0.0
1664566782542,-0.6533203,-0.0234375,0.6699219,15.3125,24.03125,13.59375,0.0,0.0,0.0
1664566782583,-1.5029297,-0.080078125,1.0595703,20.75,65.71875,27.9375,0.0,0.0,0.0
1664566782622,-1.1865234,-0.1328125,1.0410156,-50.4375,3.28125,-33.71875,0.0,0.0,0.0
1664566782662,-1.1621094,-0.38476562,1.0439453,-21.625,-35.59375,-24.0625,0.0,0.0,0.0
1664566782703,-1.2480469,0.484375,-0.13671875,10.84375,54.5,1.3125,0.0,0.0,0.0
1664566782742,-0.8808594,0.390625,0.21386719,129.875,21.21875,5.0625,0.0,0.0,0.0
1664566782803,-0.89160156,0.0107421875,-0.043945312,3.28125,-30.96875,82.125,0.0,0.0,0.0
1664566782822,-1.1914062,-0.0146484375,0.001953125,-55.8125,121.75,-22.125,0.0,0.0,0.0
1664566782862,-0.8964844,0.18164062,0.20898438,-39.5625,75.3125,5.46875,0.0,0.0,0.0
1664566782902,-0.7363281,0.17480469,0.08203125,34.84375,87.9375,13.40625,0.0,0.0,0.0
1664566782944,-0.54785156,0.109375,0.05859375,19.75,94.34375,-8.375,-79.375,-12.125,-153.375
1664566782983,-0.7871094,0.005859375,0.07324219,6.5625,82.5625,22.8125,0.0,0.0,0.0
1664566783022,-0.8105469,0.021484375,0.17773438,-15.21875,97.21875,16.65625,0.0,0.0,0.0
1664566783063,-0.80859375,0.041015625,0.052734375,19.875,99.59375,37.46875,0.0,0.0,0.0
1664566783102,-1.2460938,-0.06933594,0.20117188,-23.34375,76.71875,33.5625,0.0,0.0,0.0
1664566783142,-1.3984375,-0.19628906,0.15332031,-52.125,51.4375,1.3125,0.0,0.0,0.0
1664566783182,-1.4775391,-0.1640625,0.09765625,-35.46875,12.5625,-9.96875,0.0,0.0,0.0
1664566783222,-1.5078125,0.017578125,0.009765625,-34.125,-35.0,-11.78125,0.0,0.0,0.0
1664566783262,-0.86328125,0.17578125,-0.13867188,-6.0625,-108.0,-13.125,0.0,0.0,0.0
1664566783302,-1.3867188,0.12988281,-0.1171875,11.75,-114.28125,-42.25,0.0,0.0,0.0
1664566783342,-1.515625,0.40234375,-0.19042969,-71.0625,-79.46875,-74.46875,0.0,0.0,0.0
1664566783382,-1.2265625,0.3564453,0.20605469,-18.5625,-117.5,-18.75,0.0,0.0,0.0
1664566783423,-0.8330078,0.06542969,0.1328125,-55.875,-223.96875,-24.0,0.0,0.0,0.0
1664566783463,-0.43066406,-0.11230469,0.017578125,-68.375,-77.96875,-11.90625,-84.875,-12.125,-155.125
1664566783502,-0.5253906,-0.05859375,-0.080078125,15.375,-35.40625,-23.5,0.0,0.0,0.0
1664566783562,-0.30371094,0.0859375,0.06933594,69.25,-10.09375,-2.34375,0.0,0.0,0.0
1664566783582,-0.47851562,0.03515625,0.1796875,85.1875,33.0625,17.0625,0.0,0.0,0.0
1664566783622,-0.70996094,0.0087890625,0.6308594,61.25,26.34375,28.84375,0.0,0.0,0.0
1664566783662,-1.7695312,0.15332031,0.81933594,27.34375,25.75,27.625,0.0,0.0,0.0
1664566783702,-1.2460938,-0.19335938,1.1816406,-23.28125,-35.0,-40.1875,0.0,0.0,0.0
1664566783742,-1.171875,-0.2890625,0.921875,-31.21875,-27.0,-24.84375,0.0,0.0,0.0
1664566783782,-1.4238281,0.32128906,0.032226562,18.90625,74.03125,-4.46875,0.0,0.0,0.0
1664566783822,-0.7324219,0.4482422,-0.030273438,86.40625,19.9375,-2.21875,0.0,0.0,0.0
1664566783862,-1.0576172,-0.12011719,0.09375,107.15625,-55.4375,60.03125,0.0,0.0,0.0
1664566783902,-1.2167969,-0.068359375,-0.4013672,-47.25,147.3125,-17.65625,0.0,0.0,0.0
1664566783942,-0.85253906,0.24707031,0.31933594,170.5625,47.21875,-13.25,-108.0,13.6875,-152.3125
1664566783982,-0.7607422,0.20507812,-0.07128906,73.84375,111.6875,-36.6875,0.0,0.0,0.0
1664566784022,-0.62402344,0.10449219,0.16308594,18.90625,107.84375,-25.40625,0.0,0.0,0.0
1664566784062,-0.7998047,0.057617188,-0.026367188,6.6875,92.21875,2.65625,0.0,0.0,0.0
1664566784142,-0.81933594,-0.0029296875,0.10449219,-16.125,90.8125,22.8125,0.0,0.0,0.0
1664566784144,-0.9394531,0.0390625,0.23144531,-37.78125,82.75,38.9375,0.0,0.0,0.0
1664566784182,-1.1650391,0.09863281,0.08691406,-44.03125,66.5625,34.40625,0.0,0.0,0.0
1664566784221,-1.4169922,-0.3310547,0.041015625,-44.9375,25.1875,18.65625,0.0,0.0,0.0
1664566784263,-1.453125,-0.13183594,0.15722656,-52.4375,-1.65625,-9.15625,0.0,0.0,0.0
1664566784324,-1.4599609,0.10449219,0.068359375,-36.15625,-42.5,-16.6875,0.0,0.0,0.0
1664566784342,-0.80371094,0.20703125,-0.27246094,11.65625,-101.8125,-3.3125,0.0,0.0,0.0
1664566784382,-1.2177734,0.14355469,-0.08105469,1.6875,-130.75,-58.375,0.0,0.0,0.0
1664566784424,-1.4599609,0.4873047,-0.045898438,-32.5,-147.0,-76.75,0.0,0.0,0.0
1664566784462,-1.3037109,0.42773438,0.2626953,-55.875,-129.96875,-23.34375,-65.5625,-14.8125,-149.3125
1664566784502,-0.8964844,-0.09375,0.22558594,-80.65625,-168.40625,-1.40625,0.0,0.0,0.0
1664566784542,-0.6279297,-0.14648438,0.064453125,-65.09375,-97.90625,-13.375,0.0,0.0,0.0
1664566784582,-0.5,0.041015625,-0.03515625,16.71875,-21.25,-43.15625,0.0,0.0,0.0
1664566784622,-0.20898438,0.22851562,-0.01171875,65.34375,-18.75,-13.3125,0.0,0.0,0.0
1664566784662,-0.40234375,0.11425781,0.14648438,52.28125,28.5625,13.03125,0.0,0.0,0.0
1664566784701,-0.5957031,-0.020507812,0.5839844,15.96875,38.625,23.96875,0.0,0.0,0.0
1664566784743,-1.3623047,0.0107421875,0.8300781,0.71875,87.4375,37.8125,0.0,0.0,0.0
1664566784782,-1.3505859,-0.11816406,1.2421875,-14.40625,-15.09375,-34.125,0.0,0.0,0.0
1664566784822,-1.2128906,-0.44335938,1.1835938,-42.0,-19.4375,-33.71875,0.0,0.0,0.0
1664566784862,-1.0976562,0.44921875,0.015625,31.125,23.71875,-14.65625,0.0,0.0,0.0
1664566784903,-1.1855469,0.3154297,0.1015625,118.9375,92.8125,11.15625,0.0,0.0,0.0
1664566784942,-0.46875,0.375,-0.01953125,60.46875,-43.21875,55.84375,-91.1875,2.4375,-152.875
1664566784982,-1.3076172,-0.125,-0.4111328,-48.90625,163.625,-1.0,0.0,0.0,0.0
1664566785022,-0.8388672,0.12988281,0.2841797,64.6875,66.8125,-11.90625,0.0,0.0,0.0
1664566785081,-0.93359375,0.24414062,0.030273438,49.59375,97.6875,-13.625,0.0,0.0,0.0
1664566785104,-0.6689453,0.16894531,0.028320312,31.96875,93.0,-19.0,0.0,0.0,0.0
1664566785142,-0.6201172,-0.001953125,-0.07421875,-10.15625,103.375,-3.90625,0.0,0.0,0.0
1664566785182,-0.7988281,0.068359375,0.07128906,0.34375,103.625,11.9375,0.0,0.0,0.0
1664566785223,-0.8017578,0.11230469,0.125,-35.21875,93.25,25.9375,0.0,0.0,0.0
1664566785262,-1.2626953,0.043945312,0.026367188,-67.28125,87.375,21.40625,0.0,0.0,0.0
1664566785303,-1.375,-0.16308594,0.00390625,-60.25,45.5625,9.03125,0.0,0.0,0.0
1664566785342,-1.4804688,-0.0107421875,0.23535156,-54.09375,17.8125,-10.34375,0.0,0.0,0.0
1664566785382,-1.6230469,0.01953125,0.016601562,-29.25,-32.96875,-13.5625,0.0,0.0,0.0
1664566785422,-0.88183594,0.25390625,-0.16503906,27.875,-115.0625,-24.25,0.0,0.0,0.0
1664566785462,-1.2509766,-0.00390625,-0.20800781,56.25,-147.65625,-43.40625,-68.6875,-11.5,-161.75
1664566785502,-1.5224609,0.28027344,-0.2626953,-3.75,-94.0,-33.78125,0.0,0.0,0.0
1664566785542,-1.5771484,0.4609375,0.099609375,7.1875,-137.53125,5.65625,0.0,0.0,0.0
1664566785582,-1.0322266,0.15429688,0.24609375,-45.1875,-146.3125,-4.28125,0.0,0.0,0.0
1664566785622,-0.68847656,-0.11425781,-0.046875,-65.1875,-131.125,-28.6875,0.0,0.0,0.0
1664566785662,-0.20410156,-0.017578125,-0.0234375,-27.96875,-80.46875,-46.21875,0.0,0.0,0.0
1664566785702,-0.24609375,0.12988281,0.053710938,-3.8125,-35.21875,0.46875,0.0,0.0,0.0
1664566785743,-0.2529297,0.03515625,0.21777344,11.8125,9.8125,12.5,0.0,0.0,0.0
1664566785784,-0.48535156,-0.16308594,0.578125,-0.6875,48.5625,12.5,0.0,0.0,0.0
1664566785842,-1.3759766,-0.10058594,0.6230469,-10.21875,67.1875,-2.40625,0.0,0.0,0.0
1664566785861,-1.4404297,-0.0087890625,1.3955078,34.65625,-0.3125,-27.96875,0.0,0.0,0.0
1664566785903,-1.0546875,-0.24609375,1.1396484,0.15625,-49.6875,-4.09375,0.0,0.0,0.0
1664566785942,-1.2705078,0.15429688,0.14550781,-1.3125,-25.09375,-10.15625,-106.5,5.4375,-165.8125
1664566785982,-1.2246094,0.15625,0.034179688,67.71875,100.6875,-3.6875,0.0,0.0,0.0
1664566786022,-0.8388672,0.11035156,0.001953125,137.375,-45.125,48.25,0.0,0.0,0.0
1664566786062,-1.2890625,-0.22167969,-0.2705078,-32.0,118.6875,-10.6875,0.0,0.0,0.0
1664566786102,-0.9404297,0.037109375,0.2685547,39.96875,67.125,-17.34375,0.0,0.0,0.0
1664566786142,-0.67871094,0.15136719,0.0107421875,62.375,109.0,6.21875,0.0,0.0,0.0
1664566786182,-0.91503906,0.07519531,0.05859375,21.09375,123.46875,25.1875,0.0,0.0,0.0
1664566786222,-0.7050781,0.022460938,-0.016601562,1.09375,115.40625,6.875,0.0,0.0,0.0
1664566786262,-0.85253906,-0.0078125,0.119140625,-20.46875,121.9375,12.9375,0.0,0.0,0.0
1664566786302,-0.8173828,0.045898438,0.13378906,-31.21875,108.75,25.5,0.0,0.0,0.0
1664566786342,-1.09375,0.08105469,0.037109375,-55.0,92.28125,38.0,0.0,0.0,0.0
1664566786382,-1.3320312,-0.14746094,0.041015625,-49.8125,59.4375,22.6875,0.0,0.0,0.0
1664566786425,-1.4921875,-0.17578125,0.15332031,-42.3125,19.03125,-5.15625,0.0,0.0,0.0
1664566786462,-1.6298828,-0.091796875,0.037109375,-24.75,-27.3125,-19.65625,-67.375,-6.125,-166.6875
1664566786502,-1.0283203,0.033203125,-0.3330078,18.21875,-115.90625,-10.9375,0.0,0.0,0.0
1664566786543,-0.89746094,0.14648438,-0.22167969,107.90625,-186.59375,-30.84375,0.0,0.0,0.0
1664566786602,-1.5253906,0.3798828,-0.23046875,33.5,-158.71875,-51.34375,0.0,0.0,0.0
1664566786621,-1.4228516,0.29492188,0.12988281,67.4375,-136.0625,-36.21875,0.0,0.0,0.0
1664566786663,-1.0566406,0.08691406,0.3515625,39.0625,-148.09375,-22.0625,0.0,0.0,0.0
1664566786704,-0.8515625,-0.08105469,0.14746094,-14.78125,-116.96875,-18.9375,0.0,0.0,0.0
1664566786742,-0.3935547,-0.115234375,-0.03125,-17.84375,-60.8125,-37.1875,0.0,0.0,0.0
1664566786782,-0.15527344,0.10839844,-0.068359375,14.3125,-41.875,-17.71875,0.0,0.0,0.0
1664566786822,-0.17578125,0.14355469,0.1328125,32.15625,20.5625,1.875,0.0,0.0,0.0
1664566786862,-0.44726562,0.026367188,0.5654297,-10.8125,72.25,17.1875,0.0,0.0,0.0
1664566786902,-1.0546875,-0.041992188,0.58984375,-41.9375,57.59375,27.34375,0.0,0.0,0.0
1664566786942,-1.7265625,0.0546875,0.9941406,19.21875,21.28125,25.3125,-76.375,-12.5625,-144.1875
1664566786982,-1.0898438,-0.35351562,1.3671875,-37.4375,11.46875,-40.25,0.0,0.0,0.0
1664566787022,-1.6044922,-0.22851562,0.5839844,-99.0,-17.15625,-43.65625,0.0,0.0,0.0
1664566787062,-0.80078125,0.4560547,-0.9609375,6.46875,147.3125,8.15625,0.0,0.0,0.0
1664566787103,-0.37109375,0.54785156,0.25878906,128.65625,-106.46875,73.84375,0.0,0.0,0.0
1664566787142,-1.6230469,-0.11425781,-0.58496094,-82.46875,159.28125,-0.4375,0.0,0.0,0.0
1664566787362,-0.7597656,0.12792969,0.46679688,128.21875,32.34375,-25.84375,0.0,0.0,0.0
1664566787364,-0.9013672,0.21972656,-0.2890625,39.59375,71.9375,20.0,0.0,0.0,0.0
1664566787366,-0.5078125,0.09375,0.068359375,38.0625,122.53125,-0.3125,0.0,0.0,0.0
1664566787367,-0.76464844,0.044921875,0.0087890625,3.40625,105.03125,14.375,0.0,0.0,0.0
1664566787369,-0.81640625,-0.01171875,0.15136719,-10.09375,109.3125,21.90625,0.0,0.0,0.0
1664566787370,-0.8222656,-0.005859375,0.15527344,-38.78125,106.25,21.34375,0.0,0.0,0.0
1664566787442,-1.1025391,0.28125,0.029296875,-37.6875,83.96875,36.3125,0.0,0.0,0.0
1664566787462,-1.3476562,-0.359375,0.09277344,-70.5625,33.4375,27.625,-75.3125,-8.6875,-162.8125
1664566787543,-1.4804688,-0.11035156,0.17480469,-43.53125,5.1875,-7.65625,0.0,0.0,0.0
1664566787546,-1.6054688,0.08300781,0.080078125,-46.03125,-30.90625,-16.4375,0.0,0.0,0.0
1664566787582,-0.9667969,0.06640625,-0.2998047,-3.8125,-95.71875,-27.59375,0.0,0.0,0.0
1664566787622,-1.0722656,0.07910156,-0.19238281,19.6875,-118.1875,-57.9375,0.0,0.0,0.0
1664566787702,-1.8652344,0.3935547,-0.115234375,5.1875,-125.8125,-42.875,0.0,0.0,0.0
1664566787704,-1.2841797,0.5576172,0.009765625,-71.96875,-151.8125,15.3125,0.0,0.0,0.0
1664566787782,-0.91796875,0.07421875,0.38378906,-47.125,-193.0625,8.15625,0.0,0.0,0.0
1664566787787,-0.5625,-0.15722656,0.03125,-43.59375,-118.84375,-8.5625,0.0,0.0,0.0
1664566787822,-0.36816406,-0.030273438,0.049804688,-42.5,-82.46875,-5.21875,0.0,0.0,0.0
1664566787863,-0.24902344,0.10058594,-0.0068359375,-7.28125,-40.3125,-1.1875,0.0,0.0,0.0
1664566787902,-0.26464844,0.11035156,-0.020507812,39.90625,32.9375,15.0625,0.0,0.0,0.0
1664566787942,-0.4951172,-0.080078125,0.6542969,43.625,85.375,12.25,-87.125,-5.0625,-149.3125
1664566787983,-1.3398438,-0.27539062,0.97265625,-28.875,69.5,-3.375,0.0,0.0,0.0
1664566788022,-1.3964844,0.18457031,1.3320312,35.25,-62.9375,-36.625,0.0,0.0,0.0
1664566788061,-1.0439453,-0.40429688,1.0498047,-29.1875,-45.25,-20.28125,0.0,0.0,0.0
1664566788122,-1.3125,0.5449219,-0.030273438,6.34375,67.1875,5.78125,0.0,0.0,0.0
1664566788142,-1.046875,0.265625,0.020507812,79.6875,37.59375,24.875,0.0,0.0,0.0
1664566788183,-0.82714844,0.08300781,0.12597656,45.03125,-38.71875,71.09375,0.0,0.0,0.0
1664566788225,-1.4472656,-0.09765625,-0.17480469,-62.03125,153.5625,17.5,0.0,0.0,0.0
1664566788262,-0.7890625,0.23535156,0.24316406,96.40625,42.65625,-8.1875,0.0,0.0,0.0
1664566788302,-0.5996094,0.20410156,0.043945312,59.6875,84.75,-18.09375,0.0,0.0,0.0
1664566788341,-0.74316406,0.08300781,0.13964844,10.59375,95.125,-4.46875,0.0,0.0,0.0
1664566788383,-0.6855469,0.057617188,-0.03125,1.5,110.875,0.28125,0.0,0.0,0.0
1664566788422,-0.796875,-0.0029296875,0.2607422,-9.40625,98.625,15.65625,0.0,0.0,0.0
1664566788462,-0.81152344,0.12695312,0.076171875,-30.15625,96.40625,23.46875,-70.8125,-13.1875,-155.4375
1664566788502,-1.2744141,0.033203125,0.15039062,-62.15625,85.8125,35.75,0.0,0.0,0.0
1664566788541,-1.40625,-0.25585938,0.06347656,-56.90625,24.34375,11.59375,0.0,0.0,0.0
1664566788585,-1.4667969,-0.095703125,0.24414062,-37.96875,-3.125,-12.09375,0.0,0.0,0.0
1664566788622,-1.5214844,0.0390625,-0.057617188,-8.3125,-37.0625,-22.34375,0.0,0.0,0.0
1664566788662,-0.63671875,0.2998047,-0.10644531,34.53125,-93.03125,-41.34375,0.0,0.0,0.0
1664566788702,-1.3242188,0.083984375,-0.20898438,-1.65625,-87.0,-58.65625,0.0,0.0,0.0
1664566788741,-1.6357422,0.42089844,-0.095703125,-37.84375,-115.96875,-38.40625,0.0,0.0,0.0
1664566788783,-1.3183594,0.47851562,0.15820312,-62.28125,-131.0625,2.84375,0.0,0.0,0.0
1664566788823,-0.88183594,-0.00390625,0.3076172,-106.28125,-183.96875,10.59375,0.0,0.0,0.0
1664566788882,-0.49804688,-0.17871094,-0.14160156,-75.53125,-128.8125,1.375,0.0,0.0,0.0
1664566788903,-0.6269531,-0.17675781,0.052734375,60.46875,-37.25,-44.625,0.0,0.0,0.0
1664566788942,-0.16894531,0.31445312,-0.03515625,96.65625,-30.46875,-24.5625,-64.8125,-11.9375,-138.375
1664566788981,-0.31152344,0.046875,0.18652344,60.71875,36.84375,6.6875,0.0,0.0,0.0
1664566789021,-0.6347656,-0.057617188,0.5839844,17.4375,34.21875,20.625,0.0,0.0,0.0
1664566789062,-1.5839844,0.20019531,1.0136719,-6.90625,121.25,24.65625,0.0,0.0,0.0
1664566789102,-1.1679688,-0.041992188,1.1044922,-23.9375,-89.5625,-41.15625,0.0,0.0,0.0
1664566789141,-1.2646484,-0.453125,1.1025391,-9.34375,-52.9375,-26.0625,0.0,0.0,0.0
1664566789182,-1.2080078,0.57714844,-0.14648438,14.75,82.4375,-22.34375,0.0,0.0,0.0
1664566789222,-0.71875,0.3408203,0.44433594,72.3125,15.71875,11.9375,0.0,0.0,0.0
1664566789262,-1.1669922,-0.046875,-0.09277344,52.78125,-41.03125,96.71875,0.0,0.0,0.0
1664566789302,-1.1230469,-0.059570312,-0.19726562,-49.34375,160.5,-8.3125,0.0,0.0,0.0
1664566789342,-0.9873047,0.12597656,0.33691406,24.53125,17.625,-3.625,0.0,0.0,0.0
1664566789382,-0.62402344,0.31054688,-0.034179688,50.28125,147.625,-34.1875,0.0,0.0,0.0
1664566789422,-0.6982422,0.10644531,0.18554688,50.9375,121.5625,5.53125,0.0,0.0,0.0
1664566789462,-0.7402344,0.12011719,0.076171875,-18.625,89.21875,11.40625,-63.125,-14.9375,-138.5
1664566789501,-0.7841797,0.03125,0.27539062,-41.59375,85.875,22.75,0.0,0.0,0.0
1664566789542,-0.8828125,-0.017578125,0.0126953125,-17.90625,92.15625,39.28125,0.0,0.0,0.0
1664566789582,-1.1884766,0.10546875,0.12988281,-3.90625,76.78125,35.625,0.0,0.0,0.0
1664566789642,-1.4179688,-0.20019531,0.14257812,-40.71875,46.1875,11.15625,0.0,0.0,0.0
1664566789662,-1.5478516,-0.14746094,0.12695312,-24.1875,19.8125,3.34375,0.0,0.0,0.0
1664566789702,-1.5771484,0.052734375,-0.049804688,-24.90625,-28.21875,-8.6875,0.0,0.0,0.0
1664566789742,-0.4091797,0.11425781,-0.22753906,-3.8125,-91.09375,-12.15625,0.0,0.0,0.0
1664566789783,-1.2333984,0.3388672,-0.24023438,25.25,-110.25,-55.75,0.0,0.0,0.0
1664566789822,-1.5791016,0.71484375,-0.025390625,-35.21875,-127.03125,-61.46875,0.0,0.0,0.0
1664566789862,-1.1757812,0.3515625,0.037109375,-75.625,-146.3125,-9.71875,0.0,0.0,0.0
1664566789902,-0.9355469,-0.080078125,0.328125,-56.34375,-147.28125,2.65625,0.0,0.0,0.0
1664566789941,-0.5839844,-0.21484375,-0.072265625,-59.46875,-61.46875,-29.9375,-60.3125,-18.5625,-128.4375
1664566789982,-0.42089844,-0.03125,0.032226562,46.875,-86.625,-38.34375,0.0,0.0,0.0
1664566790022,-0.2265625,0.16699219,0.037109375,74.875,-36.09375,-22.0,0.0,0.0,0.0
1664566790041,-0.34960938,0.046875,0.14160156,49.84375,23.78125,11.59375,0.0,0.0,0.0
1664566790102,-0.6152344,-0.047851562,0.62109375,46.90625,77.1875,23.53125,0.0,0.0,0.0
1664566790122,-1.6279297,0.14355469,0.61816406,10.59375,103.5,31.71875,0.0,0.0,0.0
1664566790162,-1.2558594,0.087890625,1.2333984,5.84375,-93.46875,-59.65625,0.0,0.0,0.0
1664566790203,-0.98339844,-0.5908203,0.95410156,-65.09375,-34.1875,-49.5625,0.0,0.0,0.0
1664566790242,-1.1347656,0.6972656,-0.0703125,19.40625,67.25,-1.0,0.0,0.0,0.0
1664566790284,-1.2382812,0.22460938,0.34375,107.96875,37.75,33.75,0.0,0.0,0.0
1664566790324,-0.7158203,0.0234375,-0.08300781,46.625,-56.65625,114.5,0.0,0.0,0.0
1664566790361,-1.2207031,-0.051757812,-0.40039062,-24.0625,152.875,-26.4375,0.0,0.0,0.0
1664566790401,-0.93652344,0.16308594,0.46875,58.21875,36.78125,-35.46875,0.0,0.0,0.0
1664566790463,-0.5517578,0.37597656,0.13085938,27.21875,95.75,-39.6875,-61.8125,-17.0625,-131.875
1664566790481,-0.75,0.1328125,0.23730469,-6.375,106.5,-10.5,0.0,0.0,0.0
1664566790522,-0.7529297,-0.083984375,-0.040039062,-22.34375,87.03125,18.34375,0.0,0.0,0.0
1664566790562,-0.74609375,0.060546875,0.15722656,-6.90625,93.5625,15.71875,0.0,0.0,0.0
1664566790604,-0.7705078,0.01953125,0.040039062,9.25,77.5625,37.65625,0.0,0.0,0.0
1664566790642,-1.1972656,0.0625,0.203125,-13.5,86.65625,35.8125,0.0,0.0,0.0
1664566790683,-1.4238281,-0.30859375,0.15722656,-58.5,30.0,16.9375,0.0,0.0,0.0
1664566790722,-1.5058594,-0.14941406,0.11230469,-40.46875,8.28125,-15.46875,0.0,0.0,0.0
1664566790762,-1.5,0.060546875,-0.053710938,-29.625,-33.03125,-25.71875,0.0,0.0,0.0
1664566790803,-0.7207031,0.34570312,-0.16015625,-0.1875,-93.53125,-36.15625,0.0,0.0,0.0
1664566790842,-1.3085938,0.13085938,-0.13671875,-16.1875,-100.65625,-50.5625,0.0,0.0,0.0
1664566790883,-1.4306641,0.5263672,-0.083984375,-59.40625,-119.65625,-45.125,0.0,0.0,0.0
1664566790941,-1.2402344,0.421875,0.20019531,-41.65625,-160.0625,3.21875,-60.3125,-19.3125,-135.625
1664566790962,-0.5283203,-0.041015625,0.24609375,-102.375,-172.3125,-5.4375,0.0,0.0,0.0
1664566791122,-0.6845703,-0.16601562,0.09667969,-55.6875,-99.0,0.46875,0.0,0.0,0.0
1664566791162,-0.5371094,-0.09863281,0.0234375,25.0625,-39.9375,-62.75,0.0,0.0,0.0
1664566791164,-0.35546875,0.14257812,0.043945312,59.5,-22.28125,-20.53125,0.0,0.0,0.0
1664566791166,-0.35742188,0.055664062,0.16894531,50.875,28.375,4.6875,0.0,0.0,0.0
1664566791171,-0.5253906,-0.11230469,0.6201172,31.25,91.15625,22.9375,0.0,0.0,0.0
1664566791203,-1.4443359,-0.046875,0.5546875,11.59375,113.3125,31.125,0.0,0.0,0.0
1664566791242,-1.0253906,0.2763672,1.2783203,9.5,-72.40625,-30.09375,0.0,0.0,0.0
1664566791282,-1.2666016,-0.5214844,0.859375,-28.03125,-43.90625,-18.9375,0.0,0.0,0.0
1664566791322,-1.1835938,0.40234375,-0.083984375,-13.03125,43.4375,-7.21875,0.0,0.0,0.0
1664566791362,-1.0361328,0.24511719,0.20996094,66.6875,34.34375,20.125,0.0,0.0,0.0
1664566791403,-1.0292969,0.046875,-0.03125,66.21875,-61.0625,81.09375,0.0,0.0,0.0
1664566791462,-1.0791016,-0.01171875,-0.37109375,-21.625,132.6875,-1.90625,-62.6875,-16.625,-126.1875
1664566791482,-0.94628906,0.1953125,0.44726562,67.0,78.84375,-16.625,0.0,0.0,0.0
1664566791522,-0.57421875,0.27539062,-0.11816406,9.8125,106.1875,-19.65625,0.0,0.0,0.0
1664566791562,-0.7109375,0.16113281,0.23535156,5.59375,99.96875,20.375,0.0,0.0,0.0
1664566791604,-0.8105469,-0.06640625,-9.765625E-4,-20.9375,79.15625,13.65625,0.0,0.0,0.0
1664566791642,-0.8613281,0.017578125,0.19238281,13.96875,85.625,18.1875,0.0,0.0,0.0
1664566791682,-0.8408203,0.07910156,0.1796875,-8.375,73.28125,25.8125,0.0,0.0,0.0
1664566791722,-1.0390625,0.001953125,-0.0048828125,-20.78125,60.09375,30.75,0.0,0.0,0.0
1664566791762,-1.3457031,-0.22753906,0.10839844,-38.46875,44.28125,17.3125,0.0,0.0,0.0
1664566791802,-1.3925781,-0.05078125,0.16699219,-27.125,8.78125,-9.59375,0.0,0.0,0.0
1664566791842,-1.640625,-0.01953125,0.057617188,-23.40625,-32.84375,-17.46875,0.0,0.0,0.0
1664566791884,-0.95703125,0.20996094,-0.20214844,-8.9375,-97.0,-33.46875,0.0,0.0,0.0
1664566791942,-1.1357422,0.11328125,-0.23046875,-12.15625,-111.65625,-46.28125,-64.0625,-14.0625,-142.875
1664566791961,-1.5449219,0.39941406,-0.043945312,-58.5625,-115.96875,-55.625,0.0,0.0,0.0
1664566792002,-1.1787109,0.5175781,0.14648438,-57.875,-151.8125,-20.15625,0.0,0.0,0.0
1664566792042,-0.8701172,-0.064453125,0.29003906,-66.125,-140.53125,4.75,0.0,0.0,0.0
1664566792082,-0.6513672,-0.23828125,-0.17382812,-33.78125,-97.125,-49.9375,0.0,0.0,0.0
1664566792122,-0.60253906,-0.026367188,0.06933594,60.90625,-46.34375,-60.875,0.0,0.0,0.0
1664566792162,-0.28515625,0.19335938,0.0,81.15625,-33.03125,-34.0625,0.0,0.0,0.0
1664566792204,-0.31640625,0.08984375,0.13085938,69.375,20.0625,6.8125,0.0,0.0,0.0
1664566792244,-0.59375,-0.0546875,0.50878906,43.25,53.5625,35.8125,0.0,0.0,0.0
1664566792282,-1.2421875,0.18359375,0.79003906,42.03125,122.53125,53.5625,0.0,0.0,0.0
1664566792322,-1.4091797,-0.08105469,1.0800781,45.625,-90.59375,-34.1875,0.0,0.0,0.0
1664566792362,-1.1445312,-0.6699219,1.0048828,-36.28125,-41.03125,-53.53125,0.0,0.0,0.0
1664566792401,-1.4628906,0.6464844,-0.22265625,-20.15625,72.96875,-24.6875,0.0,0.0,0.0
1664566792461,-1.0302734,0.5371094,0.39648438,125.59375,2.90625,28.78125,-61.5,-18.6875,-129.375
1664566792482,-0.9316406,0.13476562,-0.15917969,7.96875,-63.6875,112.96875,0.0,0.0,0.0
1664566792522,-1.1767578,-0.12109375,-0.21484375,-39.125,144.46875,-1.71875,0.0,0.0,0.0
1664566792562,-0.94140625,0.17480469,0.4423828,36.3125,75.96875,-20.15625,0.0,0.0,0.0
1664566792603,-0.47265625,0.38378906,-0.091796875,15.71875,149.15625,-36.21875,0.0,0.0,0.0
1664566792642,-0.8544922,0.10644531,0.28710938,9.6875,99.03125,17.1875,0.0,0.0,0.0
1664566792683,-0.6425781,0.029296875,0.046875,-10.40625,86.09375,7.25,0.0,0.0,0.0
1664566792722,-0.8095703,0.049804688,0.22265625,19.15625,93.125,15.5,0.0,0.0,0.0
1664566792763,-0.83496094,0.125,0.052734375,-6.4375,83.125,26.21875,0.0,0.0,0.0
1664566792802,-1.2294922,0.0068359375,0.19824219,-15.15625,67.96875,42.09375,0.0,0.0,0.0
1664566792845,-1.4111328,-0.32226562,0.028320312,-37.0625,33.0625,13.71875,0.0,0.0,0.0
1664566792882,-1.5107422,-0.13378906,0.109375,-18.03125,7.3125,-11.6875,0.0,0.0,0.0
1664566792922,-1.5810547,0.020507812,-0.16796875,-4.96875,-41.9375,-25.03125,0.0,0.0,0.0
1664566792985,-0.78222656,0.421875,-0.22363281,16.15625,-96.9375,-36.34375,-65.125,-14.8125,-145.5625
1664566793002,-1.2529297,0.2763672,-0.13867188,-19.0,-117.75,-48.40625,0.0,0.0,0.0
1664566793042,-1.4140625,0.52246094,-0.01953125,-67.9375,-136.5625,-47.625,0.0,0.0,0.0
1664566793083,-1.140625,0.26660156,0.23925781,-91.09375,-153.21875,-7.34375,0.0,0.0,0.0
1664566793122,-0.7636719,-0.08203125,0.10253906,-81.625,-145.59375,-14.125,0.0,0.0,0.0
1664566793162,-0.53515625,-0.2607422,-0.10839844,-17.65625,-86.0625,-35.59375,0.0,0.0,0.0
1664566793203,-0.42382812,0.06347656,0.049804688,27.03125,-24.0,-43.15625,0.0,0.0,0.0
1664566793242,-0.35742188,0.20800781,0.036132812,50.40625,-9.90625,-26.5625,0.0,0.0,0.0
1664566793282,-0.3466797,0.034179688,0.26464844,49.0625,21.15625,20.375,0.0,0.0,0.0
1664566793322,-0.65722656,-0.18945312,0.68847656,32.15625,76.46875,42.15625,0.0,0.0,0.0
1664566793362,-1.8828125,0.040039062,0.84765625,63.34375,101.1875,25.3125,0.0,0.0,0.0
1664566793402,-1.0449219,-0.029296875,1.1484375,-52.9375,-48.0625,-72.40625,0.0,0.0,0.0
1664566793462,-1.21875,-0.18945312,0.69433594,-75.21875,-29.9375,-29.375,-58.8125,-19.9375,-124.6875
1664566793484,-1.4326172,0.68066406,-0.3935547,93.1875,96.40625,55.53125,0.0,0.0,0.0
1664566793523,-0.44628906,0.37402344,0.14941406,17.8125,-61.34375,12.375,0.0,0.0,0.0
1664566793562,-1.3056641,-0.18261719,-0.4248047,-30.96875,10.53125,93.0,0.0,0.0,0.0
1664566793602,-1.0478516,0.0126953125,0.22949219,63.40625,108.0625,-35.78125,0.0,0.0,0.0
1664566793642,-0.9277344,0.17773438,0.0859375,-4.65625,58.15625,-24.375,0.0,0.0,0.0
1664566793683,-0.5029297,0.38867188,0.15234375,29.90625,155.0,-24.3125,0.0,0.0,0.0
1664566793722,-0.7363281,0.03125,0.16894531,-48.0,105.5625,11.53125,0.0,0.0,0.0
1664566793764,-0.63671875,-0.026367188,0.0390625,-15.40625,106.6875,11.59375,0.0,0.0,0.0
1664566793803,-0.8544922,0.046875,0.19042969,-9.15625,92.6875,21.09375,0.0,0.0,0.0
1664566793842,-0.89453125,-0.0048828125,0.12207031,-2.46875,91.84375,39.0625,0.0,0.0,0.0
1664566793882,-1.2929688,0.07910156,0.0859375,-22.78125,70.34375,27.375,0.0,0.0,0.0
1664566793922,-1.3789062,-0.31054688,0.080078125,-44.4375,23.3125,7.625,0.0,0.0,0.0
1664566793982,-1.4609375,-0.0390625,0.17089844,-40.84375,4.25,-9.125,-64.5,-13.75,-150.0625
1664566794002,-1.4042969,0.021484375,-0.11230469,-12.21875,-36.625,-22.0625,0.0,0.0,0.0
1664566794045,-0.7685547,0.3515625,-0.0859375,10.65625,-111.84375,-35.15625,0.0,0.0,0.0
1664566794083,-1.4482422,0.09863281,-0.09863281,-30.71875,-103.34375,-60.1875,0.0,0.0,0.0
1664566794122,-1.4550781,0.6748047,-0.03125,-57.375,-140.8125,-55.75,0.0,0.0,0.0
1664566794162,-1.1074219,0.25390625,0.21289062,-86.8125,-149.6875,-4.65625,0.0,0.0,0.0
1664566794202,-0.6660156,-0.038085938,0.17089844,-91.9375,-139.40625,-1.0625,0.0,0.0,0.0
1664566794242,-0.64941406,-0.22460938,-0.02734375,-11.4375,-109.625,-15.6875,0.0,0.0,0.0
1664566794282,-0.46972656,0.07714844,0.06542969,33.625,-42.25,-52.3125,0.0,0.0,0.0
1664566794322,-0.42578125,0.1015625,0.030273438,62.78125,16.34375,-25.34375,0.0,0.0,0.0
1664566794362,-0.36328125,-0.018554688,0.19042969,60.59375,33.0625,7.625,0.0,0.0,0.0
1664566794403,-0.61621094,-0.13183594,0.5546875,18.40625,15.4375,30.0625,0.0,0.0,0.0
1664566794462,-1.6904297,-0.0625,1.0039062,45.09375,108.875,43.875,-62.375,-18.5625,-126.8125
1664566794482,-1.2724609,-0.10449219,1.1210938,-80.09375,10.53125,-82.53125,0.0,0.0,0.0
1664566794522,-1.4199219,-0.35351562,0.6298828,-47.625,-15.875,-40.0,0.0,0.0,0.0
1664566794562,-1.2900391,0.609375,-0.3076172,67.84375,121.09375,7.0,0.0,0.0,0.0
1664566794602,-0.6972656,0.50390625,0.26757812,89.28125,-85.59375,51.3125,0.0,0.0,0.0
1664566794642,-1.1835938,-0.19921875,-0.5214844,25.9375,43.125,86.03125,0.0,0.0,0.0
1664566794684,-1.2421875,-0.07421875,-0.024414062,37.8125,114.96875,-11.1875,0.0,0.0,0.0
1664566794722,-0.97265625,0.34375,0.15234375,31.59375,69.875,-19.0,0.0,0.0,0.0
1664566794762,-0.484375,0.41796875,0.018554688,50.65625,115.21875,-23.28125,0.0,0.0,0.0
1664566794801,-0.7480469,0.045898438,0.064453125,-15.15625,88.1875,-6.53125,0.0,0.0,0.0
1664566794843,-0.7832031,-0.076171875,0.032226562,-3.90625,77.5,13.65625,0.0,0.0,0.0
1664566794882,-0.82910156,0.1640625,0.22558594,30.875,59.3125,19.09375,0.0,0.0,0.0
1664566794923,-0.88378906,0.034179688,0.17871094,-14.59375,82.9375,30.6875,0.0,0.0,0.0
1664566794963,-1.1269531,0.001953125,0.0234375,-28.6875,66.5,18.40625,-65.375,-14.9375,-142.6875
1664566795005,-1.40625,-0.24609375,0.12597656,-38.46875,26.34375,3.71875,0.0,0.0,0.0
1664566795044,-1.5117188,-0.072265625,0.1484375,-37.0625,-3.375,-8.125,0.0,0.0,0.0
1664566795083,-1.4492188,-0.1484375,-0.087890625,-16.375,-26.03125,-29.875,0.0,0.0,0.0
1664566795122,-0.88183594,0.3720703,-0.064453125,48.3125,-81.25,-28.46875,0.0,0.0,0.0
1664566795162,-1.15625,0.0126953125,-0.203125,56.1875,-110.125,-52.3125,0.0,0.0,0.0
1664566795202,-1.8857422,0.140625,-0.0703125,-48.1875,-132.8125,-39.375,0.0,0.0,0.0
1664566795242,-1.2060547,0.8955078,0.15429688,-7.65625,-135.28125,-11.6875,0.0,0.0,0.0
1664566795282,-0.66308594,-0.13378906,0.30566406,-125.4375,-118.4375,13.03125,0.0,0.0,0.0
1664566795322,-0.44433594,-0.11328125,-0.080078125,-62.6875,-48.59375,-4.46875,0.0,0.0,0.0
1664566795366,-0.5527344,-0.05078125,-0.052734375,23.375,34.09375,-32.375,0.0,0.0,0.0
1664566795402,-0.2421875,0.16601562,-0.1875,82.875,4.0,-9.15625,0.0,0.0,0.0
1664566795442,-0.32714844,0.13183594,0.06933594,78.46875,-13.4375,13.71875,-65.5625,-16.9375,-132.0625
1664566795482,-0.63671875,-0.033203125,0.4326172,33.625,-19.84375,33.96875,0.0,0.0,0.0
1664566795523,-1.7197266,-0.00390625,0.8417969,70.96875,36.1875,18.65625,0.0,0.0,0.0
1664566795563,-1.2431641,0.17089844,1.3154297,66.4375,-108.09375,-30.96875,0.0,0.0,0.0
1664566795602,-0.8671875,-0.20410156,0.8027344,-45.90625,-11.78125,-7.46875,0.0,0.0,0.0
1664566795642,-1.1279297,0.296875,0.18652344,-11.0625,6.5,-18.8125,0.0,0.0,0.0
1664566795682,-1.2763672,0.46875,0.1328125,37.59375,130.28125,31.40625,0.0,0.0,0.0
1664566795722,-0.8613281,0.22167969,0.11816406,22.875,-41.6875,80.0625,0.0,0.0,0.0
1664566795762,-1.1630859,-0.16894531,-0.44628906,-46.40625,146.46875,7.25,0.0,0.0,0.0
1664566795803,-0.9863281,0.041015625,0.7685547,106.125,-38.40625,-23.5625,0.0,0.0,0.0
1664566795842,-0.7402344,0.20703125,-0.3232422,-67.53125,113.625,-35.84375,0.0,0.0,0.0
1664566795882,-0.5410156,0.5263672,0.16894531,-6.84375,97.21875,-16.0,0.0,0.0,0.0
1664566795922,-0.88183594,-0.15820312,0.041992188,-87.1875,98.6875,10.84375,0.0,0.0,0.0
1664566795964,-0.828125,-0.18261719,-0.0068359375,-31.3125,92.09375,10.71875,-67.375,-14.0625,-135.1875
1664566796002,-0.8066406,0.16210938,0.24121094,97.65625,64.75,28.90625,0.0,0.0,0.0
1664566796043,-1.0556641,0.14746094,0.0068359375,-29.0,53.09375,9.6875,0.0,0.0,0.0
1664566796083,-1.3398438,-0.2734375,0.2763672,-49.03125,54.84375,20.6875,0.0,0.0,0.0
1664566796123,-1.4296875,0.043945312,0.24511719,-36.5,26.28125,-10.5,0.0,0.0,0.0
1664566796162,-1.5117188,-0.18945312,0.032226562,-44.75,-11.25,-14.0625,0.0,0.0,0.0
1664566796203,-1.1044922,0.08300781,-0.28320312,-8.5625,-79.125,-32.78125,0.0,0.0,0.0
1664566796242,-0.82128906,0.2529297,-0.123046875,50.8125,-104.9375,-36.875,0.0,0.0,0.0
1664566796282,-1.6337891,-0.080078125,0.0087890625,-8.0625,-121.71875,-49.8125,0.0,0.0,0.0
1664566796325,-1.5224609,0.76660156,-0.053710938,-6.71875,-146.75,23.25,0.0,0.0,0.0
1664566796362,-0.80078125,0.32617188,0.3828125,-52.1875,-191.1875,22.5625,0.0,0.0,0.0
1664566796402,-0.3544922,-0.059570312,0.0,-127.21875,-143.9375,57.84375,0.0,0.0,0.0
1664566796443,-0.87890625,-0.3408203,0.061523438,-14.65625,8.09375,-19.96875,-67.5,-10.625,-126.8125
1664566796482,-0.34960938,0.0048828125,-0.057617188,55.46875,-16.625,-35.21875,0.0,0.0,0.0
1664566796542,-0.296875,0.13867188,-0.0029296875,69.4375,-35.34375,-8.375,0.0,0.0,0.0
1664566796562,-0.47851562,-0.009765625,0.61816406,55.90625,45.40625,10.84375,0.0,0.0,0.0
1664566796603,-1.1923828,-0.13183594,0.8046875,65.96875,74.9375,26.21875,0.0,0.0,0.0
1664566796642,-1.5488281,0.375,1.5761719,63.875,-23.34375,0.09375,0.0,0.0,0.0
1664566796682,-0.7441406,-0.22851562,0.7236328,-38.65625,-35.53125,-34.5625,0.0,0.0,0.0
1664566796721,-1.2197266,0.4658203,-0.06542969,-29.0625,4.1875,-2.03125,0.0,0.0,0.0
1664566796762,-1.5546875,0.40234375,0.2734375,38.125,82.3125,39.0625,0.0,0.0,0.0
1664566796802,-0.67089844,0.047851562,0.036132812,63.8125,-60.25,72.875,0.0,0.0,0.0
1664566796842,-1.2861328,-0.1015625,-0.5917969,-53.59375,187.0625,5.0,0.0,0.0,0.0
1664566796883,-0.82421875,0.265625,0.8515625,123.40625,-37.125,-24.0,0.0,0.0,0.0
1664566796922,-0.6298828,0.21484375,-0.2705078,-81.6875,121.6875,-36.09375,0.0,0.0,0.0
1664566796962,-0.6972656,0.37109375,0.2529297,11.15625,88.53125,3.59375,-66.75,-11.375,-130.5625
1664566797003,-0.7285156,-0.14550781,0.12109375,-50.5,105.46875,10.0625,0.0,0.0,0.0
1664566797042,-0.8300781,-0.095703125,0.18554688,19.9375,86.03125,18.40625,0.0,0.0,0.0
1664566797083,-0.8457031,0.051757812,0.12402344,32.5625,61.375,14.5,0.0,0.0,0.0
1664566797122,-1.1191406,0.22167969,0.083984375,-24.84375,55.46875,17.5625,0.0,0.0,0.0
1664566797163,-1.3867188,-0.21386719,0.078125,-55.125,26.59375,23.25,0.0,0.0,0.0
1664566797202,-1.4169922,-0.09082031,0.23730469,-40.53125,6.40625,-10.03125,0.0,0.0,0.0
1664566797242,-1.5283203,-0.30273438,-0.0107421875,-26.0625,-44.21875,-21.9375,0.0,0.0,0.0
1664566797282,-0.7558594,0.16894531,-0.20996094,60.46875,-84.0,-35.59375,0.0,0.0,0.0
1664566797323,-1.1435547,0.11035156,-0.15527344,78.28125,-113.40625,-55.75,0.0,0.0,0.0
1664566797362,-1.9794922,0.07324219,-0.048828125,-58.375,-120.3125,-39.0625,0.0,0.0,0.0
1664566797403,-1.3554688,0.6796875,-0.05859375,28.4375,-89.625,-8.5,0.0,0.0,0.0
1664566797442,-0.7441406,0.24316406,0.40820312,-3.1875,-184.46875,10.46875,-64.8125,-13.3125,-129.625
1664566797483,-0.3076172,-0.021484375,-0.060546875,-49.03125,-86.875,27.21875,0.0,0.0,0.0
1664566797523,-0.6640625,-0.31152344,-0.08496094,84.8125,21.21875,-64.96875,0.0,0.0,0.0
1664566797562,-0.23632812,0.14550781,-0.13183594,65.65625,-27.90625,-9.90625,0.0,0.0,0.0
1664566797603,-0.3876953,0.24804688,0.10449219,56.375,-16.96875,10.375,0.0,0.0,0.0
1664566797642,-0.8105469,0.048828125,0.66308594,7.375,13.03125,19.15625,0.0,0.0,0.0
1664566797681,-1.7910156,0.08984375,1.0527344,47.03125,98.0,22.1875,0.0,0.0,0.0
1664566797723,-1.2675781,-0.08691406,0.91015625,-47.0,-20.71875,-47.125,0.0,0.0,0.0
1664566797762,-0.98828125,-0.5205078,0.9658203,-41.65625,-82.78125,-44.8125,0.0,0.0,0.0
1664566797802,-1.3798828,0.8515625,-0.5527344,2.65625,109.0625,-2.875,0.0,0.0,0.0
1664566797843,-1.078125,0.69921875,0.6621094,79.34375,-50.375,54.125,0.0,0.0,0.0
1664566797883,-1.0498047,0.10253906,-0.13769531,2.90625,4.6875,72.625,0.0,0.0,0.0
1664566797922,-1.4072266,-0.18457031,-0.5732422,25.625,230.875,-2.46875,0.0,0.0,0.0
1664566797962,-0.9453125,0.44921875,0.59472656,70.84375,43.375,-34.0,-64.9375,-11.8125,-125.3125
1664566798002,-0.49414062,0.21386719,-0.24902344,-134.96875,117.1875,-55.5,0.0,0.0,0.0
1664566798042,-0.7128906,0.20605469,0.055664062,32.8125,94.71875,15.1875,0.0,0.0,0.0
1664566798081,-0.7685547,-0.07421875,0.0048828125,-36.34375,106.1875,14.625,0.0,0.0,0.0
1664566798123,-0.83984375,0.034179688,0.14257812,29.71875,92.5625,18.90625,0.0,0.0,0.0
1664566798163,-0.8720703,0.16503906,0.16113281,-8.6875,67.375,21.53125,0.0,0.0,0.0
1664566798203,-1.2285156,0.15039062,0.0625,-53.125,52.0625,21.78125,0.0,0.0,0.0
1664566798243,-1.4316406,-0.46679688,0.12792969,-57.875,30.25,12.75,0.0,0.0,0.0
1664566798282,-1.4394531,-0.072265625,0.171875,-22.40625,3.65625,-13.375,0.0,0.0,0.0
1664566798322,-1.4150391,-0.08203125,-0.059570312,-6.375,-44.375,-36.8125,0.0,0.0,0.0
1664566798362,-0.890625,0.45507812,-0.08984375,15.125,-63.4375,-43.71875,0.0,0.0,0.0
1664566798402,-1.1523438,0.08300781,-0.17382812,-14.96875,-89.0,-51.46875,0.0,0.0,0.0
1664566798442,-1.7353516,0.22363281,-0.14355469,-21.5625,-129.84375,-40.46875,-62.375,-14.1875,-135.0625
1664566798483,-1.3066406,0.56640625,0.2607422,-27.34375,-99.6875,-11.5,0.0,0.0,0.0
1664566798522,-0.62597656,0.0029296875,0.16796875,-86.0,-154.6875,22.1875,0.0,0.0,0.0
1664566798562,-0.7373047,-0.19921875,-0.12597656,10.96875,-65.25,-34.625,0.0,0.0,0.0
1664566798602,-0.40722656,-0.1875,-0.125,25.375,-127.9375,-96.4375,0.0,0.0,0.0
1664566798642,-0.3486328,0.09277344,0.2265625,29.90625,-6.59375,-13.125,0.0,0.0,0.0
1664566798683,-0.2841797,-0.033203125,0.265625,72.8125,53.625,13.71875,0.0,0.0,0.0
1664566798722,-0.8720703,-0.14648438,0.53515625,48.4375,68.65625,28.5625,0.0,0.0,0.0
1664566798762,-1.9326172,0.3701172,1.0087891,39.21875,90.0625,22.6875,0.0,0.0,0.0
1664566798802,-1.0537109,0.13476562,1.1464844,-99.5,-29.4375,-47.3125,0.0,0.0,0.0
1664566798842,-1.0087891,-0.5703125,0.78808594,-42.5,-74.1875,-23.4375,0.0,0.0,0.0
1664566798882,-1.0576172,0.5390625,-0.34472656,38.25,88.84375,22.03125,0.0,0.0,0.0
1664566798923,-1.5263672,0.3623047,0.22167969,52.65625,46.3125,40.5,0.0,0.0,0.0
1664566798962,-0.4736328,0.07128906,-0.06640625,53.9375,-1.65625,86.53125,-65.5625,-17.6875,-126.9375
1664566799002,-1.5058594,-0.14355469,-0.60253906,-60.6875,182.84375,38.6875,0.0,0.0,0.0
1664566799042,-0.78808594,0.45214844,0.82910156,166.625,44.34375,-15.59375,0.0,0.0,0.0
1664566799085,-0.578125,0.034179688,-0.34375,-89.96875,138.96875,-38.46875,0.0,0.0,0.0
1664566799124,-0.6845703,0.083984375,0.14257812,30.625,101.78125,2.375,0.0,0.0,0.0
1664566799165,-0.64746094,0.078125,0.0107421875,-9.15625,85.875,19.15625,0.0,0.0,0.0
1664566799202,-0.9013672,0.0859375,0.19433594,8.15625,86.21875,30.875,0.0,0.0,0.0
1664566799242,-0.96484375,0.025390625,0.1484375,19.625,51.0,32.34375,0.0,0.0,0.0
1664566799282,-1.2080078,0.07421875,0.20898438,-21.1875,58.09375,19.6875,0.0,0.0,0.0
1664566799323,-1.4423828,-0.32421875,0.13476562,-54.53125,36.59375,12.625,0.0,0.0,0.0
1664566799363,-1.65625,-0.21972656,0.076171875,-25.96875,2.84375,-18.375,0.0,0.0,0.0
1664566799402,-1.3808594,0.099609375,-0.20410156,-16.4375,-73.6875,-37.1875,0.0,0.0,0.0
1664566799443,-0.75683594,0.37109375,-0.040039062,40.375,-110.0,-31.9375,-64.0625,-12.5625,-144.5
1664566799481,-1.6210938,0.0068359375,-0.13769531,-27.46875,-73.0625,-57.28125,0.0,0.0,0.0
1664566799521,-1.5683594,0.6533203,-0.14550781,-26.5,-109.15625,-9.34375,0.0,0.0,0.0
1664566799562,-0.9433594,0.20605469,0.25,-29.5,-127.21875,-15.28125,0.0,0.0,0.0
1664566799603,-0.58203125,-0.03125,-0.020507812,-92.78125,-159.9375,0.21875,0.0,0.0,0.0
1664566799642,-0.6347656,-0.115234375,-0.103515625,26.28125,-155.46875,-40.71875,0.0,0.0,0.0
1664566799682,-0.34472656,0.06933594,0.12988281,24.03125,-42.5625,-90.03125,0.0,0.0,0.0
1664566799723,-0.2939453,0.21191406,0.08691406,91.125,-17.46875,-25.65625,0.0,0.0,0.0
1664566799762,-0.3955078,-0.043945312,0.34375,62.78125,57.28125,15.3125,0.0,0.0,0.0
1664566799802,-0.97265625,0.0546875,0.5136719,18.65625,92.5625,36.53125,0.0,0.0,0.0
1664566799843,-1.8505859,0.08496094,1.4492188,90.0625,-46.65625,19.21875,0.0,0.0,0.0
1664566799883,-0.98046875,-0.24121094,0.9716797,-111.59375,-10.9375,-46.40625,0.0,0.0,0.0
1664566799922,-1.3720703,-0.045898438,0.3779297,-60.125,11.75,-25.34375,0.0,0.0,0.0
1664566799962,-1.3105469,0.4736328,-0.4892578,82.6875,151.53125,51.6875,-59.6875,-17.9375,-123.0625
1664566800003,0.07128906,0.48535156,0.24414062,55.34375,-116.84375,41.0,0.0,0.0,0.0
1664566800042,-1.7246094,-0.3095703,-0.8847656,-111.90625,199.09375,32.28125,0.0,0.0,0.0
1664566800083,-1.0273438,-0.047851562,0.5078125,137.125,-53.1875,-9.15625,0.0,0.0,0.0
1664566800122,-0.8027344,0.25390625,-0.10058594,-53.40625,118.75,-37.75,0.0,0.0,0.0
1664566800162,-0.4873047,0.20996094,0.044921875,11.03125,125.0,-24.4375,0.0,0.0,0.0
1664566800202,-0.75,-0.00390625,-0.0078125,13.96875,100.5,6.15625,0.0,0.0,0.0
1664566800242,-0.76171875,0.025390625,0.13574219,-6.0,91.125,24.40625,0.0,0.0,0.0
1664566800282,-0.81152344,0.05078125,0.080078125,15.0625,79.6875,27.8125,0.0,0.0,0.0
1664566800322,-1.1904297,0.13671875,0.13183594,12.875,48.3125,25.875,0.0,0.0,0.0
1664566800363,-1.3994141,-0.25195312,0.17089844,-54.46875,22.75,19.53125,0.0,0.0,0.0
1664566800405,-1.5195312,-0.22265625,0.18066406,-61.125,19.9375,-5.25,0.0,0.0,0.0
1664566800443,-1.6113281,-0.15332031,0.017578125,-39.9375,-25.03125,-25.40625,-63.3125,-14.375,-146.3125
1664566800482,-0.765625,0.30371094,-0.1875,16.90625,-66.78125,-55.875,0.0,0.0,0.0
1664566800522,-1.2109375,0.16699219,-0.12109375,19.875,-95.96875,-73.5625,0.0,0.0,0.0
1664566800562,-1.75,0.265625,-0.17480469,-52.375,-100.125,-41.34375,0.0,0.0,0.0
1664566800602,-1.2226562,0.7050781,0.099609375,-2.28125,-116.84375,-6.65625,0.0,0.0,0.0
1664566800642,-0.70703125,0.09863281,0.20410156,-104.25,-172.1875,5.53125,0.0,0.0,0.0
1664566800682,-0.51171875,-0.10644531,-0.265625,-40.0625,-193.1875,-16.375,0.0,0.0,0.0
1664566800722,-0.64941406,-0.15136719,0.13183594,5.28125,-61.59375,-91.3125,0.0,0.0,0.0
1664566800762,-0.3310547,0.18261719,0.024414062,97.15625,-33.28125,-29.96875,0.0,0.0,0.0
1664566800802,-0.27734375,0.064453125,0.1328125,75.4375,37.65625,1.75,0.0,0.0,0.0
1664566800843,-0.5107422,-0.0703125,0.6738281,37.03125,97.75,41.3125,0.0,0.0,0.0
1664566800882,-1.7158203,-0.17773438,0.69140625,1.09375,97.65625,47.28125,0.0,0.0,0.0
1664566800922,-1.2636719,0.23046875,1.2314453,-18.3125,-56.21875,-40.90625,0.0,0.0,0.0
1664566800962,-1.0253906,-0.32226562,0.9140625,-76.25,-27.90625,-22.90625,-63.75,-15.5625,-126.9375
1664566801003,-1.0664062,0.31933594,-0.2529297,14.5,56.8125,22.875,0.0,0.0,0.0
1664566801043,-1.1376953,0.3779297,0.055664062,93.125,29.59375,71.15625,0.0,0.0,0.0
1664566801082,-0.8876953,0.24316406,0.013671875,34.40625,-6.1875,73.09375,0.0,0.0,0.0
1664566801122,-1.4130859,-0.087890625,-0.2841797,-36.21875,85.9375,8.59375,0.0,0.0,0.0
1664566801162,-0.7714844,0.15820312,0.39648438,75.0625,75.125,-31.75,0.0,0.0,0.0
1664566801202,-0.6220703,0.2109375,-0.041015625,-51.15625,116.625,-26.125,0.0,0.0,0.0
1664566801242,-0.69140625,0.02734375,-0.044921875,-19.5,116.4375,-13.625,0.0,0.0,0.0
1664566801282,-0.73535156,0.08105469,0.08300781,12.625,93.3125,21.28125,0.0,0.0,0.0
1664566801323,-0.81933594,0.07519531,0.18652344,3.90625,83.125,28.84375,0.0,0.0,0.0
1664566801362,-0.94433594,0.05078125,0.1484375,-26.625,54.5,34.34375,0.0,0.0,0.0
1664566801402,-1.3896484,0.0126953125,0.27441406,-39.4375,70.0,23.0625,0.0,0.0,0.0
1664566801443,-1.3515625,-0.37890625,0.083984375,-50.3125,18.21875,10.71875,-63.625,-13.1875,-157.5625
1664566801482,-1.5595703,-0.15820312,0.115234375,-28.65625,-15.15625,-10.34375,0.0,0.0,0.0
1664566801523,-1.3193359,0.043945312,-0.2705078,-14.90625,-85.84375,-28.03125,0.0,0.0,0.0
1664566801562,-0.7597656,0.28027344,0.022460938,51.4375,-114.6875,-40.3125,0.0,0.0,0.0
1664566801606,-1.6669922,-0.06738281,-0.028320312,9.1875,-86.875,-54.59375,0.0,0.0,0.0
1664566801642,-1.5322266,0.61816406,-0.103515625,-40.59375,-106.46875,-17.65625,0.0,0.0,0.0
1664566801683,-0.89941406,0.20507812,0.23925781,-55.375,-145.28125,-4.03125,0.0,0.0,0.0
1664566801723,-0.69433594,0.00390625,0.0126953125,-106.71875,-172.1875,8.15625,0.0,0.0,0.0
1664566801763,-0.640625,-0.14746094,-0.076171875,71.625,-83.875,-34.0625,0.0,0.0,0.0
1664566801802,-0.3623047,0.15429688,-0.029296875,69.375,-41.8125,-52.5,0.0,0.0,0.0
1664566801842,-0.18359375,0.18457031,0.005859375,82.4375,0.0,-24.84375,0.0,0.0,0.0
1664566801882,-0.4111328,-0.09375,0.36816406,52.90625,57.71875,6.03125,0.0,0.0,0.0
1664566801923,-0.9121094,0.1171875,0.5966797,5.0,80.125,8.15625,0.0,0.0,0.0
1664566801961,-1.7666016,0.059570312,1.4384766,27.28125,-77.15625,5.40625,-68.375,-14.8125,-132.0625
1664566802002,-1.0615234,-0.37402344,1.0673828,-46.34375,3.34375,-41.21875,0.0,0.0,0.0
1664566802042,-1.3974609,-0.12890625,0.6064453,-24.0625,19.5625,-27.53125,0.0,0.0,0.0
1664566802083,-0.921875,0.52441406,-0.7998047,26.78125,148.59375,12.25,0.0,0.0,0.0
1664566802122,-0.46972656,0.8964844,0.5371094,86.84375,-137.96875,93.84375,0.0,0.0,0.0
1664566802163,-1.3662109,-0.20410156,-0.78222656,-150.53125,250.40625,21.28125,0.0,0.0,0.0
1664566802202,-1.1181641,-0.11425781,-0.0859375,75.0,-16.0,13.71875,0.0,0.0,0.0
1664566802243,-0.9082031,0.3095703,-0.03515625,38.125,98.9375,-27.90625,0.0,0.0,0.0
1664566802282,-0.5214844,0.3173828,0.09765625,-19.71875,109.3125,-25.53125,0.0,0.0,0.0
1664566802323,-0.7949219,-0.11035156,-0.034179688,-20.03125,114.0,-13.03125,0.0,0.0,0.0
1664566802362,-0.7519531,0.051757812,0.0703125,-0.875,93.25,11.15625,0.0,0.0,0.0
1664566802402,-0.7871094,0.07128906,0.06933594,18.40625,77.5,26.15625,0.0,0.0,0.0
1664566802443,-1.0732422,0.087890625,0.16113281,-16.3125,72.96875,32.15625,-67.625,-15.5625,-156.375
1664566802482,-1.4052734,-0.13183594,0.13867188,-60.625,50.03125,32.09375,0.0,0.0,0.0
1664566802522,-1.3779297,-0.39941406,0.16601562,-32.84375,18.1875,-5.4375,0.0,0.0,0.0
1664566802562,-1.6445312,0.034179688,0.016601562,-18.09375,-23.8125,-30.78125,0.0,0.0,0.0
1664566802603,-1.0585938,0.12109375,-0.29101562,-3.875,-77.90625,-29.625,0.0,0.0,0.0
1664566802642,-0.9628906,0.21875,-0.08496094,31.40625,-89.90625,-57.6875,0.0,0.0,0.0
1664566802682,-1.7216797,0.07324219,-0.026367188,-4.90625,-103.59375,-45.4375,0.0,0.0,0.0
1664566802723,-1.4873047,0.86816406,-0.047851562,-61.1875,-108.0625,12.75,0.0,0.0,0.0
1664566802763,-0.8017578,0.125,0.28027344,-72.53125,-149.375,9.9375,0.0,0.0,0.0
1664566802802,-0.59375,0.068359375,-0.033203125,-151.03125,-205.9375,20.1875,0.0,0.0,0.0
1664566802843,-0.6435547,-0.021484375,0.005859375,47.40625,-83.5625,-21.25,0.0,0.0,0.0
1664566802883,-0.31152344,0.16015625,0.078125,42.40625,-30.34375,-29.25,0.0,0.0,0.0
1664566802925,-0.24902344,0.10644531,-0.021484375,49.59375,10.46875,-2.34375,0.0,0.0,0.0
1664566802962,-0.30566406,-0.09863281,0.4892578,44.65625,52.0,22.1875,-127.8125,-19.3125,-140.125
1664566803003,-1.5341797,-0.095703125,0.5283203,-23.21875,49.53125,48.6875,0.0,0.0,0.0
1664566803043,-1.46875,0.25,1.4462891,70.96875,-108.84375,-41.875,0.0,0.0,0.0
1664566803083,-0.6855469,-0.35253906,0.8203125,-103.96875,-56.90625,-40.84375,0.0,0.0,0.0
1664566803122,-1.1220703,0.6201172,-0.27539062,50.34375,64.5625,28.125,0.0,0.0,0.0
1664566803162,-1.6240234,0.38671875,0.23339844,140.5,59.375,76.28125,0.0,0.0,0.0
1664566803202,-0.49414062,0.3515625,0.044921875,39.15625,-52.4375,61.625,0.0,0.0,0.0
1664566803243,-1.5205078,-0.078125,-0.46972656,-61.96875,138.28125,-5.09375,0.0,0.0,0.0
1664566803282,-0.75097656,0.09082031,0.5410156,109.40625,16.40625,-48.59375,0.0,0.0,0.0
1664566803323,-0.74121094,0.2890625,-0.14160156,-45.71875,102.15625,-36.625,0.0,0.0,0.0
1664566803362,-0.71484375,0.025390625,0.09765625,-46.59375,103.3125,-9.53125,0.0,0.0,0.0
1664566803402,-0.6777344,-0.15429688,-0.025390625,-29.0,112.28125,0.53125,0.0,0.0,0.0
1664566803442,-0.8203125,0.13769531,0.056640625,8.71875,84.53125,21.78125,-81.125,-15.25,-156.0625
1664566803482,-0.8515625,0.12792969,0.22851562,6.03125,70.0625,44.25,0.0,0.0,0.0
1664566803523,-1.2763672,-0.08496094,0.12109375,-36.40625,67.78125,42.46875,0.0,0.0,0.0
1664566803563,-1.3886719,-0.19433594,0.072265625,-53.0,27.75,7.8125,0.0,0.0,0.0
1664566803603,-1.4462891,-0.111328125,0.2578125,-45.5625,0.59375,-13.375,0.0,0.0,0.0
1664566803643,-1.5556641,-0.12597656,-0.078125,-31.25,-48.78125,-25.71875,0.0,0.0,0.0
1664566803682,-0.6328125,0.3125,-0.060546875,43.1875,-75.75,-44.8125,0.0,0.0,0.0
1664566803722,-1.5185547,0.12207031,-0.059570312,16.34375,-90.59375,-58.4375,0.0,0.0,0.0
1664566803763,-1.6904297,0.24414062,-0.18261719,-64.21875,-108.65625,-35.34375,0.0,0.0,0.0
1664566803802,-1.1162109,0.5175781,0.22558594,-16.0625,-122.03125,2.375,0.0,0.0,0.0
1664566803842,-0.68847656,0.036132812,0.0029296875,-120.6875,-194.34375,20.90625,0.0,0.0,0.0
1664566803885,-0.55859375,-0.17578125,-0.036132812,-69.0,-97.4375,-2.46875,0.0,0.0,0.0
1664566803922,-0.33496094,-0.038085938,-0.068359375,93.84375,-67.34375,-25.15625,0.0,0.0,0.0
1664566803962,-0.33984375,0.26757812,0.005859375,69.125,7.8125,-15.6875,-112.1875,-12.875,-150.1875
1664566804002,-0.3095703,0.015625,0.32226562,65.28125,40.21875,-5.5,0.0,0.0,0.0
1664566804043,-0.95214844,-0.16601562,0.5283203,26.78125,59.625,19.8125,0.0,0.0,0.0
1664566804083,-1.8613281,0.28710938,1.1777344,20.625,43.5625,2.65625,0.0,0.0,0.0
1664566804122,-1.0947266,-0.0703125,1.1279297,-70.03125,-17.65625,-47.9375,0.0,0.0,0.0
1664566804162,-1.3730469,-0.10058594,0.59277344,-36.09375,9.1875,-25.96875,0.0,0.0,0.0
1664566804202,-1.1230469,0.58203125,-0.45898438,70.78125,142.1875,21.09375,0.0,0.0,0.0
1664566804242,-0.43066406,0.5498047,0.0859375,58.625,-80.46875,62.3125,0.0,0.0,0.0
1664566804283,-1.4101562,-0.07714844,-0.31347656,-40.59375,133.34375,16.65625,0.0,0.0,0.0
1664566804323,-1.0898438,-0.08203125,-0.11621094,52.0,84.46875,-29.25,0.0,0.0,0.0
1664566804362,-0.94433594,0.34765625,0.15625,4.3125,80.1875,-22.46875,0.0,0.0,0.0
1664566804403,-0.5566406,0.19726562,-0.043945312,-24.4375,122.84375,-28.6875,0.0,0.0,0.0
1664566804462,-0.8154297,-0.018554688,0.064453125,-9.59375,99.65625,-6.375,-88.625,-6.875,-138.625
1664566804482,-0.7519531,-0.0546875,0.0625,-15.6875,87.3125,6.09375,0.0,0.0,0.0
1664566804522,-0.8925781,0.11035156,0.19238281,19.21875,81.78125,22.25,0.0,0.0,0.0
1664566804562,-0.9140625,0.13671875,0.11621094,-5.5625,43.375,24.40625,0.0,0.0,0.0
1664566804603,-1.2724609,-0.060546875,0.087890625,-46.28125,67.84375,34.78125,0.0,0.0,0.0
1664566804642,-1.3535156,-0.24804688,0.0703125,-49.03125,29.84375,10.0625,0.0,0.0,0.0
1664566804682,-1.4873047,-0.19042969,0.21484375,-50.0625,4.3125,-10.03125,0.0,0.0,0.0
1664566804724,-1.40625,-0.1328125,-0.06738281,-46.28125,-54.59375,-17.03125,0.0,0.0,0.0
1664566804763,-0.7480469,0.24707031,-0.15820312,28.5625,-74.34375,-50.3125,0.0,0.0,0.0
1664566804802,-1.5146484,0.09863281,-0.08984375,3.84375,-79.0,-68.375,0.0,0.0,0.0
1664566804845,-1.6494141,0.4189453,-0.123046875,-75.15625,-107.6875,-30.65625,0.0,0.0,0.0
1664566804882,-1.0859375,0.3623047,0.125,-8.375,-131.4375,-8.25,0.0,0.0,0.0
1664566804922,-0.6826172,0.024414062,0.11425781,-70.28125,-217.78125,19.75,0.0,0.0,0.0
1664566804963,-0.609375,-0.15234375,-0.026367188,-24.3125,-95.59375,-15.53125,-72.4375,-22.0,-154.875
1664566805003,-0.42285156,0.026367188,0.045898438,85.5,-34.5625,-58.84375,0.0,0.0,0.0
1664566805043,-0.23144531,0.22265625,0.015625,97.65625,-0.5,-15.40625,0.0,0.0,0.0
1664566805082,-0.36328125,0.009765625,0.2890625,81.21875,46.25,6.8125,0.0,0.0,0.0
1664566805122,-0.82910156,0.080078125,0.49414062,22.25,68.78125,29.28125,0.0,0.0,0.0
1664566805163,-1.8837891,0.3095703,1.2060547,56.0625,8.03125,25.8125,0.0,0.0,0.0
1664566805202,-1.0917969,-0.10253906,1.1191406,-87.40625,-16.96875,-40.59375,0.0,0.0,0.0
1664566805241,-1.3613281,-0.24511719,0.70996094,-21.75,-31.3125,-22.40625,0.0,0.0,0.0
1664566805282,-1.2265625,0.6308594,-0.46679688,73.90625,143.59375,9.6875,0.0,0.0,0.0
1664566805322,-0.7988281,0.6591797,0.35253906,43.625,-83.5625,51.5,0.0,0.0,0.0
1664566805362,-1.0859375,-0.27539062,-0.5058594,-4.21875,76.59375,45.40625,0.0,0.0,0.0
1664566805403,-1.3857422,0.0234375,-0.45410156,21.34375,164.15625,-13.9375,0.0,0.0,0.0
1664566805442,-0.7919922,0.53222656,0.36914062,83.1875,74.75,-13.5,-98.25,6.1875,-127.6875
1664566805482,-0.5361328,0.15722656,-0.24511719,-100.59375,139.625,-34.9375,0.0,0.0,0.0
1664566805522,-0.82714844,0.03515625,0.22070312,67.125,95.8125,-1.0625,0.0,0.0,0.0
1664566805562,-0.74902344,0.00390625,-0.0390625,-6.5,89.21875,5.65625,0.0,0.0,0.0
1664566805602,-0.8076172,0.08300781,0.18652344,15.5625,82.0625,26.09375,0.0,0.0,0.0
1664566805643,-1.0449219,0.036132812,0.111328125,-17.03125,91.59375,20.5,0.0,0.0,0.0
1664566805682,-1.3427734,0.1640625,0.25390625,-3.625,64.25,37.03125,0.0,0.0,0.0
1664566805722,-1.4042969,-0.2841797,0.13671875,-50.25,17.5,6.03125,0.0,0.0,0.0
1664566805763,-1.5751953,-0.24023438,0.0390625,-35.96875,-25.53125,-14.96875,0.0,0.0,0.0
1664566805802,-1.265625,0.08886719,-0.25195312,-6.5,-79.125,-30.46875,0.0,0.0,0.0
1664566805842,-0.765625,0.27539062,0.025390625,37.03125,-108.84375,-52.6875,0.0,0.0,0.0
1664566805883,-1.8154297,0.060546875,-0.046875,-4.96875,-90.09375,-58.0625,0.0,0.0,0.0
1664566805922,-1.5478516,0.625,-0.19921875,-48.0625,-93.03125,-10.09375,0.0,0.0,0.0
1664566805963,-0.8857422,0.25097656,0.2626953,-3.0625,-126.53125,4.75,-75.625,-13.3125,-149.3125
1664566806002,-0.48632812,0.01171875,-0.15527344,-61.96875,-145.46875,21.84375,0.0,0.0,0.0
1664566806044,-0.6923828,-0.23535156,-0.0390625,-13.625,-92.71875,-11.125,0.0,0.0,0.0
1664566806083,-0.3701172,0.18945312,0.026367188,88.3125,-54.53125,-47.4375,0.0,0.0,0.0
1664566806122,-0.2529297,0.23242188,0.045898438,69.375,13.96875,-38.96875,0.0,0.0,0.0
1664566806162,-0.4189453,0.04296875,0.31640625,40.5,55.21875,7.5,0.0,0.0,0.0
1664566806202,-1.0820312,0.17285156,0.390625,-14.125,78.71875,27.8125,0.0,0.0,0.0
1664566806242,-1.6376953,0.030273438,1.4589844,60.53125,-150.71875,23.90625,0.0,0.0,0.0
1664566806283,-1.0605469,-0.54003906,1.2167969,-52.75,-3.875,-41.59375,0.0,0.0,0.0
1664566806322,-1.0419922,-0.19433594,0.49902344,-27.96875,9.875,-32.375,0.0,0.0,0.0
1664566806362,-1.3886719,0.76464844,-0.8203125,81.21875,200.25,19.34375,0.0,0.0,0.0
1664566806402,-0.20507812,0.9794922,0.5292969,84.53125,-200.53125,63.15625,0.0,0.0,0.0
1664566806442,-1.5742188,-0.26757812,-0.8232422,-175.0,198.03125,63.21875,-80.5625,4.6875,-134.75
1664566806483,-1.1347656,-0.32226562,0.022460938,70.25,52.21875,-41.40625,0.0,0.0,0.0
1664566806522,-0.9160156,0.30371094,0.0068359375,6.21875,96.53125,-40.53125,0.0,0.0,0.0
1664566806562,-0.54003906,0.5126953,0.04296875,-18.625,113.4375,-31.25,0.0,0.0,0.0
1664566806602,-0.81152344,-0.024414062,0.0234375,-41.09375,92.8125,-8.3125,0.0,0.0,0.0
1664566806644,-0.7294922,-0.017578125,0.0625,-26.5,95.375,19.625,0.0,0.0,0.0
1664566806684,-0.7841797,0.115234375,0.18457031,-4.65625,83.59375,20.125,0.0,0.0,0.0
1664566806722,-1.0410156,-0.045898438,0.05859375,-40.78125,74.625,31.0625,0.0,0.0,0.0
1664566806763,-1.3779297,-0.064453125,0.1875,-23.8125,68.09375,31.1875,0.0,0.0,0.0
1664566806802,-1.3769531,-0.24804688,0.16113281,-20.34375,15.25,6.46875,0.0,0.0,0.0
1664566806842,-1.5517578,-0.061523438,0.09472656,-36.5,-29.375,-17.53125,0.0,0.0,0.0
1664566806882,-1.1464844,0.125,-0.31054688,-22.84375,-63.3125,-30.78125,0.0,0.0,0.0
1664566806923,-0.7910156,0.28710938,-0.07519531,49.78125,-99.0625,-61.71875,0.0,0.0,0.0
1664566806962,-1.796875,0.037109375,-0.030273438,8.96875,-91.9375,-48.0625,-70.375,-11.375,-147.8125
1664566807002,-1.5214844,0.6376953,-0.107421875,-80.28125,-123.0,0.96875,0.0,0.0,0.0
1664566807042,-0.8496094,0.22851562,0.22851562,-20.875,-120.1875,-9.15625,0.0,0.0,0.0
1664566807083,-0.5830078,0.017578125,-0.13574219,-134.34375,-211.5625,13.03125,0.0,0.0,0.0
1664566807122,-0.56347656,-0.046875,0.028320312,-20.03125,-84.96875,-8.125,0.0,0.0,0.0
1664566807162,-0.4873047,0.033203125,0.099609375,35.8125,-10.28125,-36.9375,0.0,0.0,0.0
1664566807203,-0.27734375,0.14648438,-0.03125,63.03125,4.25,-8.25,0.0,0.0,0.0
1664566807242,-0.30078125,-0.14550781,0.45117188,85.125,35.5,30.8125,0.0,0.0,0.0
1664566807283,-1.4667969,-0.13476562,0.6298828,11.15625,55.34375,49.0625,0.0,0.0,0.0
1664566807324,-1.5009766,0.24414062,1.3623047,72.0,-84.0,-21.0625,0.0,0.0,0.0
1664566807364,-0.6513672,-0.099609375,0.8964844,-100.34375,-29.375,-38.15625,0.0,0.0,0.0
1664566807402,-1.2285156,0.080078125,0.018554688,17.375,22.375,5.90625,0.0,0.0,0.0
1664566807443,-1.2568359,0.6845703,-0.009765625,109.84375,140.625,78.40625,-73.8125,-3.25,-140.0
1664566807483,-0.4375,0.49902344,-0.19824219,-28.9375,-24.5,41.1875,0.0,0.0,0.0
1664566807522,-1.5048828,-0.20410156,-0.41992188,-90.96875,116.6875,13.28125,0.0,0.0,0.0
1664566807562,-0.9267578,-0.059570312,0.15722656,60.40625,64.6875,-33.59375,0.0,0.0,0.0
1664566807603,-0.8183594,0.20898438,-0.013671875,-6.375,101.84375,-32.5,0.0,0.0,0.0
1664566807643,-0.5722656,0.24804688,0.14257812,-7.53125,113.375,-19.59375,0.0,0.0,0.0
1664566807683,-0.7705078,0.015625,0.037109375,-28.875,98.5,2.71875,0.0,0.0,0.0
1664566807722,-0.75683594,-0.022460938,0.095703125,7.125,88.84375,19.21875,0.0,0.0,0.0
1664566807762,-0.83984375,0.048828125,0.07714844,14.875,43.8125,31.46875,0.0,0.0,0.0
1664566807802,-1.1474609,0.021484375,0.017578125,-1.65625,62.96875,33.96875,0.0,0.0,0.0
1664566807842,-1.3623047,-0.107421875,0.123046875,-49.21875,39.71875,36.4375,0.0,0.0,0.0
1664566807883,-1.3623047,-0.2421875,0.20800781,-31.9375,11.875,-9.84375,0.0,0.0,0.0
1664566807923,-1.59375,-0.13964844,0.047851562,-19.0625,-28.28125,-22.40625,0.0,0.0,0.0
1664566807962,-0.86816406,0.16210938,-0.20117188,12.6875,-70.375,-41.46875,-72.0,-9.6875,-161.75
1664566808002,-1.2275391,0.06347656,-0.18261719,49.59375,-93.9375,-65.5,0.0,0.0,0.0
1664566808042,-1.7275391,0.21191406,-0.041992188,-5.875,-96.375,-46.40625,0.0,0.0,0.0
1664566808083,-1.3496094,0.72558594,0.06347656,-29.6875,-112.5,-5.8125,0.0,0.0,0.0
1664566808122,-0.81347656,0.107421875,0.17480469,-113.65625,-191.40625,9.9375,0.0,0.0,0.0
1664566808162,-0.5078125,-0.030273438,0.033203125,-79.375,-107.375,0.71875,0.0,0.0,0.0
1664566808202,-0.5214844,-0.016601562,-0.087890625,81.15625,-59.9375,-22.15625,0.0,0.0,0.0
1664566808242,-0.40234375,0.21386719,-0.0126953125,69.75,-22.28125,-30.53125,0.0,0.0,0.0
1664566808283,-0.3515625,0.10253906,0.0859375,62.96875,7.5,-7.15625,0.0,0.0,0.0
1664566808323,-0.56347656,-0.10839844,0.4501953,45.53125,38.9375,36.65625,0.0,0.0,0.0
1664566808363,-1.4970703,0.2109375,0.8017578,9.375,60.96875,44.28125,0.0,0.0,0.0
1664566808403,-1.0966797,-0.08105469,1.3251953,43.6875,-119.65625,-32.96875,0.0,0.0,0.0
1664566808443,-1.1259766,-0.2421875,0.8378906,-46.84375,-19.90625,-35.0625,-71.125,-7.0,-135.625
1664566808482,-1.3212891,0.5292969,-0.19726562,36.46875,51.875,-8.625,0.0,0.0,0.0
1664566808522,-0.94921875,0.68652344,0.21777344,123.8125,1.625,42.78125,0.0,0.0,0.0
1664566808562,-0.74121094,0.021484375,-0.18554688,33.625,-35.59375,63.03125,0.0,0.0,0.0
1664566808602,-1.5488281,-0.013671875,-0.4765625,-24.5625,196.53125,-7.59375,0.0,0.0,0.0
1664566808642,-0.6464844,0.39257812,0.6357422,149.59375,41.0625,-28.46875,0.0,0.0,0.0
1664566808682,-0.55078125,0.22070312,-0.13476562,-47.25,125.28125,-42.5,0.0,0.0,0.0
1664566808723,-0.79296875,-0.17285156,-0.034179688,-10.625,119.90625,-17.53125,0.0,0.0,0.0
1664566808762,-0.71875,0.1171875,0.025390625,16.65625,95.9375,6.03125,0.0,0.0,0.0
1664566808803,-0.9003906,0.12011719,0.2421875,31.25,76.65625,25.25,0.0,0.0,0.0
1664566808842,-0.96972656,0.052734375,0.28710938,-18.5,71.34375,19.9375,0.0,0.0,0.0
1664566808883,-1.2353516,0.09472656,0.15527344,-13.625,68.40625,32.5625,0.0,0.0,0.0
1664566808925,-1.4462891,-0.36523438,0.115234375,-33.53125,17.0,16.90625,0.0,0.0,0.0
1664566808963,-1.5009766,-0.24902344,0.18945312,-20.46875,-16.1875,-15.34375,-76.375,-5.8125,-165.375
1664566809002,-1.3623047,-0.01953125,-0.16308594,-4.03125,-49.5,-32.125,0.0,0.0,0.0
1664566809042,-0.71972656,0.21484375,0.044921875,84.28125,-96.28125,-46.71875,0.0,0.0,0.0
1664566809082,-1.5908203,-0.048828125,-0.076171875,36.125,-81.375,-77.21875,0.0,0.0,0.0
1664566809123,-1.6259766,0.47851562,-0.17871094,-41.75,-92.84375,-49.75,0.0,0.0,0.0
1664566809164,-1.0517578,0.74121094,0.12988281,35.4375,-109.4375,-11.625,0.0,0.0,0.0
1664566809202,-0.7783203,-0.00390625,-0.1015625,-110.375,-175.78125,28.90625,0.0,0.0,0.0
1664566809242,-0.6513672,0.0126953125,-0.037109375,-25.34375,-77.78125,-21.125,0.0,0.0,0.0
1664566809282,-0.4404297,0.064453125,-0.028320312,55.15625,-54.09375,-29.0625,0.0,0.0,0.0
1664566809322,-0.36328125,0.12695312,0.017578125,50.28125,-26.5,-11.0,0.0,0.0,0.0
1664566809363,-0.37402344,0.07324219,0.078125,44.125,19.09375,12.5,0.0,0.0,0.0
1664566809402,-0.6347656,-0.02734375,0.6699219,41.5625,51.0,49.375,0.0,0.0,0.0
1664566809442,-1.7431641,0.12109375,0.9667969,5.21875,18.90625,19.625,-96.0,-8.1875,-136.375
1664566809483,-1.1806641,-0.0703125,1.3417969,-89.8125,-25.71875,-59.84375,0.0,0.0,0.0
1664566809522,-1.0703125,-0.17578125,0.6542969,-26.625,-21.25,-8.3125,0.0,0.0,0.0
1664566809562,-1.328125,0.7089844,-0.33496094,56.1875,139.15625,30.6875,0.0,0.0,0.0
1664566809602,-0.6279297,0.51171875,-0.01171875,24.9375,-29.0625,27.6875,0.0,0.0,0.0
1664566809642,-1.3164062,-0.051757812,-0.34179688,-11.5,43.8125,62.25,0.0,0.0,0.0
1664566809683,-1.3339844,-0.19921875,-0.15136719,-17.71875,100.5625,-29.75,0.0,0.0,0.0
1664566809722,-0.80078125,0.3876953,0.35253906,42.34375,82.3125,-30.96875,0.0,0.0,0.0
1664566809762,-0.43066406,0.30078125,-0.060546875,-76.375,140.625,-33.46875,0.0,0.0,0.0
1664566809803,-0.8935547,0.05078125,0.22949219,-6.125,83.34375,18.125,0.0,0.0,0.0
1664566809844,-0.7558594,-0.14453125,0.0126953125,-30.59375,86.59375,9.9375,0.0,0.0,0.0
1664566809882,-0.79003906,0.07128906,0.28222656,-4.96875,37.8125,20.0625,0.0,0.0,0.0
1664566809923,-0.9140625,-0.057617188,0.08984375,-18.21875,67.78125,23.71875,0.0,0.0,0.0
1664566809962,-1.3085938,0.0107421875,0.20019531,-40.78125,69.1875,22.4375,-73.625,-12.875,-166.5625
1664566810002,-1.4335938,-0.35253906,0.12890625,-36.75,25.25,6.28125,0.0,0.0,0.0
1664566810043,-1.4921875,0.016601562,0.119140625,-42.3125,-24.1875,-19.0625,0.0,0.0,0.0
1664566810082,-1.3300781,0.10644531,-0.28710938,-30.03125,-72.53125,-20.40625,0.0,0.0,0.0
1664566810122,-0.73339844,0.140625,0.0048828125,31.78125,-103.96875,-46.40625,0.0,0.0,0.0
1664566810162,-1.8242188,0.04296875,0.044921875,0.78125,-93.53125,-53.25,0.0,0.0,0.0
1664566810202,-1.5693359,0.4658203,-0.10058594,-95.0,-117.875,-15.8125,0.0,0.0,0.0
1664566810243,-1.0058594,0.37402344,0.10839844,-54.46875,-152.59375,-9.125,0.0,0.0,0.0
1664566810283,-0.6845703,-0.17480469,0.10839844,-115.75,-138.875,-3.125,0.0,0.0,0.0
1664566810322,-0.47558594,-0.0703125,-0.14648438,88.375,-60.5625,-37.4375,0.0,0.0,0.0
1664566810363,-0.32714844,0.15917969,-0.08300781,105.875,-37.5,-37.5,0.0,0.0,0.0
1664566810402,-0.203125,0.171875,0.0107421875,82.4375,0.71875,-11.0,0.0,0.0,0.0
1664566810443,-0.42773438,-0.072265625,0.4873047,66.03125,46.375,17.1875,-106.1875,5.875,-133.6875
1664566810483,-1.1494141,-0.04296875,0.3935547,-0.375,34.78125,34.15625,0.0,0.0,0.0
1664566810522,-1.6035156,0.17285156,1.6972656,107.40625,-88.09375,-14.1875,0.0,0.0,0.0
1664566810562,-0.89746094,-0.2783203,0.9033203,-44.875,-6.1875,-36.75,0.0,0.0,0.0
1664566810602,-1.0322266,-0.043945312,0.3359375,3.15625,-17.53125,-14.71875,0.0,0.0,0.0
1664566810642,-1.1669922,0.7363281,-0.3544922,88.5,147.625,36.3125,0.0,0.0,0.0
1664566810682,-1.0253906,0.7236328,0.3388672,-24.6875,-39.3125,53.8125,0.0,0.0,0.0
1664566810723,-0.92089844,-0.0234375,-0.21289062,2.59375,-9.34375,63.28125,0.0,0.0,0.0
1664566810761,-1.3447266,-0.21289062,-0.5341797,-58.65625,183.09375,-68.5625,0.0,0.0,0.0
1664566810802,-0.9794922,0.33984375,0.46679688,105.40625,35.9375,-20.09375,0.0,0.0,0.0
1664566810842,-0.4794922,0.31933594,-0.08300781,-56.46875,130.78125,-28.875,0.0,0.0,0.0
1664566810882,-0.8261719,0.01953125,0.0703125,1.03125,98.8125,12.25,0.0,0.0,0.0
1664566810922,-0.7597656,-0.08105469,-0.018554688,-49.75,102.15625,7.25,0.0,0.0,0.0
1664566810962,-0.8876953,0.095703125,0.23925781,-19.59375,68.84375,24.09375,-81.4375,-12.25,-150.8125
1664566811002,-1.0322266,-0.13476562,0.022460938,-6.53125,64.625,30.3125,0.0,0.0,0.0
1664566811043,-1.34375,0.040039062,0.16210938,-8.8125,61.03125,29.53125,0.0,0.0,0.0
1664566811083,-1.3417969,-0.27441406,0.1328125,-30.65625,7.5,5.90625,0.0,0.0,0.0
1664566811125,-1.4589844,0.14941406,0.2939453,-42.0,-11.3125,-15.625,0.0,0.0,0.0
1664566811163,-1.4052734,-0.029296875,-0.017578125,-38.65625,-45.0,-13.125,0.0,0.0,0.0
1664566811203,-0.49023438,-0.18945312,-0.24316406,22.625,-69.03125,-46.40625,0.0,0.0,0.0
1664566811243,-1.8759766,0.1640625,9.765625E-4,87.875,-101.6875,-52.625,0.0,0.0,0.0
1664566811282,-1.59375,0.61035156,-0.09667969,-91.03125,-127.8125,-2.59375,0.0,0.0,0.0
1664566811323,-0.94921875,0.32226562,0.1640625,-61.0,-120.75,-10.625,0.0,0.0,0.0
1664566811362,-0.625,0.080078125,-0.22753906,-80.09375,-132.59375,18.28125,0.0,0.0,0.0
1664566811404,-0.8027344,-0.16699219,0.07324219,-30.03125,-113.1875,-5.625,0.0,0.0,0.0
1664566811442,-0.43652344,0.12695312,0.08691406,62.125,-51.46875,-55.5,-88.0625,-19.625,-152.3125
1664566811485,-0.20996094,0.28222656,-0.032226562,102.65625,-9.0,-25.84375,0.0,0.0,0.0
1664566811522,-0.3984375,-0.022460938,0.31640625,86.15625,26.78125,2.0625,0.0,0.0,0.0
1664566811562,-0.828125,-0.12109375,0.4453125,9.125,86.71875,33.625,0.0,0.0,0.0
1664566811602,-1.9775391,0.34960938,1.1074219,74.625,1.375,25.75,0.0,0.0,0.0
1664566811642,-1.0859375,-0.08984375,1.4726562,-52.1875,-18.75,-58.1875,0.0,0.0,0.0
1664566811683,-1.4511719,-0.10644531,0.45898438,-108.53125,-9.15625,-27.90625,0.0,0.0,0.0
1664566811722,-1.2431641,0.5517578,-0.56347656,118.09375,152.21875,53.5,0.0,0.0,0.0
1664566811764,-0.0390625,0.5517578,0.08105469,15.375,-91.5625,38.25,0.0,0.0,0.0
1664566811802,-1.8369141,0.07910156,-0.5546875,-107.125,233.4375,36.90625,0.0,0.0,0.0
1664566811842,-0.9980469,-0.22363281,-0.09765625,36.375,24.875,-0.5,0.0,0.0,0.0
1664566811881,-0.9433594,0.30664062,0.16894531,33.1875,94.90625,-11.71875,0.0,0.0,0.0
1664566811922,-0.55566406,0.1796875,0.13476562,-4.96875,124.9375,-30.15625,0.0,0.0,0.0
1664566811962,-0.7597656,-0.16308594,-0.12890625,-43.71875,108.5625,-15.59375,-97.9375,-7.625,-141.8125
1664566812002,-0.79589844,0.119140625,0.12011719,37.21875,82.25,11.40625,0.0,0.0,0.0
1664566812042,-0.7832031,-9.765625E-4,0.3388672,-48.34375,49.65625,17.1875,0.0,0.0,0.0
1664566812083,-0.92285156,-0.17675781,0.0,-4.03125,80.0,27.8125,0.0,0.0,0.0
1664566812123,-1.4003906,0.15429688,0.2529297,16.40625,67.3125,20.3125,0.0,0.0,0.0
1664566812162,-1.4931641,-0.34277344,0.13476562,-26.9375,16.59375,4.0,0.0,0.0,0.0
1664566812202,-1.5644531,-0.0546875,0.053710938,-14.40625,-41.15625,-6.1875,0.0,0.0,0.0
1664566812243,-1.2841797,0.047851562,-0.17285156,-7.65625,-78.09375,-17.03125,0.0,0.0,0.0
1664566812282,-0.58984375,0.41308594,0.09765625,28.96875,-100.53125,-41.34375,0.0,0.0,0.0
1664566812322,-1.6708984,0.024414062,-0.080078125,-20.53125,-93.21875,-57.9375,0.0,0.0,0.0
1664566812364,-1.5878906,0.46679688,-0.087890625,-51.90625,-120.625,-16.4375,0.0,0.0,0.0
1664566812403,-0.9589844,0.31835938,0.13867188,-29.375,-138.03125,-9.96875,0.0,0.0,0.0
1664566812442,-0.7128906,-0.0625,0.18359375,-67.53125,-169.8125,-9.84375,-85.0625,-21.25,-157.6875
1664566812483,-0.51660156,0.0068359375,-0.12011719,21.40625,-54.40625,-48.21875,0.0,0.0,0.0
1664566812522,-0.42578125,0.12597656,0.005859375,77.4375,-44.9375,-50.1875,0.0,0.0,0.0
1664566812562,-0.25195312,0.16796875,0.0126953125,73.34375,4.6875,-15.9375,0.0,0.0,0.0
1664566812602,-0.42285156,-0.13378906,0.4091797,62.71875,32.09375,8.90625,0.0,0.0,0.0
1664566812642,-0.96191406,0.026367188,0.52441406,-8.375,41.78125,27.375,0.0,0.0,0.0
1664566812683,-1.8056641,0.34375,1.28125,61.6875,17.6875,39.34375,0.0,0.0,0.0
1664566812722,-1.0947266,-0.3720703,1.1123047,-45.125,10.96875,-41.53125,0.0,0.0,0.0
1664566812762,-1.4873047,0.06347656,0.59765625,-61.34375,52.71875,-28.65625,0.0,0.0,0.0
1664566812802,-1.1367188,0.5683594,-0.6904297,40.5,141.71875,13.40625,0.0,0.0,0.0
1664566812843,-0.19921875,0.7910156,0.43554688,74.5625,-139.125,62.96875,0.0,0.0,0.0
1664566812883,-1.5039062,-0.3125,-0.7529297,-140.03125,207.375,31.25,0.0,0.0,0.0
1664566812922,-1.1103516,-0.1875,0.45507812,89.28125,-16.6875,-1.0,0.0,0.0,0.0
1664566812962,-0.7294922,0.10644531,-0.33691406,1.21875,113.5,-31.4375,-108.0,-1.3125,-135.625
1664566813005,-0.52441406,0.33691406,0.123046875,46.90625,115.78125,-11.125,0.0,0.0,0.0
1664566813043,-0.78125,0.044921875,-0.0068359375,11.40625,110.09375,0.90625,0.0,0.0,0.0
1664566813083,-0.8203125,0.06738281,0.13574219,14.21875,84.09375,21.96875,0.0,0.0,0.0
1664566813122,-0.9121094,0.0078125,0.28027344,-17.09375,72.625,27.8125,0.0,0.0,0.0
1664566813163,-1.1328125,0.09765625,0.083984375,-1.78125,66.03125,30.5,0.0,0.0,0.0
1664566813202,-1.3066406,-0.30273438,0.055664062,-36.5,16.9375,31.0625,0.0,0.0,0.0
1664566813243,-1.3378906,-0.140625,0.12988281,-23.5625,-3.4375,-7.46875,0.0,0.0,0.0
1664566813282,-1.6708984,0.055664062,0.032226562,-15.15625,-31.4375,-25.78125,0.0,0.0,0.0
1664566813322,-0.8359375,0.2841797,-0.19921875,12.875,-82.78125,-32.1875,0.0,0.0,0.0
1664566813363,-1.2109375,0.026367188,-0.20214844,-8.3125,-95.28125,-75.875,0.0,0.0,0.0
1664566813402,-1.7050781,0.37695312,-0.026367188,-6.125,-98.21875,-45.5,0.0,0.0,0.0
1664566813442,-1.1748047,0.56933594,0.009765625,-61.84375,-135.5625,-10.8125,-76.1875,-18.875,-148.875
1664566813482,-0.81347656,0.038085938,0.20605469,-98.71875,-158.9375,3.34375,0.0,0.0,0.0
1664566813522,-0.5683594,-0.03125,-0.0546875,-17.46875,-104.9375,-13.6875,0.0,0.0,0.0
1664566813562,-0.5048828,0.00390625,-0.0078125,83.3125,-54.9375,-38.65625,0.0,0.0,0.0
