# Sensor type: Respeck
# Activity type: Sitting bent forward
# Activity code: 4
# Subject id: s1912575
# Notes: 
timestamp,accel_x,accel_y,accel_z,gyro_x,gyro_y,gyro_z
1664934187430,0.40478516,-0.85040283,-0.31451416,0.015625,0.9375,-0.25
1664934187464,0.41479492,-0.8357544,-0.30255127,3.8125,0.859375,-0.484375
1664934187499,0.39892578,-0.87091064,-0.3274536,-1.015625,-2.328125,-0.15625
1664934187544,0.3786621,-0.8543091,-0.3189087,0.15625,0.921875,0.484375
1664934187579,0.39233398,-0.8550415,-0.3184204,3.234375,0.3125,0.078125
1664934187636,0.40234375,-0.8377075,-0.32867432,-0.03125,0.015625,-0.078125
1664934187660,0.40600586,-0.84552,-0.33673096,0.6875,1.0,0.5625
1664934187701,0.4182129,-0.84576416,-0.30621338,4.03125,2.375,-0.0625
1664934187735,0.41064453,-0.8508911,-0.33258057,0.203125,0.140625,-0.859375
1664934187780,0.3869629,-0.83599854,-0.3201294,-0.15625,1.125,0.171875
1664934187813,0.41918945,-0.8550415,-0.3357544,2.96875,1.609375,-1.078125
1664934187858,0.39746094,-0.83843994,-0.33721924,-1.0625,0.09375,-0.109375
1664934187892,0.38793945,-0.8550415,-0.33184814,6.84375,5.484375,-0.375
1664934187938,0.3942871,-0.86187744,-0.33966064,3.140625,4.328125,-0.375
1664934187972,0.39648438,-0.83062744,-0.33258057,1.1875,2.09375,-0.5625
1664934188020,0.37963867,-0.84991455,-0.33770752,-1.40625,-2.171875,-0.453125
1664934188050,0.3955078,-0.8491821,-0.32647705,-2.3125,-0.9375,0.46875
1664934188096,0.42700195,-0.84332275,-0.32891846,1.34375,-1.828125,-1.0
1664934188152,0.38378906,-0.8442993,-0.35455322,-4.671875,-3.359375,0.828125
1664934188174,0.39086914,-0.84381104,-0.32818604,1.640625,1.21875,-0.5625
1664934188207,0.40673828,-0.85723877,-0.317688,0.5,-1.34375,-0.25
1664934188253,0.39770508,-0.8411255,-0.3352661,-2.609375,-1.359375,0.203125
1664934188287,0.38867188,-0.8596802,-0.33673096,1.09375,-0.1875,-0.765625
1664934188331,0.3876953,-0.8550415,-0.32476807,-0.0625,0.21875,-0.203125
1664934188365,0.38842773,-0.8543091,-0.333313,0.140625,1.0625,0.40625
1664934188411,0.40576172,-0.8374634,-0.3189087,1.21875,1.1875,0.125
1664934188468,0.4128418,-0.8377075,-0.33184814,0.359375,-0.3125,0.140625
1664934188490,0.39331055,-0.8381958,-0.31207275,2.4375,0.21875,-0.46875
1664934188523,0.3881836,-0.8526001,-0.32818604,1.875,-0.5625,0.296875
1664934188568,0.40966797,-0.84381104,-0.3237915,3.25,0.421875,1.046875
1664934188602,0.38232422,-0.8399048,-0.34039307,3.84375,-0.890625,0.171875
1664934188660,0.39379883,-0.8538208,-0.33746338,0.78125,-2.125,1.234375
1664934188679,0.42919922,-0.84869385,-0.34454346,0.796875,-0.453125,-0.015625
1664934188726,0.40283203,-0.8377075,-0.34454346,1.609375,-0.703125,-0.40625
1664934188760,0.41430664,-0.83380127,-0.33770752,1.015625,-0.640625,-0.234375
1664934188805,0.4020996,-0.8389282,-0.34088135,0.9375,-0.140625,-0.265625
1664934188839,0.39282227,-0.83599854,-0.3340454,-0.125,-0.328125,0.671875
1664934188883,0.41577148,-0.8413696,-0.34698486,0.96875,0.609375,0.21875
1664934188919,0.40161133,-0.84698486,-0.33135986,2.59375,0.90625,-0.453125
1664934188963,0.40185547,-0.8389282,-0.34796143,-2.296875,0.125,-0.046875
1664934189009,0.40161133,-0.83795166,-0.3357544,0.078125,1.015625,-0.046875
1664934189042,0.4099121,-0.84625244,-0.3399048,0.1875,0.4375,-0.1875
1664934189087,0.4111328,-0.83843994,-0.34014893,-0.890625,0.140625,-0.046875
1664934189121,0.40185547,-0.8394165,-0.3352661,0.0,0.28125,-0.453125
1664934189165,0.40795898,-0.8442993,-0.34649658,-0.1875,0.078125,-0.046875
1664934189199,0.4008789,-0.8399048,-0.33355713,0.4375,0.15625,0.0625
1664934189245,0.4091797,-0.8386841,-0.3352661,0.625,-0.28125,-0.140625
1664934189278,0.40454102,-0.84454346,-0.33721924,0.453125,0.5625,0.03125
1664934189323,0.38793945,-0.84991455,-0.3242798,1.1875,0.09375,-0.015625
1664934189355,0.41918945,-0.8418579,-0.3399048,-0.625,0.59375,0.078125
1664934189400,0.41186523,-0.8369751,-0.3406372,0.25,0.375,0.015625
1664934189438,0.39868164,-0.84088135,-0.3262329,-0.140625,-0.046875,-0.109375
1664934189485,0.39624023,-0.83966064,-0.33917236,-0.8125,0.421875,0.21875
1664934189513,0.4177246,-0.8394165,-0.33843994,0.8125,0.3125,0.203125
1664934189558,0.40942383,-0.84454346,-0.32843018,-0.171875,-0.1875,0.234375
1664934189594,0.40551758,-0.8401489,-0.33184814,0.125,-0.625,0.359375
1664934189649,0.40673828,-0.84039307,-0.33551025,-0.3125,-0.03125,0.3125
1664934189684,0.40551758,-0.847229,-0.33966064,-0.3125,-0.0625,0.1875
1664934189739,0.4128418,-0.8352661,-0.31988525,1.796875,1.046875,-0.296875
1664934189751,0.40307617,-0.8447876,-0.34625244,0.09375,-0.09375,0.0
1664934189798,0.40307617,-0.83599854,-0.33624268,-2.359375,-0.296875,0.015625
1664934189830,0.39916992,-0.8460083,-0.32330322,2.5,1.84375,-0.453125
1664934189885,0.3955078,-0.83428955,-0.33966064,2.75,2.671875,-0.3125
1664934189909,0.41992188,-0.84625244,-0.3430786,5.0,3.71875,0.078125
1664934189953,0.41235352,-0.8381958,-0.3484497,4.375,2.328125,0.046875
1664934189987,0.41333008,-0.8274536,-0.35162354,3.890625,2.46875,-0.5
1664934190031,0.4033203,-0.8357544,-0.35211182,2.921875,2.15625,-0.109375
1664934190065,0.4008789,-0.8291626,-0.35894775,0.578125,0.90625,0.0
1664934190111,0.39575195,-0.83184814,-0.3591919,1.796875,1.421875,-0.234375
1664934190144,0.3972168,-0.8399048,-0.36187744,0.3125,1.265625,-0.171875
1664934190201,0.39746094,-0.835022,-0.36431885,1.390625,1.296875,-0.296875
1664934190222,0.39990234,-0.829895,-0.36358643,2.375,2.390625,-0.328125
1664934190267,0.3984375,-0.83380127,-0.36676025,2.078125,2.53125,-0.265625
1664934190301,0.4013672,-0.829895,-0.3718872,3.84375,2.75,-0.09375
1664934190345,0.39575195,-0.8311157,-0.37042236,3.796875,2.8125,-0.375
1664934190379,0.3930664,-0.8291626,-0.38360596,1.765625,1.84375,-0.140625
1664934190425,0.39624023,-0.82232666,-0.3814087,2.078125,1.34375,0.109375
1664934190457,0.3876953,-0.8230591,-0.38702393,1.046875,0.203125,-0.171875
1664934190503,0.38671875,-0.83551025,-0.38653564,0.40625,1.109375,-0.046875
1664934190535,0.3955078,-0.815979,-0.38116455,1.09375,0.625,-0.046875
1664934190581,0.37963867,-0.82403564,-0.3945923,1.015625,0.328125,0.234375
1664934190618,0.3942871,-0.82403564,-0.3977661,1.265625,1.875,0.046875
1664934190662,0.40161133,-0.8237915,-0.38458252,3.75,3.609375,-0.375
1664934190706,0.38623047,-0.8218384,-0.3928833,2.59375,1.859375,0.234375
1664934190740,0.38916016,-0.8250122,-0.39801025,1.140625,1.53125,0.125
1664934190820,0.38598633,-0.8303833,-0.4031372,-0.484375,0.578125,0.015625
1664934190823,0.38623047,-0.81329346,-0.39434814,-0.609375,-0.015625,0.234375
1664934190853,0.3947754,-0.82159424,-0.39630127,0.015625,-0.5,-0.34375
1664934190910,0.38867188,-0.82647705,-0.395813,-1.734375,-1.671875,-0.171875
1664934190929,0.38208008,-0.831604,-0.39849854,-0.15625,-0.609375,-0.359375
1664934190977,0.39233398,-0.82159424,-0.39434814,0.03125,0.0625,-0.171875
1664934191010,0.4020996,-0.8189087,-0.4024048,-0.046875,1.9375,-0.1875
1664934191056,0.38720703,-0.82769775,-0.39312744,2.328125,3.140625,-0.171875
1664934191087,0.38598633,-0.8233032,-0.39556885,1.328125,2.640625,-0.34375
1664934191133,0.38061523,-0.81866455,-0.3928833,1.40625,1.859375,-0.0625
1664934191167,0.3840332,-0.8286743,-0.3945923,1.4375,0.796875,-0.0625
1664934191224,0.38867188,-0.81988525,-0.40142822,-0.15625,-0.671875,0.078125
1664934191245,0.39013672,-0.8242798,-0.40582275,0.921875,-0.46875,0.203125
1664934191291,0.38598633,-0.81744385,-0.40045166,0.359375,-0.375,-0.109375
1664934191327,0.3852539,-0.81378174,-0.40386963,1.0625,-0.125,0.109375
1664934191371,0.38476562,-0.819397,-0.3994751,0.109375,-0.3125,-0.078125
1664934191404,0.39501953,-0.83062744,-0.39239502,1.71875,0.15625,0.25
1664934191448,0.38793945,-0.81622314,-0.40826416,-0.8125,-0.15625,0.40625
1664934191493,0.39331055,-0.8123169,-0.3953247,2.015625,1.21875,-0.171875
1664934191528,0.38623047,-0.8272095,-0.3994751,0.84375,-0.03125,0.03125
1664934191572,0.39038086,-0.8115845,-0.41119385,0.359375,0.203125,-0.15625
1664934191606,0.39086914,-0.8218384,-0.40777588,1.265625,0.484375,-0.484375
1664934191651,0.38964844,-0.82159424,-0.40289307,0.21875,-0.75,-0.046875
1664934191689,0.3881836,-0.8206177,-0.39923096,0.65625,-1.046875,-0.125
1664934191730,0.39819336,-0.8171997,-0.3953247,-1.15625,-2.328125,0.21875
1664934191761,0.38500977,-0.8088989,-0.4024048,-1.375,-1.046875,-0.015625
1664934191809,0.38916016,-0.8286743,-0.4048462,0.25,-1.359375,-0.234375
1664934191842,0.3942871,-0.81988525,-0.39093018,0.140625,-0.453125,-0.171875
1664934191887,0.39990234,-0.8237915,-0.39630127,-0.46875,-0.9375,-0.1875
1664934191921,0.39746094,-0.8220825,-0.3904419,0.609375,-0.453125,-0.203125
1664934191964,0.39916992,-0.8225708,-0.3880005,0.140625,-1.265625,-0.28125
1664934192001,0.39257812,-0.81915283,-0.38653564,0.8125,-0.96875,-0.25
1664934192045,0.39379883,-0.82940674,-0.39508057,-0.59375,-2.59375,0.03125
1664934192077,0.4008789,-0.8196411,-0.39385986,-0.984375,-2.390625,-0.28125
1664934192122,0.39501953,-0.82476807,-0.39630127,-0.21875,-1.09375,-0.046875
1664934192157,0.39990234,-0.829895,-0.3821411,0.5,-1.109375,-0.046875
1664934192202,0.39746094,-0.8245239,-0.3838501,-0.640625,-0.59375,-0.125
1664934192248,0.39697266,-0.8208618,-0.3862915,-0.484375,-0.890625,0.046875
1664934192314,0.40649414,-0.8196411,-0.3748169,-2.03125,-1.671875,-0.375
1664934192317,0.40795898,-0.8296509,-0.37335205,-0.859375,-1.15625,-0.28125
1664934192360,0.40795898,-0.82891846,-0.37945557,-1.5,-0.84375,-0.390625
1664934192392,0.40405273,-0.82525635,-0.37042236,-1.59375,-1.203125,-0.34375
1664934192438,0.39648438,-0.8262329,-0.36724854,-1.671875,-0.796875,-0.078125
1664934192473,0.4099121,-0.8308716,-0.37408447,-0.4375,-0.484375,-0.140625
1664934192518,0.40600586,-0.8279419,-0.3579712,-0.953125,-0.734375,-0.25
1664934192550,0.40014648,-0.8335571,-0.364563,-1.109375,-0.015625,-0.34375
1664934192595,0.3996582,-0.8389282,-0.3633423,-0.296875,0.109375,-0.234375
1664934192629,0.4074707,-0.8303833,-0.35821533,-1.203125,0.390625,-0.28125
1664934192674,0.40820312,-0.83062744,-0.36383057,-1.25,0.296875,-0.125
1664934192708,0.39941406,-0.83306885,-0.35894775,-0.65625,0.40625,-0.265625
1664934192753,0.40478516,-0.8364868,-0.3562622,-0.609375,0.46875,-0.375
1664934192787,0.4013672,-0.8296509,-0.3526001,-0.578125,0.4375,-0.171875
1664934192838,0.39916992,-0.833313,-0.34869385,-0.109375,0.0,-0.40625
1664934192864,0.4038086,-0.83062744,-0.35284424,-0.953125,0.75,-0.25
1664934192910,0.40698242,-0.83477783,-0.3587036,0.28125,0.375,-0.25
1664934192946,0.39648438,-0.83599854,-0.3447876,0.234375,0.4375,-0.21875
1664934193002,0.4013672,-0.82037354,-0.347229,-1.75,0.125,0.109375
1664934193023,0.39501953,-0.8374634,-0.3513794,2.015625,1.515625,-0.0625
1664934193068,0.41748047,-0.83551025,-0.35577393,-1.90625,-0.09375,-0.265625
1664934193101,0.40820312,-0.8323364,-0.33721924,0.21875,0.71875,-0.75
1664934193149,0.3972168,-0.84039307,-0.34820557,0.34375,0.578125,-0.390625
1664934193181,0.40478516,-0.8374634,-0.34820557,-0.484375,0.828125,0.078125
1664934193226,0.40698242,-0.8413696,-0.35455322,-0.15625,0.03125,-0.46875
1664934193269,0.40161133,-0.8364868,-0.34991455,-0.4375,-0.171875,-0.375
1664934193305,0.3947754,-0.8352661,-0.34918213,0.984375,1.125,-0.3125
1664934193338,0.39770508,-0.84039307,-0.35064697,1.015625,0.953125,-0.140625
1664934193384,0.39672852,-0.8386841,-0.348938,0.0625,1.125,-0.3125
1664934193417,0.40185547,-0.847229,-0.347229,1.234375,0.90625,-0.1875
1664934193463,0.39892578,-0.83428955,-0.3496704,0.15625,0.8125,-0.5
1664934193497,0.39575195,-0.8406372,-0.3508911,0.28125,0.4375,-0.28125
1664934193543,0.40161133,-0.8460083,-0.35406494,-0.0625,0.296875,-0.125
1664934193598,0.3942871,-0.8352661,-0.35284424,0.265625,1.09375,-0.390625
1664934193620,0.39453125,-0.83428955,-0.3484497,0.109375,0.375,-0.125
1664934193654,0.40551758,-0.8406372,-0.3477173,0.078125,0.328125,-0.234375
1664934193697,0.39135742,-0.8345337,-0.35113525,0.828125,0.65625,-0.25
1664934193733,0.40039062,-0.83673096,-0.3538208,0.015625,0.328125,-0.078125
1664934193777,0.39794922,-0.8399048,-0.3460083,0.296875,-0.0625,-0.40625
1664934193811,0.39624023,-0.8418579,-0.3550415,0.53125,0.640625,0.0
1664934193856,0.39746094,-0.8352661,-0.34674072,-0.59375,0.515625,0.0
1664934193901,0.39794922,-0.8406372,-0.34527588,2.359375,0.34375,-0.09375
1664934193935,0.38989258,-0.8357544,-0.36846924,-2.5625,-0.3125,-0.1875
1664934193981,0.40014648,-0.8430786,-0.33917236,1.09375,1.046875,-0.3125
1664934194014,0.39404297,-0.84259033,-0.3501587,0.765625,-0.0625,-0.15625
1664934194093,0.39624023,-0.8352661,-0.34991455,0.046875,0.78125,-0.125
1664934194095,0.4025879,-0.8442993,-0.3496704,0.515625,0.4375,-0.03125
1664934194172,0.38916016,-0.8389282,-0.34918213,0.15625,0.078125,-0.078125
1664934194175,0.39086914,-0.8460083,-0.34869385,0.9375,0.75,-0.078125
1664934194217,0.39575195,-0.8394165,-0.34991455,0.640625,0.296875,0.171875
1664934194250,0.39575195,-0.8406372,-0.3399048,-0.0625,0.34375,-0.046875
1664934194296,0.39379883,-0.8428345,-0.34942627,0.671875,0.71875,-0.015625
1664934194329,0.40063477,-0.84259033,-0.3513794,0.15625,0.84375,0.015625
1664934194374,0.39013672,-0.8286743,-0.3550415,0.421875,0.171875,-0.3125
1664934194407,0.3955078,-0.84210205,-0.34576416,-0.125,-0.03125,0.265625
1664934194452,0.4033203,-0.8460083,-0.34625244,0.515625,-0.078125,-0.25
1664934194499,0.39331055,-0.8411255,-0.3435669,-0.125,-0.5,-0.171875
1664934194531,0.39257812,-0.8460083,-0.35357666,-0.625,-1.0625,0.046875
1664934194566,0.39990234,-0.8442993,-0.34332275,-0.28125,-0.953125,-0.171875
1664934194611,0.39331055,-0.84747314,-0.3394165,0.078125,-1.5,0.078125
1664934194642,0.4020996,-0.8428345,-0.3460083,-3.453125,-3.203125,0.1875
1664934194688,0.3972168,-0.84259033,-0.34991455,-2.078125,-0.625,0.109375
1664934194722,0.41577148,-0.83966064,-0.33258057,0.890625,0.84375,-0.203125
1664934194767,0.39379883,-0.8357544,-0.32965088,-1.015625,-0.53125,-0.140625
1664934194799,0.40014648,-0.8447876,-0.3381958,1.40625,0.078125,0.0625
1664934194858,0.41455078,-0.8386841,-0.34503174,-2.15625,-0.234375,0.109375
1664934194880,0.39697266,-0.84747314,-0.32061768,1.078125,0.71875,-0.484375
1664934194925,0.4050293,-0.85650635,-0.3345337,-1.921875,-0.75,0.328125
1664934194958,0.3972168,-0.84088135,-0.32818604,-1.828125,0.734375,-0.125
1664934195002,0.40014648,-0.84942627,-0.32965088,-0.578125,0.796875,-0.09375
1664934195037,0.4013672,-0.848938,-0.32598877,-0.078125,0.640625,0.0625
1664934195082,0.40625,-0.84747314,-0.3242798,0.953125,0.46875,0.015625
1664934195115,0.3984375,-0.8521118,-0.3213501,-0.5,-0.125,0.140625
1664934195159,0.4013672,-0.8543091,-0.31573486,-0.9375,-0.421875,-0.296875
1664934195195,0.3984375,-0.850647,-0.32452393,-0.84375,-0.265625,0.234375
1664934195240,0.40283203,-0.8430786,-0.3171997,-0.375,-0.140625,0.21875
1664934195272,0.40844727,-0.847229,-0.31695557,-0.140625,-0.203125,-0.234375
1664934195319,0.39794922,-0.850647,-0.3213501,-0.59375,-0.734375,0.078125
1664934195376,0.4025879,-0.84576416,-0.31695557,0.578125,-0.140625,0.078125
1664934195399,0.41137695,-0.84747314,-0.31793213,0.609375,0.125,0.0
1664934195429,0.4025879,-0.85357666,-0.3164673,0.109375,-0.640625,0.1875
1664934195475,0.40454102,-0.8442993,-0.32183838,0.25,-0.078125,0.234375
1664934195510,0.40698242,-0.85284424,-0.32086182,-0.09375,-0.375,0.25
1664934195555,0.4086914,-0.8460083,-0.3086548,1.546875,-0.203125,0.0
1664934195588,0.39672852,-0.8484497,-0.31427002,-0.359375,-0.4375,-0.015625
1664934195633,0.40698242,-0.84576416,-0.32476807,-0.28125,-0.0625,0.03125
1664934195713,0.40478516,-0.847229,-0.30889893,1.5,0.265625,0.125
1664934195715,0.4038086,-0.84259033,-0.32208252,-1.234375,-0.171875,0.09375
1664934195744,0.4104004,-0.84991455,-0.3123169,0.0,-0.703125,-0.25
1664934195790,0.4013672,-0.8467407,-0.31304932,0.34375,-0.03125,-0.15625
1664934195825,0.40551758,-0.84088135,-0.3106079,-1.625,-0.53125,-0.125
1664934195872,0.41503906,-0.8526001,-0.3081665,0.484375,0.0,-0.296875
1664934195903,0.40820312,-0.84698486,-0.31329346,-0.8125,-0.5625,-0.375
1664934195948,0.41601562,-0.850647,-0.3040161,1.828125,0.859375,-0.640625
1664934195983,0.4025879,-0.84869385,-0.30133057,0.03125,0.078125,-0.34375
1664934196028,0.40063477,-0.84869385,-0.30889893,-0.375,0.640625,-0.0625
1664934196061,0.40234375,-0.8484497,-0.30963135,1.171875,1.375,-0.125
1664934196105,0.4116211,-0.85723877,-0.30181885,0.328125,0.9375,-0.5
1664934196162,0.3996582,-0.8452759,-0.30377197,0.125,0.6875,-0.328125
1664934196188,0.3947754,-0.8562622,-0.3098755,0.734375,0.421875,-0.09375
1664934196219,0.41137695,-0.8599243,-0.30914307,-0.09375,0.75,-0.078125
1664934196264,0.40698242,-0.8567505,-0.31500244,0.078125,0.53125,0.0625
1664934196299,0.40673828,-0.84942627,-0.31158447,0.40625,0.734375,0.046875
1664934196343,0.4033203,-0.85650635,-0.3147583,0.640625,0.765625,-0.140625
1664934196389,0.39746094,-0.8435669,-0.31085205,0.53125,0.328125,-0.109375
1664934196449,0.40454102,-0.8604126,-0.31549072,0.8125,1.046875,-0.125
1664934196500,0.39990234,-0.84503174,-0.3123169,-0.03125,0.90625,0.03125
1664934196503,0.40185547,-0.8562622,-0.31695557,0.84375,0.953125,-0.03125
1664934196543,0.40649414,-0.85772705,-0.31671143,0.125,0.484375,0.03125
1664934196577,0.40234375,-0.848938,-0.3093872,1.515625,0.890625,-0.203125
1664934196622,0.39257812,-0.8545532,-0.31988525,0.171875,0.46875,-0.046875
1664934196656,0.40966797,-0.850647,-0.31793213,-1.15625,0.203125,-0.1875
1664934196700,0.40551758,-0.8604126,-0.30548096,2.03125,0.84375,-0.34375
1664934196734,0.39819336,-0.8508911,-0.3184204,-0.265625,0.796875,-0.109375
1664934196779,0.40307617,-0.85528564,-0.31793213,1.171875,1.265625,-0.234375
1664934196825,0.39819336,-0.8508911,-0.3189087,0.953125,0.84375,-0.109375
1664934196862,0.40698242,-0.8428345,-0.3135376,0.609375,0.734375,-0.1875
1664934196894,0.4013672,-0.850647,-0.31451416,0.5625,0.84375,-0.109375
1664934196938,0.40405273,-0.8533325,-0.3189087,1.125,0.65625,0.375
1664934196973,0.39770508,-0.8513794,-0.31549072,0.5,0.8125,-0.15625
1664934197018,0.4008789,-0.8491821,-0.3255005,0.703125,0.46875,-0.28125
1664934197051,0.39990234,-0.8452759,-0.31500244,0.75,0.78125,-0.078125
1664934197096,0.39526367,-0.8562622,-0.31915283,0.1875,0.5625,-0.078125
1664934197130,0.40014648,-0.8467407,-0.31793213,1.328125,1.09375,-0.125
1664934197175,0.39892578,-0.8521118,-0.32696533,0.28125,0.734375,-0.25
1664934197208,0.4020996,-0.84625244,-0.32232666,1.0625,0.671875,0.0625
1664934197254,0.40063477,-0.8442993,-0.32696533,0.25,0.609375,0.078125
1664934197287,0.3984375,-0.84088135,-0.3262329,0.703125,0.796875,-0.09375
1664934197332,0.4091797,-0.85235596,-0.31939697,0.671875,0.21875,-0.046875
1664934197366,0.3869629,-0.84454346,-0.31866455,-0.796875,-0.359375,0.0625
1664934197424,0.4033203,-0.8452759,-0.33062744,-0.21875,0.15625,0.296875
1664934197445,0.39916992,-0.8518677,-0.3213501,0.828125,0.734375,-0.0625
1664934197490,0.39746094,-0.85113525,-0.31378174,-0.3125,-0.78125,-0.25
1664934197523,0.40649414,-0.85113525,-0.32061768,1.5625,-0.109375,-0.078125
1664934197569,0.40942383,-0.8521118,-0.32696533,-1.859375,-0.921875,0.09375
1664934197602,0.40429688,-0.8479614,-0.31549072,-0.03125,-0.3125,-0.265625
1664934197648,0.39868164,-0.8567505,-0.31793213,-0.640625,-0.6875,-0.1875
1664934197680,0.4169922,-0.84625244,-0.31427002,-0.6875,0.328125,0.09375
1664934197726,0.4025879,-0.8496704,-0.32330322,-0.34375,0.09375,-0.21875
1664934197760,0.4104004,-0.84820557,-0.3069458,0.578125,0.046875,-0.078125
1664934197805,0.3959961,-0.8530884,-0.315979,0.625,-0.03125,-0.53125
1664934197839,0.40527344,-0.84991455,-0.3147583,0.984375,0.109375,-0.125
1664934197882,0.4091797,-0.8513794,-0.31793213,0.421875,0.5,0.25
1664934197917,0.39819336,-0.84454346,-0.3118286,0.734375,-0.046875,-0.40625
1664934197963,0.40454102,-0.85479736,-0.3147583,-0.140625,0.046875,0.109375
1664934197995,0.4086914,-0.85357666,-0.31329346,0.640625,0.671875,0.09375
1664934198039,0.40795898,-0.848938,-0.31378174,0.78125,-0.125,-0.296875
1664934198074,0.40234375,-0.8533325,-0.31695557,-0.265625,-0.375,0.125
1664934198120,0.4086914,-0.84942627,-0.30963135,-0.46875,-0.59375,0.21875
1664934198153,0.40454102,-0.84747314,-0.31207275,-1.53125,-1.21875,0.09375
1664934198197,0.39868164,-0.85357666,-0.30889893,-3.609375,-1.53125,0.359375
1664934198232,0.41552734,-0.84869385,-0.30010986,-1.203125,-0.875,0.1875
1664934198279,0.3935547,-0.8567505,-0.3045044,-0.640625,-0.859375,-0.125
1664934198310,0.41455078,-0.85113525,-0.3008423,-0.625,-0.65625,0.203125
1664934198356,0.40844727,-0.8609009,-0.29888916,0.21875,-0.4375,0.09375
1664934198390,0.40551758,-0.84625244,-0.29083252,0.1875,-0.359375,-0.078125
1664934198436,0.4086914,-0.86260986,-0.30474854,-0.375,-0.234375,0.4375
1664934198467,0.41015625,-0.85528564,-0.2966919,-0.171875,-0.5625,-0.265625
1664934198512,0.4074707,-0.86553955,-0.2888794,1.671875,0.203125,-0.3125
1664934198547,0.40893555,-0.84454346,-0.29937744,-0.921875,-0.40625,0.359375
1664934198594,0.4128418,-0.8518677,-0.29644775,0.78125,0.40625,-0.265625
1664934198625,0.40844727,-0.848938,-0.29205322,0.296875,0.03125,-0.078125
1664934198670,0.41015625,-0.85772705,-0.2962036,0.5625,0.1875,-0.140625
1664934198727,0.41381836,-0.8557739,-0.2942505,0.953125,0.09375,-0.171875
1664934198752,0.40429688,-0.8526001,-0.29644775,0.171875,1.0,0.03125
1664934198806,0.40966797,-0.85650635,-0.29351807,0.875,0.21875,-0.25
1664934198827,0.41552734,-0.8633423,-0.2954712,0.703125,0.8125,-0.015625
1664934198873,0.40942383,-0.8508911,-0.2962036,0.3125,0.46875,-0.15625
1664934198908,0.4140625,-0.8543091,-0.29571533,0.640625,0.109375,-0.234375
1664934198955,0.4091797,-0.84747314,-0.2966919,0.5,0.71875,-0.125
1664934198985,0.41503906,-0.85528564,-0.2979126,0.890625,0.265625,-0.046875
1664934199068,0.41064453,-0.8557739,-0.29522705,0.203125,-0.015625,0.0625
1664934199070,0.40893555,-0.8526001,-0.300354,0.609375,0.859375,-0.15625
1664934199110,0.4140625,-0.86260986,-0.3032837,1.125,0.703125,0.140625
1664934199141,0.40673828,-0.85772705,-0.29473877,0.28125,0.21875,0.09375
1664934199211,0.40966797,-0.8587036,-0.2966919,1.265625,0.84375,-0.21875
1664934199221,0.41235352,-0.84576416,-0.2913208,0.578125,0.5625,-0.0625
1664934199269,0.41552734,-0.85723877,-0.30523682,1.703125,0.734375,-0.140625
1664934199322,0.41455078,-0.8530884,-0.30133057,-1.03125,-0.046875,-0.296875
1664934199345,0.41015625,-0.8508911,-0.3032837,1.28125,0.828125,-0.265625
1664934199380,0.4091797,-0.8513794,-0.29986572,0.671875,0.765625,-0.125
1664934199426,0.4152832,-0.85650635,-0.30108643,0.890625,0.8125,0.015625
1664934199459,0.40356445,-0.84820557,-0.30889893,0.171875,0.640625,-0.4375
1664934199502,0.41577148,-0.850647,-0.30426025,0.796875,0.8125,0.140625
1664934199538,0.40454102,-0.8508911,-0.29962158,0.765625,0.421875,-0.25
1664934199583,0.40527344,-0.8530884,-0.30670166,1.203125,0.859375,0.03125
1664934199615,0.40039062,-0.85162354,-0.30230713,-0.125,0.109375,-0.03125
1664934199661,0.40625,-0.85040283,-0.29864502,2.109375,0.796875,-0.390625
1664934199694,0.41601562,-0.8530884,-0.30499268,0.40625,0.875,0.015625
1664934199741,0.39697266,-0.85650635,-0.3045044,0.796875,0.390625,-0.171875
1664934199774,0.41845703,-0.85650635,-0.3086548,0.65625,0.40625,-0.125
1664934199819,0.4020996,-0.85113525,-0.31036377,0.78125,0.984375,-0.046875
1664934199852,0.4091797,-0.85113525,-0.3123169,0.46875,-0.046875,0.171875
1664934199898,0.41357422,-0.848938,-0.31036377,0.90625,0.21875,-0.015625
1664934199930,0.41186523,-0.848938,-0.3069458,1.21875,0.171875,-0.0625
1664934199989,0.40014648,-0.8428345,-0.31011963,1.109375,0.0,-0.015625
1664934200009,0.40649414,-0.8518677,-0.31036377,0.609375,0.1875,0.015625
1664934200054,0.39916992,-0.84576416,-0.30743408,-0.234375,-0.234375,-0.03125
1664934200088,0.40625,-0.8479614,-0.31402588,0.65625,0.03125,-0.015625
1664934200134,0.4165039,-0.84161377,-0.30474854,2.421875,1.265625,-0.078125
1664934200168,0.40527344,-0.8538208,-0.31549072,-1.15625,-0.078125,-0.171875
1664934200212,0.40356445,-0.8440552,-0.30499268,0.5,0.734375,-0.578125
1664934200247,0.40405273,-0.85406494,-0.30718994,0.890625,0.65625,-0.203125
1664934200292,0.41210938,-0.85162354,-0.30792236,-0.28125,-0.140625,-0.15625
1664934200325,0.40307617,-0.85040283,-0.31134033,-0.34375,-0.390625,-0.515625
1664934200370,0.4099121,-0.8526001,-0.31500244,-0.625,-0.546875,-0.34375
1664934200402,0.41064453,-0.8496704,-0.315979,1.296875,0.421875,-0.34375
1664934200449,0.4008789,-0.84747314,-0.30499268,0.390625,0.0625,-0.3125
1664934200482,0.40820312,-0.8518677,-0.3086548,-0.015625,0.96875,-0.296875
1664934200527,0.39941406,-0.847229,-0.31378174,1.421875,1.4375,-0.53125
1664934200560,0.3996582,-0.86016846,-0.3147583,2.28125,3.09375,-0.4375
1664934200605,0.40356445,-0.8508911,-0.31304932,1.25,2.40625,-0.4375
1664934200639,0.40161133,-0.84747314,-0.30426025,1.265625,0.703125,-0.53125
1664934200684,0.39160156,-0.8533325,-0.31427002,0.828125,0.34375,-0.015625
1664934200717,0.40478516,-0.8538208,-0.32086182,0.203125,0.5625,0.15625
1664934200762,0.40161133,-0.8513794,-0.32598877,0.921875,0.125,0.109375
1664934200798,0.4050293,-0.84991455,-0.32183838,0.546875,-0.015625,-0.078125
1664934200842,0.39990234,-0.85357666,-0.31402588,1.0,0.15625,-0.0625
1664934200877,0.39624023,-0.85162354,-0.3225708,0.5625,-0.296875,0.125
1664934200920,0.41015625,-0.8479614,-0.31939697,1.4375,0.078125,0.0625
1664934200956,0.40429688,-0.85162354,-0.31500244,1.484375,-0.21875,-0.046875
1664934201001,0.39526367,-0.84991455,-0.32354736,0.390625,-0.1875,0.03125
1664934201057,0.40356445,-0.84039307,-0.32305908,2.484375,0.828125,0.171875
1664934201078,0.39819336,-0.84625244,-0.32891846,-0.546875,-0.28125,0.265625
1664934201112,0.40649414,-0.8428345,-0.32354736,-0.3125,-1.015625,-0.15625
1664934201158,0.40649414,-0.8543091,-0.31573486,0.84375,-0.515625,-0.03125
1664934201191,0.4020996,-0.8430786,-0.32476807,-0.34375,-0.5,0.15625
1664934201260,0.41235352,-0.847229,-0.3201294,4.53125,2.0625,-0.421875
1664934201280,0.40234375,-0.8508911,-0.33135986,2.296875,-0.296875,-0.9375
1664934201314,0.41577148,-0.8406372,-0.33111572,1.5625,0.515625,-0.125
1664934201362,0.40649414,-0.8464966,-0.33355713,0.375,-0.046875,-0.28125
1664934201392,0.38256836,-0.8377075,-0.32818604,1.0,0.28125,-0.53125
1664934201437,0.4038086,-0.84698486,-0.33087158,-0.578125,-0.09375,-0.078125
1664934201473,0.4116211,-0.8435669,-0.3267212,0.578125,0.25,-0.484375
1664934201519,0.3918457,-0.8423462,-0.32476807,-0.0625,-0.15625,-0.109375
1664934201563,0.40771484,-0.8447876,-0.33355713,-0.8125,-0.71875,0.078125
1664934201594,0.40722656,-0.84259033,-0.32647705,0.359375,0.078125,-0.171875
1664934201630,0.39526367,-0.84698486,-0.32574463,0.015625,0.546875,0.046875
1664934201675,0.4099121,-0.8501587,-0.32354736,0.125,0.296875,0.25
1664934201708,0.40478516,-0.8447876,-0.32867432,0.203125,0.53125,-0.109375
1664934201764,0.40600586,-0.84503174,-0.3250122,0.921875,0.71875,0.265625
1664934201786,0.39648438,-0.85284424,-0.32843018,0.203125,0.28125,-0.015625
1664934201832,0.40307617,-0.8362427,-0.31915283,0.28125,1.09375,-0.03125
1664934201867,0.40063477,-0.8394165,-0.3279419,1.53125,1.21875,0.21875
1664934201909,0.40576172,-0.847229,-0.32647705,3.109375,1.5,0.046875
1664934201944,0.42138672,-0.8381958,-0.3381958,0.109375,0.484375,-0.109375
1664934201992,0.4025879,-0.8464966,-0.3320923,1.234375,0.859375,-0.0625
1664934202023,0.39819336,-0.84552,-0.33306885,1.171875,0.5625,-0.171875
1664934202083,0.40673828,-0.83477783,-0.34552002,-0.171875,0.75,-0.046875
1664934202103,0.39526367,-0.8369751,-0.33355713,-0.875,0.71875,-0.21875
1664934202148,0.40942383,-0.848938,-0.3345337,0.59375,0.375,-0.140625
1664934202181,0.39501953,-0.8377075,-0.331604,0.5625,1.3125,-0.125
1664934202226,0.39916992,-0.8447876,-0.331604,1.234375,0.953125,0.09375
1664934202263,0.40625,-0.8460083,-0.33111572,0.53125,1.765625,0.046875
1664934202306,0.40307617,-0.84625244,-0.3279419,1.921875,1.453125,-0.125
1664934202340,0.4025879,-0.84869385,-0.3357544,0.4375,0.5,0.296875
1664934202383,0.4104004,-0.8389282,-0.3381958,0.921875,0.703125,-0.171875
1664934202417,0.39868164,-0.8362427,-0.3369751,0.734375,0.421875,-0.15625
1664934202465,0.39282227,-0.85357666,-0.3423462,-0.15625,0.546875,0.078125
1664934202499,0.41357422,-0.83966064,-0.3352661,1.3125,0.796875,0.0625
1664934202540,0.3947754,-0.8381958,-0.3411255,-0.078125,0.703125,0.015625
1664934202587,0.4013672,-0.8467407,-0.3406372,0.90625,1.375,0.109375
1664934202621,0.40356445,-0.8386841,-0.34527588,0.671875,0.609375,0.046875
1664934202654,0.3996582,-0.835022,-0.3447876,0.28125,0.703125,-0.125
1664934202699,0.40405273,-0.8428345,-0.33770752,0.8125,0.75,0.078125
1664934202732,0.40625,-0.83306885,-0.34942627,0.3125,0.515625,-0.125
1664934202791,0.4020996,-0.83843994,-0.33746338,1.15625,1.140625,-0.078125
1664934202811,0.40405273,-0.8411255,-0.35064697,0.84375,1.09375,-0.171875
1664934202856,0.40112305,-0.83428955,-0.3411255,3.359375,2.15625,0.0625
1664934202890,0.39013672,-0.84381104,-0.3574829,-1.296875,0.265625,0.140625
1664934202937,0.40014648,-0.8364868,-0.3411255,0.828125,1.859375,-0.46875
1664934202969,0.40014648,-0.8538208,-0.34503174,1.40625,1.046875,-0.09375
1664934203016,0.39770508,-0.83306885,-0.3501587,-1.265625,-0.546875,-0.015625
1664934203048,0.4025879,-0.83966064,-0.3477173,0.046875,-0.46875,-0.5
1664934203102,0.3996582,-0.8464966,-0.35186768,-0.40625,-0.65625,0.0625
1664934203127,0.4013672,-0.84161377,-0.34698486,0.34375,-0.015625,0.09375
1664934203171,0.3972168,-0.83966064,-0.34429932,0.0,-0.265625,-0.046875
1664934203208,0.39135742,-0.83843994,-0.34674072,0.171875,0.03125,0.078125
1664934203250,0.4050293,-0.8440552,-0.34747314,0.671875,-0.21875,-0.34375
1664934203284,0.40039062,-0.8508911,-0.3435669,-0.375,0.25,0.0625
1664934203330,0.40795898,-0.8386841,-0.3477173,1.109375,0.265625,-0.09375
1664934203363,0.39697266,-0.8374634,-0.34381104,0.203125,-0.234375,-0.3125
1664934203409,0.40161133,-0.8430786,-0.34454346,0.03125,-0.484375,0.09375
1664934203442,0.40600586,-0.8442993,-0.34552002,0.3125,0.0,-0.109375
1664934203487,0.3984375,-0.83966064,-0.34552002,0.84375,-0.140625,0.015625
1664934203520,0.40063477,-0.83843994,-0.33746338,0.296875,-0.15625,0.046875
1664934203565,0.40063477,-0.8374634,-0.34161377,0.5625,0.171875,-0.265625
1664934203610,0.4013672,-0.84869385,-0.3430786,0.328125,-0.4375,0.15625
1664934203644,0.4033203,-0.83795166,-0.34576416,0.046875,-0.40625,-0.15625
1664934203688,0.3972168,-0.8399048,-0.34039307,-0.46875,-0.203125,-0.125
1664934203724,0.3984375,-0.8526001,-0.34088135,0.171875,-0.765625,0.0625
1664934203768,0.4086914,-0.8386841,-0.3345337,-0.234375,-0.59375,-0.09375
1664934203823,0.40698242,-0.8394165,-0.3423462,-0.34375,-0.59375,0.28125
1664934203847,0.41015625,-0.85235596,-0.32940674,-1.171875,-2.375,-0.078125
1664934203881,0.40551758,-0.8518677,-0.333313,-0.890625,-1.6875,-0.015625
1664934203959,0.40893555,-0.83551025,-0.33258057,-1.75,-0.9375,0.21875
1664934203962,0.40405273,-0.8428345,-0.33258057,0.75,-0.171875,-0.3125
1664934204016,0.40576172,-0.84747314,-0.32867432,-1.203125,-0.828125,-0.171875
1664934204038,0.4169922,-0.8460083,-0.32696533,0.234375,-0.046875,-0.1875
1664934204082,0.40478516,-0.8464966,-0.32476807,-0.265625,-0.0625,-0.125
1664934204130,0.4050293,-0.84332275,-0.33062744,-0.296875,-0.046875,0.03125
1664934204161,0.40307617,-0.84503174,-0.32061768,0.15625,0.046875,-0.3125
1664934204196,0.4074707,-0.8508911,-0.31915283,0.234375,0.71875,-0.046875
1664934204239,0.40161133,-0.8447876,-0.3267212,-0.28125,0.421875,-0.046875
1664934204273,0.40795898,-0.84088135,-0.31549072,0.203125,0.234375,-0.25
1664934204332,0.41235352,-0.8484497,-0.3237915,-0.140625,0.3125,-0.203125
1664934204354,0.40649414,-0.8513794,-0.32037354,-0.53125,0.375,-0.046875
1664934204398,0.40625,-0.85113525,-0.32183838,0.125,0.734375,-0.140625
1664934204430,0.4020996,-0.83428955,-0.32110596,0.34375,0.265625,-0.453125
1664934204474,0.40112305,-0.84625244,-0.32281494,0.53125,1.078125,-0.375
1664934204508,0.40307617,-0.848938,-0.32647705,-0.015625,0.703125,0.09375
1664934204552,0.40649414,-0.84503174,-0.32110596,0.671875,1.21875,-0.390625
1664934204587,0.41235352,-0.84698486,-0.32647705,-0.25,1.015625,-0.109375
1664934204633,0.3955078,-0.8452759,-0.31549072,2.0,1.203125,-0.078125
1664934204667,0.3984375,-0.8430786,-0.32940674,-1.046875,0.453125,0.03125
1664934204712,0.4099121,-0.84259033,-0.32232666,-1.296875,0.578125,-0.265625
1664934204745,0.40478516,-0.85284424,-0.3171997,2.0,1.46875,-0.34375
1664934204791,0.40356445,-0.8418579,-0.32305908,-0.875,0.5625,0.0625
1664934204837,0.40625,-0.84869385,-0.3291626,0.453125,1.15625,-0.15625
1664934204872,0.39868164,-0.850647,-0.32574463,0.453125,0.890625,-0.25
1664934204903,0.3996582,-0.8428345,-0.32989502,0.734375,1.625,-0.0625
1664934204949,0.40478516,-0.8567505,-0.32110596,0.546875,1.0,-0.0625
1664934204985,0.40039062,-0.84625244,-0.32281494,0.640625,0.890625,-0.0625
1664934205041,0.39990234,-0.8467407,-0.32891846,-0.015625,0.8125,-0.15625
1664934205060,0.39892578,-0.85528564,-0.32696533,0.75,0.875,0.0
1664934205116,0.40283203,-0.84698486,-0.33111572,1.546875,2.78125,-0.5
1664934205149,0.4086914,-0.84820557,-0.3201294,0.671875,1.34375,-0.421875
1664934205188,0.3876953,-0.8464966,-0.3213501,0.0,1.109375,-0.21875
1664934205220,0.39770508,-0.84503174,-0.3357544,0.03125,1.28125,-0.109375
1664934205262,0.40576172,-0.84698486,-0.33258057,0.359375,0.4375,-0.09375
1664934205296,0.39648438,-0.84698486,-0.3262329,0.296875,0.8125,-0.53125
1664934205354,0.39697266,-0.850647,-0.33013916,-0.203125,0.71875,-0.0625
1664934205377,0.39453125,-0.8477173,-0.3291626,0.75,0.6875,-0.078125
1664934205421,0.3942871,-0.8460083,-0.3255005,1.546875,1.84375,-0.203125
1664934205501,0.39038086,-0.861145,-0.33184814,1.921875,2.125,-0.15625
1664934205505,0.38916016,-0.85162354,-0.3340454,1.8125,1.78125,-0.125
1664934205534,0.39624023,-0.8357544,-0.3274536,0.359375,0.78125,-0.125
1664934205578,0.3942871,-0.8501587,-0.3345337,1.34375,0.40625,0.1875
1664934205613,0.39501953,-0.8464966,-0.34625244,-1.71875,-1.09375,-0.25
1664934205658,0.40234375,-0.84210205,-0.32989502,0.015625,-0.046875,-0.015625
1664934205691,0.3942871,-0.85113525,-0.33306885,-1.25,-1.546875,0.1875
1664934205738,0.39916992,-0.84454346,-0.3328247,-3.15625,-1.640625,-0.21875
1664934205771,0.39697266,-0.8538208,-0.32891846,-1.796875,0.15625,-0.09375
1664934205817,0.40112305,-0.86431885,-0.3279419,3.359375,1.5625,-1.5625
1664934205860,0.38989258,-0.8430786,-0.32989502,0.828125,1.03125,-0.96875
1664934205893,0.40039062,-0.8557739,-0.3345337,-2.171875,-0.140625,-0.953125
1664934205927,0.40356445,-0.8545532,-0.32232666,-1.890625,0.578125,-1.546875
1664934205979,0.38232422,-0.84747314,-0.31378174,0.390625,-0.296875,-1.28125
1664934206006,0.37280273,-0.848938,-0.30963135,-1.28125,-0.328125,0.09375
1664934206073,0.4020996,-0.850647,-0.32647705,-1.484375,-0.171875,0.015625
1664934206085,0.39086914,-0.85113525,-0.32330322,0.75,-1.203125,-0.265625
1664934206131,0.3840332,-0.8526001,-0.31427002,1.0,-1.078125,-0.015625
1664934206174,0.38745117,-0.85943604,-0.3147583,0.703125,-0.046875,0.03125
1664934206210,0.3930664,-0.85650635,-0.31622314,0.796875,-0.8125,0.296875
1664934206289,0.39672852,-0.8369751,-0.31524658,1.0625,-0.46875,0.65625
1664934206296,0.40063477,-0.8567505,-0.31695557,0.015625,-0.828125,0.1875
1664934206334,0.40722656,-0.8555298,-0.31817627,-0.203125,-0.671875,0.125
1664934206387,0.39575195,-0.8484497,-0.31866455,-0.109375,-0.875,0.453125
1664934206411,0.39086914,-0.8518677,-0.32159424,1.078125,-0.53125,0.171875
1664934206445,0.40234375,-0.85894775,-0.30963135,0.734375,0.09375,0.1875
1664934206492,0.39868164,-0.8587036,-0.315979,1.703125,0.078125,0.171875
1664934206524,0.39941406,-0.8428345,-0.32452393,0.171875,-0.640625,-0.0625
1664934206580,0.40722656,-0.85162354,-0.30230713,1.6875,0.03125,-0.046875
1664934206603,0.3996582,-0.8530884,-0.31695557,0.28125,-0.453125,-0.296875
1664934206646,0.3959961,-0.850647,-0.31524658,1.421875,0.140625,-0.203125
1664934206681,0.40551758,-0.8567505,-0.32305908,1.046875,0.171875,-0.078125
1664934206730,0.3996582,-0.84625244,-0.31427002,1.171875,0.390625,-0.171875
1664934206760,0.39038086,-0.86383057,-0.31671143,1.9375,0.078125,-0.109375
1664934206804,0.3996582,-0.8479614,-0.3189087,0.59375,0.234375,0.0625
1664934206839,0.39282227,-0.8442993,-0.32891846,0.859375,-0.09375,-0.140625
1664934206885,0.39648438,-0.8538208,-0.31207275,0.765625,-0.40625,-0.140625
1664934206919,0.40185547,-0.8550415,-0.3250122,0.171875,-0.578125,0.09375
1664934206962,0.4038086,-0.84869385,-0.32769775,1.078125,-0.265625,-0.0625
1664934206995,0.39916992,-0.84454346,-0.31817627,-0.125,-0.5,-0.078125
1664934207040,0.4013672,-0.8530884,-0.32037354,-0.109375,-0.953125,0.09375
1664934207099,0.40795898,-0.85040283,-0.32305908,0.171875,-0.734375,0.109375
1664934207121,0.4091797,-0.8496704,-0.31573486,0.03125,-0.640625,-0.140625
1664934207153,0.39575195,-0.8518677,-0.31793213,-0.671875,0.03125,0.15625
1664934207198,0.40405273,-0.85479736,-0.31256104,0.015625,-0.34375,0.09375
1664934207232,0.40283203,-0.84698486,-0.31378174,-0.21875,0.171875,-0.0625
1664934207279,0.40356445,-0.84942627,-0.31329346,-0.78125,-0.453125,0.203125
1664934207310,0.40185547,-0.85284424,-0.31939697,0.484375,0.5,-0.203125
1664934207354,0.4128418,-0.8530884,-0.31866455,-1.5625,-0.453125,-0.09375
1664934207402,0.4038086,-0.8530884,-0.3027954,-1.1875,-0.4375,-0.3125
1664934207436,0.39672852,-0.85650635,-0.31134033,-0.390625,0.625,-0.125
1664934207468,0.40234375,-0.85113525,-0.30792236,-0.140625,0.671875,-0.15625
1664934207513,0.4050293,-0.8538208,-0.31207275,-0.296875,0.5625,-0.1875
1664934207548,0.40454102,-0.8596802,-0.3086548,-0.28125,0.59375,-0.203125
1664934207604,0.40234375,-0.8526001,-0.300354,0.984375,1.015625,-0.4375
1664934207626,0.4033203,-0.8452759,-0.30596924,0.3125,1.140625,-0.25
1664934207682,0.40649414,-0.8484497,-0.31207275,-0.578125,0.65625,-0.125
1664934207709,0.39379883,-0.8557739,-0.30548096,1.359375,0.8125,-0.453125
1664934207752,0.4013672,-0.8533325,-0.3098755,0.015625,1.015625,-0.0625
1664934207782,0.39990234,-0.8538208,-0.30181885,-0.546875,0.015625,-0.140625
1664934207829,0.3947754,-0.8518677,-0.3069458,1.125,1.515625,-0.28125
1664934207862,0.39379883,-0.85601807,-0.3032837,0.1875,0.984375,0.109375
1664934207909,0.40234375,-0.8591919,-0.3008423,0.984375,0.9375,-0.234375
1664934207939,0.40234375,-0.85113525,-0.31500244,-0.671875,0.59375,0.03125
1664934207986,0.39892578,-0.8543091,-0.31524658,0.90625,1.109375,-0.125
1664934208023,0.4013672,-0.8599243,-0.30670166,0.484375,-0.015625,-0.265625
1664934208066,0.4020996,-0.84942627,-0.31402588,-0.328125,0.671875,0.109375
1664934208121,0.3984375,-0.8545532,-0.3110962,0.0,0.75,-0.109375
1664934208143,0.40820312,-0.8550415,-0.3093872,0.53125,0.75,-0.15625
1664934208179,0.39501953,-0.85040283,-0.29718018,0.765625,1.015625,-0.234375
1664934208223,0.40356445,-0.8604126,-0.31671143,0.59375,0.375,-0.046875
1664934208258,0.40039062,-0.8484497,-0.3184204,-2.28125,-0.515625,0.0
1664934208301,0.39501953,-0.8545532,-0.302063,1.796875,1.515625,-0.15625
1664934208335,0.3959961,-0.85650635,-0.3032837,-0.40625,0.3125,-0.046875
1664934208380,0.40429688,-0.8508911,-0.3123169,-0.4375,0.0625,-0.140625
1664934208425,0.39770508,-0.85772705,-0.30596924,-0.390625,0.328125,-0.171875
1664934208458,0.40014648,-0.8521118,-0.31036377,0.484375,1.09375,0.03125
1664934208492,0.39648438,-0.8574829,-0.30718994,0.984375,0.703125,-0.453125
1664934208546,0.4025879,-0.85406494,-0.3045044,0.25,-0.015625,0.0
1664934208584,0.39379883,-0.8543091,-0.3081665,0.203125,1.234375,-0.046875
1664934208628,0.3930664,-0.8579712,-0.30670166,1.078125,0.703125,-0.328125
1664934208661,0.39868164,-0.85943604,-0.3093872,0.3125,0.78125,0.0
1664934208695,0.39794922,-0.8526001,-0.31451416,2.25,2.4375,-0.1875
1664934208741,0.39770508,-0.86016846,-0.30841064,2.6875,3.28125,-0.4375
1664934208775,0.38598633,-0.85528564,-0.31866455,1.453125,0.890625,-0.328125
1664934208855,0.39233398,-0.85162354,-0.3147583,0.125,-0.671875,0.0
1664934208858,0.40478516,-0.85479736,-0.3106079,0.078125,-0.046875,0.15625
1664934208899,0.38598633,-0.8518677,-0.31817627,0.453125,-1.015625,-0.28125
1664934208932,0.39746094,-0.8518677,-0.31549072,0.53125,-0.421875,-0.109375
1664934208976,0.40014648,-0.85650635,-0.3086548,0.234375,-0.1875,0.078125
1664934209010,0.3935547,-0.8521118,-0.31939697,0.8125,-0.359375,0.109375
1664934209055,0.40307617,-0.8574829,-0.3135376,0.390625,-0.0625,0.125
1664934209090,0.40014648,-0.8530884,-0.3171997,0.15625,-0.21875,-0.09375
1664934209147,0.3857422,-0.8508911,-0.31427002,2.015625,0.453125,-0.109375
1664934209167,0.4025879,-0.8513794,-0.32720947,-0.328125,-0.28125,0.28125
1664934209218,0.40161133,-0.85723877,-0.30767822,1.96875,1.578125,-0.375
1664934209249,0.3869629,-0.8545532,-0.3213501,2.375,0.796875,-0.375
1664934209291,0.39697266,-0.848938,-0.32305908,2.28125,1.5625,0.171875
1664934209329,0.39257812,-0.8538208,-0.32525635,1.1875,0.578125,-0.046875
1664934209371,0.39770508,-0.8484497,-0.32598877,1.359375,-0.015625,-0.15625
1664934209404,0.4008789,-0.8574829,-0.32989502,1.125,0.46875,0.03125
1664934209449,0.40234375,-0.8501587,-0.32232666,1.15625,-0.484375,0.15625
1664934209483,0.39379883,-0.848938,-0.3267212,0.90625,-0.75,0.0625
1664934209528,0.38989258,-0.8518677,-0.32525635,0.921875,-0.8125,0.046875
1664934209562,0.40527344,-0.8530884,-0.32696533,1.296875,-0.328125,-0.21875
1664934209607,0.40234375,-0.8491821,-0.33184814,0.515625,0.1875,-0.3125
1664934209652,0.3840332,-0.85040283,-0.32867432,1.03125,0.203125,-0.015625
1664934209684,0.40429688,-0.84576416,-0.32598877,1.171875,0.09375,0.015625
1664934209718,0.4050293,-0.84576416,-0.33306885,0.921875,0.265625,0.484375
1664934209763,0.39526367,-0.8484497,-0.3291626,0.53125,-0.421875,0.203125
1664934209799,0.40283203,-0.8440552,-0.32110596,0.96875,-0.125,-0.1875
1664934209854,0.39672852,-0.8501587,-0.32843018,0.53125,-0.03125,-0.046875
1664934209875,0.3972168,-0.8530884,-0.3369751,-0.40625,-0.421875,0.359375
1664934209922,0.40429688,-0.8491821,-0.3267212,0.84375,-0.0625,-0.1875
1664934209955,0.38916016,-0.84991455,-0.3267212,-0.40625,0.03125,-0.265625
1664934210002,0.40625,-0.8550415,-0.333313,1.0625,0.53125,0.078125
1664934210032,0.4074707,-0.8369751,-0.33355713,-1.953125,-0.625,-0.125
1664934210079,0.40478516,-0.84820557,-0.3196411,1.171875,0.34375,-0.25
1664934210112,0.40014648,-0.8491821,-0.32598877,-1.21875,0.125,-0.015625
1664934210169,0.40771484,-0.84161377,-0.32354736,-0.3125,0.4375,-0.09375
1664934210190,0.40698242,-0.85284424,-0.3242798,-0.28125,0.078125,-0.34375
1664934210235,0.39404297,-0.8526001,-0.31817627,-0.640625,0.3125,-0.375
1664934210271,0.4008789,-0.847229,-0.3213501,0.46875,0.859375,0.078125
1664934210314,0.4116211,-0.848938,-0.3267212,-0.265625,0.625,-0.21875
1664934210391,0.39575195,-0.8467407,-0.32086182,-0.5625,0.453125,-0.34375
1664934210391,0.4050293,-0.85235596,-0.31549072,0.953125,0.8125,-0.125
1664934210425,0.4025879,-0.84942627,-0.31915283,-0.5,0.59375,-0.15625
1664934210470,0.40161133,-0.84942627,-0.31451416,0.5,0.828125,-0.234375
1664934210503,0.39868164,-0.8518677,-0.31744385,0.234375,0.796875,-0.078125
1664934210549,0.39990234,-0.84698486,-0.31744385,0.609375,1.0625,-0.234375
1664934210585,0.39111328,-0.8521118,-0.3237915,0.03125,0.65625,-0.125
1664934210631,0.40185547,-0.85235596,-0.32110596,0.125,0.484375,-0.15625
1664934210675,0.40112305,-0.8460083,-0.32598877,0.265625,0.59375,0.046875
1664934210707,0.40063477,-0.8567505,-0.32208252,0.515625,0.28125,-0.1875
1664934210743,0.4008789,-0.85723877,-0.3189087,0.296875,0.9375,-0.1875
1664934210790,0.39135742,-0.84698486,-0.3213501,0.546875,0.734375,-0.046875
1664934210821,0.39575195,-0.84942627,-0.31427002,0.59375,1.171875,0.0625
1664934210877,0.39624023,-0.84552,-0.31573486,-0.125,0.5,-0.265625
1664934210900,0.39990234,-0.85284424,-0.31939697,1.84375,1.421875,0.015625
1664934210944,0.40161133,-0.8460083,-0.3291626,-2.15625,0.015625,0.0625
1664934210979,0.4050293,-0.8484497,-0.31671143,0.703125,1.5625,-0.359375
1664934211024,0.39331055,-0.8555298,-0.32354736,0.6875,0.484375,0.0
1664934211092,0.3984375,-0.84576416,-0.32843018,-0.21875,0.78125,0.203125
1664934211103,0.39794922,-0.84869385,-0.3242798,0.46875,1.28125,0.078125
1664934211195,0.39672852,-0.850647,-0.3250122,-0.140625,0.28125,-0.046875
1664934211198,0.40063477,-0.85113525,-0.3237915,0.515625,0.984375,0.125
1664934211226,0.39575195,-0.85284424,-0.3196411,0.40625,0.8125,0.125
1664934211261,0.39697266,-0.847229,-0.31573486,-0.734375,0.546875,-0.03125
1664934211307,0.40014648,-0.85357666,-0.3196411,0.3125,1.125,-0.078125
1664934211338,0.39575195,-0.8569946,-0.31988525,-0.25,0.078125,-0.0625
1664934211397,0.39257812,-0.8530884,-0.32037354,-0.40625,-0.859375,-0.28125
1664934211417,0.40283203,-0.85284424,-0.32159424,-1.84375,-1.484375,0.046875
1664934211463,0.4013672,-0.85479736,-0.3123169,-1.140625,-0.921875,0.015625
1664934211499,0.39697266,-0.85772705,-0.30352783,-1.703125,-1.03125,-0.015625
1664934211542,0.39379883,-0.85162354,-0.30474854,-4.046875,-2.34375,-0.046875
1664934211575,0.40893555,-0.8501587,-0.2979126,-3.765625,-2.796875,0.046875
1664934211622,0.40771484,-0.8652954,-0.28912354,-4.546875,-4.75,0.09375
1664934211654,0.39916992,-0.8526001,-0.28936768,-6.859375,-6.796875,-0.28125
1664934211699,0.40820312,-0.8633423,-0.27252197,-2.109375,-1.359375,-0.03125
1664934211739,0.41674805,-0.86798096,-0.27008057,0.546875,-0.6875,-0.71875
1664934211779,0.3959961,-0.850647,-0.26446533,-0.734375,-0.734375,-0.25
1664934211812,0.4074707,-0.861145,-0.28790283,0.484375,0.59375,0.0
1664934211857,0.4128418,-0.8657837,-0.25860596,2.4375,1.359375,-0.53125
1664934211901,0.41088867,-0.87213135,-0.2756958,0.890625,0.359375,0.078125
1664934211936,0.40722656,-0.85650635,-0.27471924,-2.109375,0.109375,-0.328125
1664934211968,0.39941406,-0.8723755,-0.2715454,3.609375,2.078125,-0.328125
1664934212014,0.40820312,-0.86138916,-0.27374268,0.5625,0.625,-0.109375
1664934212047,0.40820312,-0.85601807,-0.28204346,-0.4375,0.359375,-0.328125
1664934212118,0.40185547,-0.8677368,-0.28155518,1.3125,1.40625,-0.1875
1664934212125,0.40405273,-0.8621216,-0.26617432,2.140625,0.78125,-0.203125
1664934212171,0.40551758,-0.8569946,-0.2774048,0.453125,-0.234375,-0.015625
1664934212215,0.40795898,-0.8621216,-0.2805786,0.328125,-0.171875,-0.140625
1664934212251,0.39819336,-0.86505127,-0.284729,0.78125,-0.390625,-0.421875
1664934212286,0.40014648,-0.8616333,-0.28375244,0.421875,-0.890625,0.234375
1664934212330,0.4091797,-0.8569946,-0.27618408,1.328125,-0.8125,0.0625
1664934212363,0.39526367,-0.8670044,-0.2727661,0.375,-2.671875,0.1875
1664934212420,0.40478516,-0.8545532,-0.27789307,-0.796875,-3.375,0.953125
1664934212439,0.41601562,-0.8689575,-0.2756958,0.59375,0.203125,0.734375
1664934212486,0.4152832,-0.86187744,-0.2715454,0.140625,0.03125,-0.375
1664934212520,0.3955078,-0.8526001,-0.28009033,-0.21875,-0.59375,0.09375
1664934212566,0.40942383,-0.86383057,-0.2695923,0.6875,-0.265625,0.375
1664934212598,0.41186523,-0.8674927,-0.2732544,-0.53125,-0.140625,-0.140625
1664934212643,0.4128418,-0.85943604,-0.269104,-0.515625,-0.171875,0.0
1664934212678,0.41845703,-0.8599243,-0.26202393,-0.484375,-0.578125,-0.0625
1664934212724,0.4013672,-0.85772705,-0.26837158,-1.21875,-0.234375,-0.140625
1664934212778,0.41235352,-0.8640747,-0.26446533,1.84375,1.015625,0.296875
1664934212802,0.41381836,-0.85943604,-0.27374268,-1.21875,-0.265625,0.0625
1664934212836,0.40820312,-0.8670044,-0.2642212,-0.109375,-0.390625,-0.140625
1664934212881,0.41601562,-0.8670044,-0.25738525,1.03125,0.265625,-0.078125
1664934212925,0.41674805,-0.8530884,-0.27349854,0.359375,0.59375,0.171875
1664934212959,0.41552734,-0.8621216,-0.26739502,0.453125,0.375,-0.015625
1664934212992,0.4140625,-0.8640747,-0.26690674,0.328125,0.375,-0.046875
1664934213039,0.40966797,-0.8599243,-0.26568604,0.3125,1.03125,-0.203125
1664934213069,0.41259766,-0.86846924,-0.25689697,0.53125,0.5625,0.15625
1664934213139,0.4111328,-0.86016846,-0.26983643,-0.59375,0.1875,-0.078125
1664934213149,0.40551758,-0.8596802,-0.26568604,0.640625,1.578125,-0.125
1664934213195,0.4182129,-0.86187744,-0.2666626,0.5,0.734375,0.09375
1664934213228,0.4091797,-0.8635864,-0.2715454,0.359375,1.046875,-0.0625
1664934213273,0.4140625,-0.8591919,-0.2666626,1.0625,1.40625,-0.234375
1664934213308,0.40649414,-0.866272,-0.26617432,0.734375,0.90625,-0.25
1664934213352,0.41064453,-0.85821533,-0.27105713,0.8125,1.28125,0.078125
1664934213384,0.4104004,-0.85943604,-0.2715454,0.953125,1.03125,-0.140625
1664934213444,0.41455078,-0.8635864,-0.27056885,0.3125,0.6875,-0.1875
1664934213476,0.40698242,-0.8718872,-0.2732544,0.828125,0.53125,0.03125
1664934213510,0.40820312,-0.861145,-0.27496338,0.375,0.234375,0.125
1664934213556,0.41381836,-0.85479736,-0.27227783,0.640625,1.578125,-0.234375
1664934213588,0.40893555,-0.86065674,-0.27618408,0.328125,-0.015625,-0.0625
1664934213646,0.4111328,-0.8609009,-0.27008057,0.609375,0.84375,-0.015625
1664934213668,0.4140625,-0.86602783,-0.27642822,-0.546875,0.21875,0.0
1664934213747,0.41748047,-0.8562622,-0.269104,2.890625,1.640625,-0.375
1664934213752,0.4086914,-0.8689575,-0.27886963,-0.53125,0.796875,-0.03125
1664934213790,0.4116211,-0.85357666,-0.26617432,0.125,0.578125,-0.171875
1664934213825,0.40698242,-0.866272,-0.27838135,0.734375,0.609375,-0.125
1664934213869,0.4152832,-0.86260986,-0.2798462,0.015625,0.953125,-0.171875
1664934213903,0.4050293,-0.86431885,-0.27789307,0.96875,1.109375,-0.171875
1664934213949,0.40576172,-0.85723877,-0.28326416,0.015625,0.65625,-0.125
1664934213985,0.4111328,-0.8640747,-0.28009033,1.375,1.21875,-0.125
1664934214028,0.40454102,-0.8706665,-0.27471924,1.515625,1.421875,0.1875
1664934214060,0.4086914,-0.8633423,-0.28448486,0.671875,0.875,-0.171875
1664934214106,0.4025879,-0.8555298,-0.28204346,1.640625,2.09375,-0.328125
1664934214164,0.40283203,-0.86724854,-0.28009033,1.578125,1.4375,0.203125
1664934214186,0.40527344,-0.8599243,-0.28302002,1.328125,1.078125,-0.09375
1664934214220,0.40356445,-0.861145,-0.29083252,1.109375,1.203125,-0.125
1664934214262,0.40063477,-0.8557739,-0.2937622,1.046875,1.453125,0.15625
1664934214299,0.40405273,-0.8677368,-0.28741455,1.25,1.3125,-0.15625
1664934214342,0.40527344,-0.85723877,-0.29864502,-0.5625,0.71875,0.03125
1664934214375,0.40820312,-0.8587036,-0.28912354,1.421875,1.09375,0.015625
1664934214421,0.40429688,-0.86260986,-0.2966919,0.546875,1.078125,-0.1875
1664934214468,0.40625,-0.8501587,-0.28912354,0.84375,1.15625,0.078125
1664934214500,0.39648438,-0.85723877,-0.29205322,0.6875,0.34375,-0.0625
1664934214533,0.39404297,-0.85235596,-0.29571533,0.140625,0.59375,-0.09375
1664934214579,0.4050293,-0.8555298,-0.28790283,-0.046875,-0.859375,-0.09375
1664934214615,0.40161133,-0.86798096,-0.29864502,-1.6875,-1.09375,-0.328125
1664934214671,0.4050293,-0.85479736,-0.28985596,2.609375,0.359375,-0.21875
1664934214691,0.40576172,-0.86676025,-0.30352783,0.53125,-0.265625,0.296875
1664934214737,0.40478516,-0.8587036,-0.2966919,-0.703125,-0.4375,-0.15625
1664934214772,0.4008789,-0.86187744,-0.28790283,2.328125,-0.078125,-0.171875
1664934214818,0.4038086,-0.8452759,-0.29229736,-0.234375,-1.09375,0.234375
1664934214849,0.41235352,-0.8533325,-0.29473877,1.234375,0.015625,-0.234375
1664934214893,0.3984375,-0.8623657,-0.29888916,0.125,-0.609375,0.125
1664934214927,0.4013672,-0.8550415,-0.28619385,1.421875,-0.4375,-0.078125
1664934214972,0.40429688,-0.8533325,-0.2883911,-0.078125,-0.609375,-0.171875
1664934215007,0.40942383,-0.85772705,-0.2942505,0.25,-0.375,0.21875
1664934215051,0.40942383,-0.8591919,-0.28790283,0.515625,-0.609375,-0.15625
1664934215086,0.40307617,-0.8567505,-0.28814697,-0.046875,-1.140625,0.140625
1664934215132,0.40185547,-0.8633423,-0.28961182,-0.84375,-1.65625,0.09375
1664934215185,0.40893555,-0.85601807,-0.2883911,-0.265625,-1.703125,0.015625
1664934215209,0.4194336,-0.86309814,-0.28936768,0.1875,0.03125,0.015625
1664934215291,0.40649414,-0.8555298,-0.28546143,-0.421875,-0.984375,-0.234375
1664934215293,0.41235352,-0.85235596,-0.28253174,-0.59375,-0.796875,0.390625
1664934215342,0.41357422,-0.8533325,-0.2810669,1.171875,-0.140625,0.109375
1664934215367,0.41552734,-0.85406494,-0.27227783,0.828125,0.125,-0.046875
1664934215400,0.40478516,-0.8623657,-0.286438,0.21875,-0.5,0.390625
1664934215444,0.4194336,-0.8557739,-0.28302002,1.3125,-0.21875,-0.046875
1664934215478,0.41552734,-0.85528564,-0.2883911,0.1875,-0.890625,0.03125
1664934215523,0.4099121,-0.8621216,-0.28179932,0.796875,-0.546875,-0.21875
1664934215557,0.41479492,-0.8543091,-0.27960205,0.9375,-0.546875,-0.390625
1664934215630,0.42089844,-0.8533325,-0.29229736,1.578125,0.53125,0.28125
1664934215635,0.4182129,-0.8545532,-0.28375244,-0.796875,-1.046875,-0.21875
1664934215692,0.4099121,-0.8538208,-0.269104,2.09375,-0.171875,-0.265625
1664934215715,0.40722656,-0.84747314,-0.28546143,-0.03125,-0.3125,-0.015625
1664934215761,0.42260742,-0.85650635,-0.2876587,0.1875,0.0,-0.09375
1664934215794,0.4182129,-0.8557739,-0.2810669,-0.828125,0.328125,-0.59375
1664934215840,0.4140625,-0.84576416,-0.27911377,0.4375,0.328125,-0.109375
1664934215872,0.41577148,-0.85723877,-0.28155518,-0.15625,0.015625,-0.1875
1664934215919,0.41064453,-0.8621216,-0.28155518,-0.265625,0.1875,-0.171875
1664934215962,0.41381836,-0.8609009,-0.28424072,0.34375,0.390625,-0.203125
1664934215997,0.41137695,-0.86187744,-0.27789307,-0.234375,0.03125,-0.09375
1664934216042,0.4206543,-0.8562622,-0.27838135,-0.03125,0.53125,-0.046875
1664934216074,0.42138672,-0.8543091,-0.27593994,0.359375,0.0,-0.328125
1664934216120,0.4020996,-0.86260986,-0.27520752,-0.765625,0.03125,-0.21875
1664934216152,0.41455078,-0.8621216,-0.284729,-0.234375,0.53125,0.0625
1664934216199,0.42114258,-0.86187744,-0.27520752,0.125,1.234375,-0.359375
1664934216233,0.40527344,-0.8569946,-0.28399658,-0.6875,0.515625,-0.21875
1664934216277,0.42041016,-0.8609009,-0.27374268,0.296875,1.125,-0.21875
1664934216334,0.40844727,-0.86798096,-0.2732544,0.609375,0.71875,-0.34375
1664934216354,0.4116211,-0.85723877,-0.27178955,-0.578125,0.34375,0.0625
1664934216391,0.42041016,-0.85479736,-0.27105713,0.15625,0.78125,-0.125
1664934216435,0.40795898,-0.86383057,-0.26763916,1.84375,1.390625,-0.390625
1664934216467,0.41259766,-0.8579712,-0.28277588,-1.9375,0.203125,0.046875
1664934216514,0.41186523,-0.85894775,-0.269104,0.8125,1.09375,-0.203125
1664934216549,0.4038086,-0.86260986,-0.27593994,0.65625,1.015625,-0.3125
1664934216592,0.4104004,-0.861145,-0.27716064,0.125,1.359375,-0.078125
1664934216627,0.41210938,-0.8587036,-0.27911377,0.5,1.109375,-0.375
1664934216670,0.40893555,-0.85943604,-0.28082275,-0.421875,0.96875,-0.1875
1664934216717,0.4020996,-0.8545532,-0.27520752,1.921875,1.03125,-0.296875
1664934216751,0.40844727,-0.86431885,-0.27349854,-0.078125,0.65625,-0.09375
1664934216782,0.41503906,-0.8567505,-0.27838135,0.0,1.3125,-0.421875
1664934216827,0.4008789,-0.86065674,-0.2798462,0.765625,0.703125,-0.03125
1664934216863,0.4091797,-0.86016846,-0.27227783,0.390625,1.515625,0.0
1664934216920,0.4140625,-0.8599243,-0.2769165,0.671875,0.984375,-0.34375
1664934216940,0.4020996,-0.86309814,-0.27593994,0.203125,0.921875,-0.109375
1664934216987,0.41308594,-0.86724854,-0.284729,0.015625,1.15625,-0.203125
1664934217021,0.4033203,-0.8555298,-0.28497314,0.71875,1.71875,-0.328125
1664934217066,0.40405273,-0.861145,-0.27911377,0.078125,1.34375,-0.109375
1664934217105,0.4038086,-0.86187744,-0.27667236,0.296875,1.34375,-0.140625
1664934217143,0.40429688,-0.8604126,-0.2852173,1.109375,1.84375,-0.28125
1664934217178,0.40283203,-0.8616333,-0.28546143,0.8125,1.53125,0.125
1664934217232,0.40551758,-0.8623657,-0.28912354,0.28125,1.390625,0.1875
1664934217256,0.40405273,-0.85723877,-0.28497314,1.875,2.03125,-0.46875
1664934217300,0.40063477,-0.864563,-0.28961182,0.078125,1.15625,-0.078125
1664934217335,0.40649414,-0.8550415,-0.27520752,2.109375,1.125,-0.03125
1664934217382,0.39697266,-0.8623657,-0.29571533,-0.328125,0.4375,0.015625
1664934217414,0.3955078,-0.8587036,-0.2930298,-1.0,1.0,0.015625
1664934217456,0.40551758,-0.86724854,-0.29327393,1.84375,2.46875,-0.0625
1664934217494,0.3996582,-0.8569946,-0.29449463,0.703125,2.265625,-0.21875
1664934217541,0.39868164,-0.8555298,-0.2852173,1.203125,1.796875,-0.40625
1664934217571,0.39624023,-0.86309814,-0.2966919,-1.640625,-1.015625,-0.03125
1664934217616,0.40112305,-0.8567505,-0.29449463,1.09375,0.421875,-0.15625
1664934217653,0.39990234,-0.86505127,-0.286438,0.296875,-0.40625,0.21875
1664934217696,0.39526367,-0.85821533,-0.29986572,-0.859375,-0.578125,0.015625
1664934217743,0.40551758,-0.8587036,-0.29034424,0.46875,0.53125,0.015625
1664934217775,0.39697266,-0.866272,-0.2901001,-0.625,0.21875,0.21875
1664934217809,0.3947754,-0.8526001,-0.2901001,0.359375,0.1875,0.109375
1664934217856,0.39819336,-0.85894775,-0.2883911,0.328125,0.28125,0.21875
1664934217908,0.40795898,-0.86138916,-0.284729,0.625,0.140625,0.0625
1664934217942,0.3959961,-0.8599243,-0.29351807,-0.03125,-0.046875,0.015625
1664934217965,0.40527344,-0.85894775,-0.29327393,1.171875,-0.421875,0.375
1664934218010,0.4086914,-0.8591919,-0.28961182,0.328125,-0.578125,-0.046875
1664934218046,0.3984375,-0.8543091,-0.28741455,-0.375,-0.5625,0.09375
1664934218089,0.40161133,-0.8616333,-0.28936768,-0.078125,0.125,0.3125
1664934218124,0.40283203,-0.8616333,-0.2930298,0.671875,0.734375,-0.0625
1664934218168,0.40625,-0.8587036,-0.29083252,1.03125,1.0,0.09375
1664934218200,0.41381836,-0.8550415,-0.28863525,0.296875,0.171875,0.0
1664934218259,0.4050293,-0.85772705,-0.29083252,1.421875,0.53125,0.125
1664934218281,0.4104004,-0.85528564,-0.2949829,-1.1875,-0.390625,0.0625
1664934218325,0.4038086,-0.8682251,-0.27471924,1.375,-0.421875,-0.046875
1664934218371,0.40356445,-0.86724854,-0.2888794,0.09375,-1.265625,-0.046875
1664934218404,0.40014648,-0.8533325,-0.28692627,-1.828125,-1.140625,0.234375
1664934218460,0.4086914,-0.86309814,-0.28253174,-0.203125,-0.59375,0.25
1664934218483,0.4074707,-0.8677368,-0.28033447,-0.921875,-1.203125,0.015625
1664934218530,0.40649414,-0.862854,-0.28448486,-0.78125,-1.515625,0.1875
1664934218561,0.42016602,-0.85406494,-0.27349854,0.3125,-1.6875,0.296875
1664934218606,0.41186523,-0.8579712,-0.27520752,0.125,-0.390625,0.09375
1664934218641,0.40966797,-0.87579346,-0.27423096,1.484375,-0.1875,-0.109375
1664934218685,0.4177246,-0.8545532,-0.27838135,0.84375,-0.578125,0.234375
1664934218718,0.40600586,-0.8640747,-0.2769165,0.984375,-0.296875,0.109375
1664934218766,0.40527344,-0.8584595,-0.2781372,1.125,-0.046875,-0.046875
1664934218797,0.41430664,-0.85650635,-0.28179932,0.3125,0.078125,0.109375
1664934218843,0.4091797,-0.8587036,-0.27911377,0.0625,0.390625,-0.09375
1664934218874,0.4169922,-0.85650635,-0.2786255,1.421875,0.625,0.09375
1664934218921,0.41137695,-0.8569946,-0.27764893,0.71875,0.59375,0.0625
1664934218955,0.4116211,-0.85601807,-0.28546143,0.703125,0.6875,-0.140625
1664934219002,0.41503906,-0.86553955,-0.28277588,1.84375,0.90625,-0.21875
1664934219033,0.4177246,-0.85723877,-0.27423096,0.84375,0.5,-0.03125
1664934219079,0.41674805,-0.8599243,-0.286438,1.359375,0.9375,-0.15625
1664934219113,0.41479492,-0.8513794,-0.28399658,-1.4375,0.0625,-0.375
1664934219185,0.41137695,-0.8652954,-0.27349854,1.921875,1.09375,-0.390625
1664934219190,0.4099121,-0.85821533,-0.28619385,-0.03125,0.421875,-0.078125
1664934219234,0.41674805,-0.8521118,-0.29180908,0.5625,0.96875,-0.265625
1664934219281,0.40820312,-0.86798096,-0.2859497,0.703125,0.484375,-0.15625
1664934219315,0.40649414,-0.8521118,-0.2793579,0.578125,1.03125,-0.359375
1664934219347,0.4074707,-0.8587036,-0.2925415,1.015625,1.25,-0.28125
1664934219392,0.4099121,-0.86383057,-0.28790283,0.5,0.65625,-0.140625
1664934219429,0.40625,-0.85601807,-0.28375244,1.0,1.078125,-0.109375
1664934219484,0.4111328,-0.86065674,-0.29058838,0.359375,0.703125,-0.328125
1664934219505,0.40820312,-0.8530884,-0.28814697,0.4375,0.890625,-0.125
1664934219549,0.41235352,-0.8526001,-0.2888794,0.3125,0.625,-0.265625
1664934219586,0.40063477,-0.8567505,-0.28985596,0.3125,0.921875,0.0625
1664934219630,0.40234375,-0.85772705,-0.29400635,-0.171875,0.828125,-0.03125
1664934219663,0.41064453,-0.86383057,-0.28546143,1.65625,1.0,0.0625
1664934219708,0.39794922,-0.86016846,-0.29327393,-0.265625,0.703125,-0.171875
1664934219745,0.40625,-0.8569946,-0.28961182,0.59375,0.90625,-0.0625
1664934219799,0.40893555,-0.8633423,-0.29107666,0.640625,1.21875,-0.015625
1664934219820,0.4038086,-0.8518677,-0.28936768,0.046875,0.8125,-0.265625
1664934219865,0.41186523,-0.862854,-0.2979126,0.546875,0.96875,0.140625
1664934219900,0.4086914,-0.8530884,-0.28546143,0.109375,1.875,0.09375
1664934219945,0.39941406,-0.86309814,-0.3106079,-1.140625,1.671875,0.6875
1664934219978,0.4033203,-0.84625244,-0.286438,-0.03125,1.359375,0.015625
1664934220022,0.40307617,-0.8648071,-0.28741455,1.484375,1.421875,-0.171875
1664934220058,0.4025879,-0.8621216,-0.2859497,-0.765625,1.15625,0.234375
1664934220102,0.3996582,-0.8538208,-0.29986572,1.234375,2.1875,-0.359375
1664934220135,0.40234375,-0.85040283,-0.29986572,-0.015625,1.0625,-0.03125
1664934220180,0.40893555,-0.85772705,-0.29156494,0.421875,1.421875,-0.015625
1664934220215,0.4091797,-0.8550415,-0.29522705,1.65625,1.4375,0.0625
1664934220260,0.4025879,-0.8513794,-0.30645752,0.046875,0.359375,-0.203125
1664934220293,0.39648438,-0.8545532,-0.30133057,-0.140625,0.796875,-0.109375
1664934220338,0.4038086,-0.861145,-0.29815674,1.328125,1.453125,-0.0625
1664934220376,0.40234375,-0.86187744,-0.30133057,0.78125,1.53125,-0.03125
1664934220418,0.40478516,-0.8508911,-0.30108643,0.3125,1.078125,-0.109375
1664934220473,0.40063477,-0.85772705,-0.29449463,0.875,1.234375,0.109375
1664934220495,0.39770508,-0.85040283,-0.30621338,0.328125,1.203125,-0.09375
1664934220530,0.40185547,-0.8599243,-0.29962158,0.984375,0.984375,-0.21875
1664934220579,0.39941406,-0.8591919,-0.29986572,-0.796875,-0.40625,0.046875
1664934220609,0.40356445,-0.8477173,-0.29937744,-1.0,-1.46875,-0.171875
1664934220656,0.40551758,-0.8623657,-0.29400635,-0.578125,-1.734375,-0.171875
1664934220688,0.39648438,-0.86260986,-0.2942505,0.328125,-1.109375,-0.265625
1664934220733,0.40820312,-0.85406494,-0.29718018,0.109375,-0.359375,-0.046875
1664934220780,0.40820312,-0.85601807,-0.29180908,1.5,-0.28125,-0.296875
1664934220812,0.40185547,-0.8587036,-0.30230713,-1.21875,-0.5625,0.09375
1664934220856,0.4074707,-0.8555298,-0.28863525,0.59375,-0.25,-0.21875
1664934220890,0.39868164,-0.86016846,-0.29522705,-0.171875,-1.046875,-0.203125
1664934220945,0.40698242,-0.86187744,-0.28790283,0.953125,-0.28125,-0.03125
1664934220968,0.40454102,-0.8609009,-0.29473877,-0.5625,-1.9375,0.015625
1664934221014,0.40893555,-0.8526001,-0.284729,-1.453125,-4.609375,0.125
1664934221048,0.40454102,-0.87091064,-0.2715454,-6.53125,-9.703125,0.421875
1664934221094,0.39990234,-0.8460083,-0.284729,-6.890625,-5.265625,0.984375
1664934221127,0.44799805,-0.8831177,-0.2546997,2.109375,2.546875,-0.671875
1664934221169,0.4025879,-0.85821533,-0.253479,-0.328125,-1.40625,-0.859375
1664934221207,0.40844727,-0.8521118,-0.25933838,-0.140625,-0.796875,0.265625
1664934221250,0.42163086,-0.86920166,-0.2625122,-0.875,-0.765625,0.078125
1664934221286,0.41503906,-0.86016846,-0.2649536,-0.9375,-1.8125,-0.25
1664934221329,0.42163086,-0.8557739,-0.24908447,-1.796875,-3.90625,-0.234375
1664934221361,0.40649414,-0.87213135,-0.2432251,-3.8125,-3.125,-0.328125
1664934221408,0.42163086,-0.8674927,-0.24151611,-0.828125,0.34375,-0.65625
1664934221441,0.4333496,-0.8677368,-0.24029541,-0.484375,-0.296875,-0.703125
1664934221487,0.4038086,-0.86602783,-0.23809814,0.15625,-0.328125,-0.578125
1664934221532,0.4189453,-0.8682251,-0.23858643,-0.390625,-0.890625,-0.390625
1664934221565,0.41845703,-0.8731079,-0.24224854,-1.5625,-1.609375,-0.25
1664934221600,0.40649414,-0.8604126,-0.23443604,-0.125,-0.921875,-0.484375
1664934221643,0.41674805,-0.8792114,-0.24005127,0.46875,0.828125,-0.21875
1664934221677,0.41723633,-0.86383057,-0.23028564,-0.984375,-0.296875,-0.65625
1664934221749,0.41503906,-0.8760376,-0.22711182,2.15625,0.5625,-0.21875
1664934221756,0.42114258,-0.8640747,-0.23590088,0.984375,1.03125,-0.34375
1664934221803,0.40673828,-0.87286377,-0.23492432,1.984375,0.828125,-0.09375
1664934221844,0.41357422,-0.8731079,-0.2366333,0.0,-0.046875,-0.234375
1664934221879,0.41601562,-0.8609009,-0.23150635,0.90625,0.34375,-0.15625
1664934221914,0.41333008,-0.8743286,-0.23858643,1.171875,-0.25,-0.03125
1664934221959,0.42407227,-0.87286377,-0.24395752,1.09375,0.28125,-0.046875
1664934221992,0.41992188,-0.8694458,-0.23614502,1.46875,0.96875,-0.21875
1664934222038,0.4111328,-0.8723755,-0.2444458,0.90625,0.609375,-0.28125
1664934222070,0.41455078,-0.8687134,-0.23809814,0.8125,0.234375,0.015625
1664934222118,0.41235352,-0.8657837,-0.24859619,0.703125,0.640625,-0.109375
1664934222151,0.41381836,-0.8609009,-0.24517822,0.921875,1.09375,-0.046875
1664934222194,0.41455078,-0.8699341,-0.24517822,1.3125,0.8125,-0.046875
1664934222230,0.41723633,-0.8665161,-0.24395752,1.109375,0.875,-0.171875
1664934222272,0.41015625,-0.8640747,-0.24908447,1.890625,1.90625,-0.0625
1664934222307,0.42089844,-0.87213135,-0.24664307,1.171875,1.71875,-0.0625
1664934222351,0.41430664,-0.8674927,-0.253479,0.4375,0.75,-0.265625
1664934222385,0.40551758,-0.8665161,-0.26031494,1.40625,1.703125,-0.015625
1664934222430,0.42089844,-0.85943604,-0.23760986,1.21875,1.828125,-0.34375
1664934222466,0.40649414,-0.8687134,-0.2630005,1.609375,1.5,-0.03125
1664934222512,0.40722656,-0.864563,-0.25811768,-1.890625,0.53125,-0.3125
1664934222556,0.4116211,-0.8665161,-0.24957275,2.1875,2.40625,-0.453125
1664934222589,0.40405273,-0.8731079,-0.26104736,0.34375,1.203125,-0.03125
1664934222621,0.41333008,-0.8623657,-0.25982666,1.0625,1.75,-0.15625
1664934222669,0.40966797,-0.8599243,-0.25982666,0.421875,1.78125,-0.25
1664934222701,0.4033203,-0.861145,-0.25543213,0.703125,1.09375,-0.078125
1664934222756,0.40600586,-0.8723755,-0.26324463,0.171875,0.625,0.140625
1664934222780,0.40771484,-0.8699341,-0.26104736,-1.046875,0.0625,0.09375
1664934222825,0.41235352,-0.8587036,-0.25665283,-0.953125,0.671875,-0.078125
1664934222859,0.40527344,-0.86260986,-0.24639893,0.578125,-0.296875,0.140625
1664934222903,0.4326172,-0.8633423,-0.2354126,2.171875,0.640625,-0.21875
1664934222938,0.43408203,-0.86846924,-0.2703247,0.609375,0.46875,-0.015625
1664934222982,0.36108398,-0.8557739,-0.26324463,1.15625,0.453125,-0.9375
1664934223027,0.3947754,-0.8706665,-0.26055908,5.296875,2.375,-0.09375
1664934223064,0.41967773,-0.87384033,-0.27886963,-2.390625,-1.015625,1.71875
1664934223095,0.3828125,-0.8731079,-0.284729,1.1875,1.5625,0.453125
1664934223142,0.40307617,-0.85772705,-0.27886963,2.734375,2.484375,0.609375
1664934223173,0.4104004,-0.8609009,-0.2852173,-1.609375,1.109375,0.828125
1664934223218,0.42504883,-0.8689575,-0.28155518,0.578125,2.1875,-0.015625
1664934223262,0.42089844,-0.8501587,-0.27520752,-0.46875,1.3125,-0.140625
1664934223298,0.41967773,-0.85894775,-0.27252197,-0.203125,0.59375,-0.984375
1664934223375,0.4050293,-0.8706665,-0.25030518,0.546875,0.90625,-0.59375
1664934223378,0.40844727,-0.8706665,-0.26934814,-0.234375,2.421875,-0.359375
1664934223424,0.4255371,-0.8579712,-0.2715454,-3.484375,1.046875,-1.34375
1664934223456,0.40429688,-0.86383057,-0.2539673,1.140625,1.671875,-1.203125
1664934223505,0.40014648,-0.8723755,-0.27545166,-1.1875,-0.71875,-0.5
1664934223532,0.40283203,-0.86260986,-0.2617798,1.28125,-0.078125,-0.890625
1664934223578,0.37304688,-0.87750244,-0.26715088,1.078125,-0.515625,-0.15625
1664934223613,0.37573242,-0.87384033,-0.25299072,-1.609375,-0.046875,0.5
1664934223659,0.4248047,-0.8743286,-0.25250244,0.484375,-1.109375,-0.03125
1664934223698,0.41723633,-0.8604126,-0.26202393,-1.8125,-1.078125,0.203125
1664934223735,0.39282227,-0.86798096,-0.26348877,-2.640625,-2.0,-0.453125
