# Sensor type: Respeck
# Activity type: Sitting
# Activity code: 0
# Subject id: s1912575
# Notes: 
timestamp,accel_x,accel_y,accel_z,gyro_x,gyro_y,gyro_z
1664895724676,-0.0012207031,-0.9973755,0.062927246,0.1875,0.828125,0.171875
1664895724726,-0.0056152344,-0.991272,0.06365967,0.765625,1.046875,0.484375
1664895724761,-0.012451172,-1.0125122,0.0692749,0.890625,0.53125,0.234375
1664895724794,-0.012451172,-0.9924927,0.06414795,1.140625,1.03125,-0.078125
1664895724840,0.0075683594,-0.99420166,0.0446167,0.171875,0.15625,0.234375
1664895724870,-0.016357422,-1.0144653,0.06121826,1.296875,0.109375,-0.125
1664895724917,-0.0031738281,-0.99835205,0.057556152,1.28125,1.765625,-0.15625
1664895724960,-0.021728516,-1.00177,0.05682373,0.625,-0.125,0.140625
1664895724991,-0.020019531,-1.0015259,0.035583496,-2.125,0.4375,-0.75
1664895725036,0.011962891,-0.9990845,0.07098389,4.0625,2.828125,0.375
1664895725068,0.004638672,-1.0125122,0.062683105,1.109375,1.421875,0.109375
1664895725111,-0.022705078,-1.0220337,0.05731201,-0.96875,0.34375,-0.03125
1664895725156,0.009765625,-0.98809814,0.066101074,0.15625,0.921875,-0.328125
1664895725186,-0.007080078,-1.008606,0.07366943,0.609375,0.484375,0.484375
1664895725232,-0.01977539,-1.0039673,0.06439209,0.203125,-0.265625,-0.296875
1664895725277,-0.0029296875,-0.9824829,0.058288574,0.765625,-0.125,-0.375
1664895725308,-0.0012207031,-0.99884033,0.06585693,1.15625,-1.203125,-0.515625
1664895725354,-0.020507812,-1.0178833,0.06585693,-0.828125,-2.234375,-0.390625
1664895725382,0.0063476562,-0.9807739,0.05267334,-0.671875,-0.84375,-0.1875
1664895725429,0.0,-0.9985962,0.058288574,-2.484375,-1.4375,-0.375
1664895725471,-0.041259766,-1.0098267,0.0692749,-3.234375,-2.28125,-0.53125
1664895725501,-0.013427734,-0.99176025,0.0524292,-1.828125,-0.90625,-0.09375
1664895725547,-0.0146484375,-1.0061646,0.059753418,-1.578125,0.671875,-0.484375
1664895725591,-0.028076172,-1.0022583,0.07147217,-2.1875,0.984375,-0.546875
1664895725620,0.00390625,-0.99053955,0.08856201,0.875,0.1875,-0.703125
1664895725666,0.0043945312,-1.0171509,0.09051514,-0.296875,-1.390625,-0.453125
1664895725696,-0.018310547,-0.9990845,0.078552246,-4.75,-2.203125,-1.4375
1664895725740,-0.009277344,-0.99835205,0.098083496,1.234375,-1.109375,-0.015625
1664895725788,-0.016845703,-0.99884033,0.08441162,-1.65625,-1.84375,-0.28125
1664895725818,-0.01928711,-0.99298096,0.08294678,-2.0,-1.234375,-0.421875
1664895725892,-0.030517578,-0.9949341,0.08026123,-1.171875,-0.5625,-0.546875
1664895725906,-0.020996094,-1.0029907,0.08660889,-0.28125,-0.171875,-0.171875
1664895725937,-0.020996094,-0.99713135,0.081726074,-1.171875,-0.296875,-0.484375
1664895725981,-0.0078125,-0.9976196,0.09686279,-0.171875,0.03125,-0.109375
1664895726027,-0.015625,-0.99835205,0.09222412,0.90625,-0.046875,-0.140625
1664895726057,-0.015380859,-0.99786377,0.09442139,0.0,-0.03125,-0.078125
1664895726100,-0.015136719,-0.9937134,0.089538574,-0.734375,-0.265625,0.0
1664895726131,-0.025878906,-0.9968872,0.10003662,0.015625,-0.1875,-0.03125
1664895726178,-0.025146484,-0.9998169,0.093688965,0.390625,0.09375,-0.34375
1664895726221,-0.02319336,-1.0005493,0.09857178,-0.6875,0.234375,-0.3125
1664895726250,-0.015625,-1.0007935,0.098083496,0.375,0.90625,-0.390625
1664895726298,-0.012207031,-0.9993286,0.105651855,0.921875,0.296875,-0.203125
1664895726342,-0.026611328,-1.0032349,0.093688965,0.28125,0.046875,0.09375
1664895726372,-0.0107421875,-0.99591064,0.08709717,-2.078125,-0.09375,-0.703125
1664895726417,-0.018798828,-1.0056763,0.11224365,2.84375,0.578125,0.09375
1664895726448,-0.022705078,-0.9973755,0.097351074,0.203125,0.609375,-0.328125
1664895726493,-0.021728516,-0.9968872,0.09075928,0.328125,0.46875,0.03125
1664895726538,-0.01953125,-1.0064087,0.09832764,0.453125,0.8125,-0.125
1664895726568,-0.01977539,-0.9939575,0.09832764,1.359375,0.875,0.109375
1664895726612,-0.017578125,-0.9961548,0.09466553,0.21875,0.921875,0.0625
1664895726658,-0.013183594,-1.0027466,0.097351074,1.53125,1.515625,0.15625
1664895726686,-0.017578125,-0.9939575,0.09051514,1.140625,0.640625,-0.03125
1664895726733,-0.015625,-1.0003052,0.0914917,1.28125,0.984375,0.25
1664895726777,-0.017822266,-0.9990845,0.09515381,1.203125,0.65625,0.015625
1664895726806,-0.013671875,-1.0025024,0.08905029,1.203125,1.015625,0.0625
1664895726852,-0.020751953,-0.9949341,0.09075928,0.765625,0.765625,0.0
1664895726882,-0.021728516,-0.99713135,0.085632324,1.0,1.09375,0.21875
1664895726927,-0.013183594,-1.000061,0.08905029,1.109375,0.90625,0.109375
1664895726973,-0.012939453,-0.9990845,0.090270996,1.671875,1.125,0.09375
1664895727002,-0.022705078,-1.0059204,0.08660889,1.71875,0.546875,0.328125
1664895727046,-0.0056152344,-0.99468994,0.07293701,-2.5625,-0.09375,-0.53125
1664895727091,-0.025146484,-1.0078735,0.10076904,3.125,0.90625,0.21875
1664895727122,-0.015380859,-0.99591064,0.07513428,0.125,1.390625,-0.03125
1664895727181,-0.020263672,-0.99957275,0.081970215,0.28125,0.96875,-0.078125
1664895727196,-0.019042969,-1.0032349,0.085876465,-0.484375,1.203125,-0.15625
1664895727242,-0.015625,-1.0010376,0.08782959,0.78125,1.734375,0.109375
1664895727287,-0.012207031,-0.98760986,0.07659912,-0.203125,1.21875,-0.09375
1664895727318,-0.010498047,-0.9956665,0.08734131,1.140625,1.09375,0.15625
1664895727362,-0.01171875,-1.0010376,0.086364746,0.46875,1.1875,-0.140625
1664895727408,-0.018798828,-0.9993286,0.08074951,1.0,1.203125,0.328125
1664895727437,-0.0068359375,-0.9956665,0.086364746,1.125,0.953125,0.09375
1664895727482,-0.015625,-1.00177,0.08441162,1.03125,0.71875,-0.03125
1664895727559,-0.0048828125,-1.0005493,0.07537842,0.9375,1.0,0.078125
1664895727562,-0.011474609,-0.9990845,0.08001709,0.59375,0.875,0.234375
1664895727603,-0.013671875,-0.9951782,0.07684326,-0.078125,0.359375,-0.234375
1664895727633,-0.0068359375,-1.0020142,0.08099365,0.46875,0.90625,-0.15625
1664895727678,-0.008056641,-1.0061646,0.09197998,2.359375,0.609375,0.3125
1664895727722,-0.012207031,-0.9956665,0.06951904,-2.34375,0.234375,-0.03125
1664895727752,-0.017578125,-0.9968872,0.08758545,0.875,0.234375,-0.375
1664895727796,-0.020751953,-1.0125122,0.081726074,0.921875,0.6875,0.0
1664895727841,-0.0126953125,-0.9973755,0.07757568,0.96875,0.59375,-0.15625
1664895727872,-0.009765625,-0.99542236,0.0836792,-0.0625,0.8125,-0.078125
1664895727917,-0.013916016,-1.0039673,0.08294678,0.40625,0.1875,-0.015625
1664895727947,-0.005126953,-1.000061,0.082458496,0.734375,0.0,-0.25
1664895727992,-0.0107421875,-0.9993286,0.086120605,0.40625,-0.25,0.15625
1664895728037,-0.0146484375,-0.99884033,0.082214355,0.5,-0.34375,-0.25
1664895728067,-0.014404297,-1.0005493,0.07659912,0.625,-0.625,0.15625
1664895728111,-0.0048828125,-0.9924927,0.08123779,0.46875,-0.453125,-0.1875
1664895728158,-0.015380859,-0.9920044,0.08026123,0.53125,-0.890625,-0.15625
1664895728187,-0.015136719,-1.00177,0.08270264,-0.09375,-0.265625,-0.359375
1664895728233,-0.015136719,-0.9963989,0.08148193,-0.609375,-0.46875,-0.34375
1664895728278,-0.017333984,-1.0115356,0.08319092,0.46875,-0.421875,-0.203125
1664895728306,-0.0107421875,-0.9944458,0.078063965,0.828125,-0.640625,-0.15625
1664895728354,-0.013427734,-0.9944458,0.08441162,0.71875,-0.140625,-0.25
1664895728383,-0.0053710938,-1.00177,0.08270264,-0.375,-0.21875,-0.21875
1664895728460,-0.026123047,-1.0022583,0.0836792,1.296875,-0.546875,-0.015625
1664895728470,-0.0012207031,-0.99176025,0.070495605,-3.0,-0.8125,-0.734375
1664895728502,-0.02319336,-1.0046997,0.09564209,1.453125,-0.375,-0.1875
1664895728546,-0.02319336,-1.0015259,0.07489014,-0.984375,-0.59375,-0.296875
1664895728591,-0.017089844,-0.9949341,0.08319092,-0.421875,-0.671875,-0.359375
1664895728622,-0.011474609,-1.0005493,0.08709717,-0.03125,-0.296875,-0.65625
1664895728666,-0.019042969,-1.0044556,0.08416748,-0.015625,0.046875,-0.046875
1664895728698,-0.020263672,-0.9990845,0.081726074,-1.8125,-0.90625,-0.6875
1664895728742,-0.022216797,-0.9963989,0.08709717,-0.625,-1.09375,-0.078125
1664895728787,-0.020507812,-1.0061646,0.0848999,-0.15625,-0.625,-0.359375
1664895728816,-0.024169922,-0.9985962,0.09051514,0.421875,0.15625,0.015625
1664895728863,-0.024414062,-0.99102783,0.09124756,0.765625,-0.34375,-0.15625
1664895728906,-0.025390625,-1.0005493,0.090026855,1.03125,-0.65625,-0.09375
1664895728938,-0.033447266,-0.99468994,0.09197998,0.390625,-0.59375,-0.296875
1664895728982,-0.011474609,-0.99298096,0.08709717,-0.40625,-1.109375,-0.3125
1664895729027,-0.019042969,-1.0012817,0.08538818,-1.609375,-0.8125,-0.484375
1664895729057,-0.021972656,-1.0007935,0.0914917,0.265625,-0.578125,-0.140625
1664895729101,-0.017578125,-0.987854,0.10076904,0.46875,0.03125,-0.171875
1664895729132,-0.028076172,-1.00177,0.08392334,-0.75,-0.75,0.015625
1664895729178,-0.020996094,-1.0027466,0.09075928,-1.421875,0.109375,-0.5625
1664895729222,-0.022460938,-1.0044556,0.09954834,0.625,-0.359375,0.171875
1664895729251,-0.020263672,-0.9898071,0.08929443,-1.53125,0.421875,-0.109375
1664895729299,-0.021484375,-1.0046997,0.09954834,-0.34375,0.25,-0.234375
1664895729342,-0.026611328,-1.0010376,0.1071167,-0.203125,0.265625,-0.109375
1664895729370,-0.015625,-0.98883057,0.101501465,-0.875,0.203125,-0.140625
1664895729418,-0.026611328,-0.9998169,0.09637451,-0.84375,0.4375,-0.203125
1664895729448,-0.021484375,-1.0027466,0.10345459,-0.921875,0.28125,0.0
1664895729493,-0.018798828,-0.99884033,0.105895996,-1.109375,0.1875,-0.25
1664895729537,-0.022705078,-0.9949341,0.1083374,0.0625,0.84375,0.09375
1664895729569,-0.021240234,-1.0029907,0.10784912,-0.484375,0.40625,-0.140625
1664895729611,-0.020019531,-1.0007935,0.11029053,-0.5625,0.5625,0.03125
1664895729659,-0.022216797,-0.99420166,0.11126709,-0.015625,0.578125,0.03125
1664895729688,-0.020996094,-1.0007935,0.105407715,0.03125,0.203125,0.15625
1664895729747,-0.022705078,-0.989563,0.10882568,-0.859375,0.171875,-0.0625
1664895729777,-0.02758789,-1.0049438,0.113708496,0.25,0.640625,-0.046875
1664895729808,-0.022216797,-0.991272,0.12347412,1.03125,0.765625,-0.015625
1664895729850,-0.017822266,-0.9961548,0.098083496,-1.1875,0.671875,0.171875
1664895729897,-0.01953125,-0.9937134,0.11444092,-1.890625,0.3125,-0.578125
1664895729927,-0.021728516,-1.0020142,0.12420654,2.203125,0.921875,0.4375
1664895729971,-0.016357422,-0.9873657,0.10760498,-0.03125,0.96875,-0.0625
1664895730001,-0.018310547,-0.9990845,0.116882324,0.546875,0.78125,0.046875
1664895730047,-0.022216797,-1.00177,0.117614746,-0.25,0.765625,0.0
1664895730092,-0.0234375,-0.9898071,0.12005615,1.21875,0.984375,0.0625
1664895730123,-0.020019531,-0.9937134,0.109069824,-0.265625,0.875,0.0625
1664895730167,-0.021484375,-1.0029907,0.11859131,0.6875,0.984375,0.03125
1664895730198,-0.021972656,-0.9961548,0.11444092,0.3125,0.671875,0.015625
1664895730241,-0.016357422,-0.99420166,0.109558105,1.640625,1.140625,0.09375
1664895730286,-0.018554688,-1.0007935,0.11224365,0.78125,0.46875,0.046875
1664895730317,-0.025878906,-0.9976196,0.112976074,0.546875,0.703125,0.0
1664895730363,-0.016357422,-0.9973755,0.11444092,0.765625,0.671875,0.0625
1664895730409,-0.014160156,-0.99298096,0.109802246,1.21875,1.15625,0.21875
1664895730436,-0.018554688,-0.9968872,0.11004639,0.65625,0.5,0.015625
1664895730483,-0.015380859,-0.9973755,0.10784912,0.921875,0.578125,0.21875
1664895730528,-0.017578125,-1.0046997,0.105163574,0.515625,1.03125,-0.234375
1664895730557,-0.016357422,-0.99224854,0.11541748,2.109375,0.4375,0.015625
1664895730601,-0.012451172,-0.9963989,0.105651855,-1.15625,0.234375,0.296875
1664895730630,-0.01586914,-0.9871216,0.109558105,-1.71875,0.546875,-0.546875
1664895730677,-0.022949219,-1.0037231,0.11859131,1.6875,0.65625,0.25
1664895730721,-0.021728516,-0.9944458,0.11029053,1.078125,0.734375,0.109375
1664895730751,-0.021240234,-0.9951782,0.1083374,0.0625,0.71875,0.0
1664895730796,-0.015380859,-0.9981079,0.117614746,0.109375,0.65625,0.21875
1664895730843,-0.017578125,-0.9944458,0.11419678,0.828125,0.578125,-0.09375
1664895730872,-0.011962891,-0.9951782,0.10687256,0.0,0.25,0.078125
1664895730918,-0.01977539,-1.0039673,0.11273193,0.328125,0.46875,-0.046875
1664895730947,-0.016357422,-0.9939575,0.109558105,0.984375,0.4375,0.0625
1664895731007,-0.014892578,-0.9968872,0.11102295,1.125,0.734375,0.09375
1664895731037,-0.020507812,-1.0025024,0.109802246,0.078125,0.203125,0.015625
1664895731067,-0.016357422,-0.9924927,0.105407715,0.578125,0.515625,-0.109375
1664895731110,-0.0034179688,-0.99664307,0.10882568,0.28125,0.53125,0.140625
1664895731157,-0.015136719,-0.9963989,0.10418701,0.515625,0.53125,0.15625
1664895731186,-0.016113281,-0.99957275,0.113220215,0.8125,0.609375,-0.0625
1664895731232,-0.017822266,-0.99713135,0.10662842,0.65625,0.21875,0.09375
1664895731278,-0.010498047,-0.99420166,0.10809326,0.234375,0.328125,0.03125
1664895731306,-0.01171875,-0.99713135,0.09881592,-0.328125,0.203125,-0.265625
1664895731351,-0.01977539,-0.99420166,0.11834717,1.90625,0.265625,0.328125
1664895731382,-0.0056152344,-0.99542236,0.10101318,-1.9375,-0.125,-0.125
1664895731427,-0.018554688,-0.991272,0.11541748,0.0625,-0.1875,-0.171875
1664895731470,-0.020507812,-1.0020142,0.109313965,-0.328125,-0.140625,-0.09375
1664895731503,-0.019042969,-0.9920044,0.11590576,-0.21875,-0.390625,-0.09375
1664895731547,-0.011230469,-0.9951782,0.109802246,-2.046875,-0.796875,-0.53125
1664895731591,-0.024414062,-1.0015259,0.11541748,-0.75,-0.734375,-0.09375
1664895731621,-0.017089844,-1.0010376,0.121520996,0.390625,-0.28125,-0.28125
1664895731667,-0.012451172,-0.9973755,0.11419678,-0.4375,-0.6875,-0.15625
1664895731697,-0.02734375,-0.99591064,0.11517334,0.8125,-0.25,-0.28125
1664895731740,-0.01171875,-1.0015259,0.121032715,0.671875,-0.046875,-0.09375
1664895731787,-0.014404297,-0.9963989,0.1161499,1.859375,0.1875,-0.03125
1664895731817,-0.020751953,-1.0005493,0.113708496,0.5625,-0.6875,-0.21875
1664895731863,-0.025878906,-0.9937134,0.11663818,0.09375,-0.6875,-0.21875
1664895731906,-0.016845703,-0.9968872,0.11810303,-1.0625,-0.828125,-0.453125
1664895731938,-0.01953125,-0.9990845,0.11810303,-1.4375,-0.921875,-0.484375
1664895731981,-0.021728516,-0.9920044,0.121032715,-0.34375,-0.53125,-0.421875
1664895732027,-0.01977539,-0.9993286,0.11834717,-0.078125,-0.078125,-0.234375
1664895732057,-0.018798828,-0.99884033,0.11883545,0.015625,-0.3125,-0.125
1664895732101,-0.022705078,-0.9927368,0.12030029,0.265625,-0.34375,0.0
1664895732130,-0.01928711,-0.9963989,0.11126709,-1.015625,-0.015625,-0.296875
1664895732178,-0.032226562,-0.99957275,0.12615967,1.828125,-0.03125,0.375
1664895732223,-0.0048828125,-0.98883057,0.10687256,-2.703125,0.328125,-0.296875
1664895732253,-0.03173828,-1.0088501,0.14251709,2.765625,0.34375,0.28125
1664895732299,-0.018066406,-0.9907837,0.1071167,-0.28125,0.40625,-0.21875
1664895732342,-0.020263672,-0.9937134,0.117126465,0.109375,0.34375,0.140625
1664895732372,-0.020751953,-1.005188,0.121032715,-0.234375,0.234375,-0.296875
1664895732418,-0.026855469,-0.9973755,0.12371826,1.03125,0.53125,0.1875
1664895732446,-0.016113281,-0.9951782,0.11810303,0.046875,0.5,-0.125
1664895732493,-0.01928711,-0.99713135,0.12957764,-0.6875,0.125,0.109375
1664895732537,-0.017333984,-0.99591064,0.1239624,0.046875,0.328125,-0.140625
1664895732568,-0.02368164,-0.9944458,0.117126465,0.609375,0.421875,-0.046875
1664895732614,-0.021972656,-0.99468994,0.124938965,0.34375,0.671875,-0.21875
1664895732657,-0.021728516,-0.9915161,0.12640381,0.21875,0.5,0.015625
1664895732687,-0.025634766,-0.9949341,0.12225342,-0.140625,0.28125,0.046875
1664895732732,-0.022705078,-1.0007935,0.12738037,0.046875,0.390625,-0.109375
1664895732763,-0.011962891,-1.0010376,0.12420654,0.890625,0.59375,0.15625
1664895732807,-0.01953125,-0.9963989,0.12786865,0.1875,0.859375,-0.0625
1664895732850,-0.025634766,-0.9963989,0.12640381,0.5625,0.625,0.171875
1664895732882,-0.020019531,-0.9949341,0.120788574,0.5,0.65625,-0.03125
1664895732929,-0.011474609,-0.9961548,0.12420654,0.34375,1.03125,-0.25
1664895732974,-0.0234375,-0.99468994,0.13494873,3.109375,0.890625,0.265625
1664895733001,-0.011474609,-0.99298096,0.10467529,-2.109375,0.828125,-0.171875
1664895733047,-0.020507812,-0.9939575,0.13104248,1.78125,1.1875,-0.4375
1664895733093,-0.020263672,-1.0005493,0.1227417,2.359375,1.109375,0.328125
1664895733122,-0.018310547,-0.9907837,0.116882324,0.796875,0.953125,-0.0625
1664895733166,-0.0234375,-0.9920044,0.11981201,1.296875,1.4375,0.109375
1664895733198,-0.01977539,-1.0090942,0.121520996,1.046875,1.0625,0.15625
1664895733241,-0.010253906,-0.99298096,0.11834717,1.328125,1.328125,-0.03125
1664895733288,-0.013916016,-0.99591064,0.11077881,0.046875,0.765625,0.109375
1664895733320,-0.01977539,-0.9963989,0.11981201,1.046875,1.171875,0.140625
1664895733361,-0.016845703,-0.9951782,0.11224365,1.625,1.0625,0.03125
1664895733409,-0.018310547,-0.9993286,0.1161499,1.640625,1.453125,0.125
1664895733437,-0.017578125,-1.0012817,0.11468506,1.515625,1.09375,0.21875
1664895733480,-0.01586914,-0.9961548,0.112976074,1.625,1.0,0.15625
1664895733514,-0.02368164,-1.00177,0.10809326,0.640625,0.921875,0.03125
1664895733573,-0.009277344,-0.9924927,0.10418701,1.53125,1.328125,0.171875
1664895733605,-0.012207031,-0.99786377,0.1083374,1.96875,1.140625,0.140625
1664895733634,-0.01928711,-0.9951782,0.10736084,1.3125,0.984375,0.0
1664895733677,-0.01586914,-0.9976196,0.10101318,0.796875,0.765625,0.140625
1664895733722,-0.008544922,-1.0025024,0.10736084,1.203125,0.84375,0.0625
1664895733752,-0.009521484,-0.9990845,0.10784912,1.6875,1.03125,-0.0625
1664895733796,-0.018798828,-1.0025024,0.10028076,2.171875,0.671875,0.484375
1664895733841,-0.005126953,-0.99468994,0.08905029,-1.984375,0.09375,-0.6875
1664895733872,-0.018798828,-1.0049438,0.097839355,2.796875,0.9375,0.078125
1664895733918,-0.011962891,-0.9932251,0.09613037,1.203125,0.609375,-0.109375
1664895733948,-0.014160156,-0.9998169,0.09246826,0.6875,0.625,0.09375
1664895733993,-0.008300781,-0.99713135,0.1005249,0.046875,0.46875,-0.171875
1664895734036,-0.013916016,-0.99884033,0.09613037,0.859375,0.65625,0.046875
1664895734069,-0.018066406,-0.9956665,0.09442139,0.125,0.484375,-0.25
1664895734113,-0.014404297,-0.9973755,0.09906006,0.890625,0.609375,-0.03125
1664895734158,-0.010986328,-0.99786377,0.10003662,0.203125,0.296875,-0.046875
1664895734187,-0.013916016,-0.9920044,0.093688965,0.484375,0.359375,0.0
1664895734232,-0.011962891,-0.9981079,0.10076904,0.015625,0.15625,-0.109375
1664895734260,-0.017333984,-0.9973755,0.09857178,-0.4375,-0.109375,-0.078125
1664895734308,-0.013916016,-0.9956665,0.094177246,-0.875,-0.28125,-0.21875
1664895734353,-0.009033203,-1.0046997,0.10028076,-0.890625,-0.34375,-0.28125
1664895734383,-0.010498047,-0.99224854,0.097595215,0.265625,-0.5625,-0.03125
1664895734427,-0.013671875,-0.9993286,0.10101318,-0.265625,-0.25,-0.109375
1664895734472,-0.0073242188,-0.9963989,0.09979248,-1.421875,-0.625,-0.28125
1664895734503,-0.010498047,-0.9939575,0.09954834,-0.109375,-0.4375,-0.3125
1664895734547,-0.0087890625,-0.99298096,0.11859131,1.546875,-0.65625,0.046875
1664895734623,-0.0107421875,-1.0007935,0.10321045,-1.890625,-0.9375,0.078125
1664895734627,-0.014160156,-0.98638916,0.10321045,-1.484375,-0.59375,-0.84375
1664895734667,-0.01977539,-1.0093384,0.11566162,2.25,0.109375,0.03125
1664895734697,-0.015625,-0.99102783,0.101257324,0.375,-0.265625,-0.109375
1664895734739,-0.012939453,-0.9968872,0.10638428,0.046875,-0.140625,-0.3125
1664895734786,-0.012939453,-1.0037231,0.11859131,-0.078125,-0.015625,-0.21875
1664895734816,-0.016845703,-0.9939575,0.10272217,-0.5,-0.203125,-0.390625
1664895734876,-0.015380859,-0.989563,0.11004639,-1.453125,-0.953125,-0.390625
1664895734906,-0.018310547,-1.0007935,0.113708496,-0.046875,-0.640625,-0.21875
1664895734938,-0.013427734,-1.0012817,0.11126709,0.03125,-0.140625,-0.421875
1664895734980,-0.021728516,-0.99298096,0.10809326,-0.28125,-0.125,-0.328125
1664895735011,-0.014160156,-0.99786377,0.11102295,-0.296875,-0.25,-0.125
1664895735056,-0.013916016,-1.0032349,0.109802246,-0.4375,-0.34375,-0.171875
1664895735101,-0.018310547,-0.9961548,0.116882324,-0.0625,-0.1875,-0.15625
1664895735134,-0.011962891,-0.9963989,0.11126709,1.125,0.078125,0.0
1664895735176,-0.020507812,-0.9932251,0.116882324,-0.109375,-0.0625,0.09375
1664895735221,-0.016601562,-1.0010376,0.1083374,0.46875,0.015625,-0.046875
1664895735252,-0.021972656,-0.9956665,0.11663818,0.890625,0.125,0.078125
1664895735297,-0.0126953125,-0.9973755,0.09857178,-1.4375,-0.09375,0.03125
1664895735342,-0.018798828,-1.0022583,0.11663818,-0.40625,0.140625,-0.484375
1664895735371,-0.016113281,-1.0037231,0.11517334,0.875,-0.296875,0.03125
1664895735417,-0.011962891,-0.9846802,0.1083374,-0.71875,0.484375,-0.15625
1664895735447,-0.017578125,-0.9963989,0.11932373,-0.390625,0.453125,-0.21875
1664895735492,-0.026123047,-1.0005493,0.12689209,0.375,0.015625,-0.03125
1664895735540,-0.015136719,-0.9924927,0.12225342,-0.78125,0.09375,-0.171875
1664895735568,-0.020996094,-1.0015259,0.121276855,-0.9375,0.328125,-0.296875
1664895735611,-0.012939453,-1.000061,0.121276855,0.046875,0.1875,-0.078125
1664895735657,-0.012207031,-0.99346924,0.113464355,-0.1875,0.40625,-0.109375
1664895735687,-0.0146484375,-0.99224854,0.12030029,0.203125,0.703125,-0.0625
1664895735733,-0.022705078,-0.99786377,0.12176514,-0.546875,0.125,-0.078125
1664895735761,-0.012207031,-0.99664307,0.117370605,0.125,0.75,-0.0625
1664895735805,-0.021484375,-0.9998169,0.12542725,0.390625,0.640625,-0.203125
1664895735851,-0.024414062,-0.9998169,0.12713623,0.203125,0.78125,-0.015625
1664895735881,-0.01928711,-0.9968872,0.11956787,-0.078125,0.46875,0.0
1664895735927,-0.017578125,-0.9949341,0.12445068,-0.046875,0.984375,-0.28125
1664895735972,-0.026855469,-0.9915161,0.13665771,2.484375,0.703125,0.21875
1664895736002,-0.005126953,-0.99176025,0.11102295,-1.453125,0.6875,0.046875
1664895736047,-0.021728516,-0.99176025,0.13348389,-0.328125,0.390625,-0.390625
1664895736092,-0.018310547,-1.0054321,0.12298584,2.0625,1.203125,0.359375
1664895736124,-0.012451172,-0.9907837,0.12249756,0.625,0.796875,0.0625
1664895736168,-0.01953125,-0.9963989,0.121520996,0.84375,0.984375,0.09375
1664895736198,-0.01977539,-1.003479,0.13031006,0.765625,0.65625,0.046875
1664895736241,-0.016845703,-0.9944458,0.12249756,1.0,0.515625,0.03125
1664895736288,-0.015136719,-0.987854,0.11444092,0.171875,0.890625,0.078125
1664895736317,-0.017822266,-0.99786377,0.12445068,1.3125,1.203125,0.1875
1664895736363,-0.008300781,-0.9993286,0.12054443,1.015625,0.984375,0.109375
1664895736407,-0.021484375,-0.991272,0.1161499,1.28125,0.96875,-0.015625
1664895736437,-0.017089844,-0.9949341,0.121032715,0.9375,1.375,0.125
1664895736480,-0.013671875,-0.9932251,0.11956787,0.875,0.96875,-0.046875
1664895736514,-0.01977539,-0.9939575,0.11517334,1.171875,0.890625,0.0625
1664895736557,-0.0068359375,-0.9998169,0.109069824,1.421875,1.21875,0.171875
1664895736602,-0.01586914,-0.9927368,0.11126709,1.234375,0.65625,-0.0625
1664895736632,-0.005126953,-0.99468994,0.1083374,0.671875,1.109375,-0.109375
1664895736677,-0.01928711,-0.99468994,0.12200928,1.890625,0.75,0.375
1664895736722,-0.008544922,-0.9985962,0.10296631,-1.59375,0.5625,-0.078125
1664895736752,-0.020751953,-0.97979736,0.117126465,1.640625,1.109375,-0.234375
1664895736797,-0.017578125,-1.0054321,0.11639404,2.0625,1.203125,0.125
1664895736841,-0.012451172,-0.9998169,0.1071167,1.25,0.96875,0.015625
1664895736872,-0.016845703,-0.9915161,0.10638428,0.234375,0.71875,-0.140625
1664895736919,-0.014160156,-1.0071411,0.10662842,1.15625,0.5625,0.015625
1664895736947,-0.008056641,-1.006897,0.10345459,0.875,0.71875,-0.15625
1664895736993,-0.0087890625,-0.99542236,0.10858154,0.234375,0.5625,0.0
1664895737037,-0.01171875,-1.0032349,0.10345459,0.5625,0.359375,-0.34375
1664895737066,-0.012939453,-1.0012817,0.10418701,0.421875,0.453125,-0.15625
1664895737113,-0.00390625,-0.99664307,0.10394287,0.578125,0.3125,-0.234375
1664895737157,-0.017089844,-0.99957275,0.10076904,-0.09375,0.3125,0.0
1664895737186,-0.014160156,-0.99835205,0.10003662,-0.5,0.359375,-0.1875
1664895737234,-0.011230469,-0.9920044,0.105163574,0.34375,0.5625,-0.125
1664895737260,-0.0126953125,-0.9920044,0.098083496,0.359375,0.234375,-0.21875
1664895737307,-0.011962891,-1.00177,0.109558105,0.390625,0.109375,-0.140625
1664895737352,-0.008056641,-0.98760986,0.11224365,0.4375,-0.0625,-0.140625
1664895737381,-0.016113281,-1.0059204,0.10784912,0.46875,-0.21875,0.1875
1664895737427,-0.0126953125,-0.9898071,0.10491943,-1.734375,-0.140625,-0.703125
1664895737473,-0.0146484375,-1.0076294,0.11785889,1.75,-0.125,0.078125
1664895737501,-0.015136719,-0.99835205,0.105163574,-0.171875,-0.203125,-0.296875
1664895737547,-0.009521484,-0.99053955,0.113708496,-0.15625,-0.171875,-0.09375
1664895737592,-0.016601562,-1.0007935,0.116882324,-0.265625,-0.15625,-0.171875
1664895737622,-0.015625,-1.0022583,0.1083374,-0.546875,-0.28125,-0.15625
1664895737667,-0.010986328,-0.9976196,0.11151123,-1.109375,-0.75,-0.375
1664895737696,-0.020996094,-0.9993286,0.117370605,-0.109375,-0.65625,-0.25
1664895737741,-0.015625,-0.9973755,0.11663818,-0.03125,-0.578125,-0.28125
1664895737787,-0.017578125,-0.9939575,0.109802246,-0.078125,-0.421875,-0.109375
1664895737818,-0.012451172,-0.9976196,0.11175537,-0.59375,-1.109375,-0.4375
1664895737861,-0.029785156,-0.9932251,0.11175537,0.71875,-0.25,-0.328125
1664895737907,-0.016601562,-1.0007935,0.121032715,1.109375,0.28125,-0.0625
1664895737937,-0.009765625,-0.9949341,0.113464355,0.828125,0.3125,0.015625
1664895737981,-0.021728516,-0.99664307,0.11175537,0.203125,-0.03125,-0.046875
1664895738013,-0.017333984,-0.99884033,0.10858154,-0.546875,-0.21875,-0.4375
1664895738057,-0.020751953,-0.9949341,0.11785889,1.828125,-0.125,0.234375
1664895738101,-0.0053710938,-0.989563,0.10003662,-2.5,-0.21875,-0.5
1664895738132,-0.027832031,-1.0005493,0.13201904,1.796875,-0.25,-0.03125
1664895738176,-0.017822266,-0.9973755,0.10760498,0.53125,0.25,-0.390625
1664895738221,-0.01977539,-0.99053955,0.11224365,-0.203125,-0.140625,-0.046875
1664895738253,-0.017333984,-0.99542236,0.11639404,0.140625,0.234375,-0.140625
1664895738298,-0.023925781,-1.0020142,0.11517334,0.5625,0.46875,-0.046875
1664895738342,-0.014892578,-0.99176025,0.11566162,-0.203125,0.296875,-0.4375
1664895738371,-0.018066406,-0.9944458,0.11590576,-0.421875,0.28125,0.0625
1664895738417,-0.015625,-1.0022583,0.1149292,0.140625,0.421875,-0.21875
1664895738494,-0.022949219,-1.0005493,0.12371826,0.125,0.234375,0.03125
1664895738498,-0.020507812,-0.99786377,0.120788574,-0.046875,0.359375,-0.078125
1664895738538,-0.017089844,-0.99176025,0.11907959,-0.421875,0.40625,-0.03125
1664895738568,-0.026367188,-0.9927368,0.12225342,0.234375,0.375,-0.09375
1664895738611,-0.017333984,-0.9961548,0.11785889,0.4375,0.765625,0.046875
1664895738657,-0.016357422,-0.99884033,0.12591553,1.3125,0.953125,0.203125
1664895738687,-0.014404297,-0.9951782,0.1227417,0.4375,1.0625,-0.1875
1664895738731,-0.029785156,-1.0015259,0.12884521,2.046875,0.546875,0.421875
1664895738761,-0.001953125,-0.9920044,0.10369873,-2.671875,0.90625,-0.15625
1664895738808,-0.03149414,-0.99591064,0.13226318,2.5,0.8125,-0.015625
1664895738851,-0.013671875,-0.99957275,0.11468506,1.859375,1.328125,0.0625
1664895738882,-0.016357422,-0.9961548,0.11566162,0.703125,0.8125,0.078125
1664895738929,-0.02319336,-0.9949341,0.124938965,1.125,1.265625,-0.125
1664895738971,-0.025146484,-1.0025024,0.11444092,1.296875,1.375,0.171875
1664895739001,-0.011962891,-0.99224854,0.113464355,1.671875,0.890625,-0.15625
1664895739049,-0.017822266,-0.9973755,0.11126709,0.421875,1.21875,0.3125
1664895739093,-0.013427734,-1.0003052,0.10760498,1.25,1.09375,-0.015625
1664895739123,-0.022460938,-0.9968872,0.10467529,2.171875,1.28125,0.171875
1664895739168,-0.017822266,-0.99468994,0.10784912,1.015625,1.359375,0.3125
1664895739196,-0.013183594,-0.9990845,0.10101318,2.140625,1.40625,0.03125
1664895739242,-0.012207031,-1.0025024,0.10369873,0.90625,0.84375,-0.015625
1664895739287,-0.021728516,-0.9981079,0.105895996,1.28125,0.890625,0.328125
1664895739317,-0.011474609,-0.9949341,0.10491943,0.65625,0.859375,0.109375
1664895739361,-0.0126953125,-0.9949341,0.09588623,1.25,1.203125,-0.046875
1664895739421,-0.020751953,-1.0022583,0.11224365,2.703125,1.28125,0.078125
1664895739437,-0.013427734,-1.0012817,0.098083496,0.421875,0.71875,0.3125
1664895739482,-0.013671875,-0.9898071,0.0848999,-0.390625,1.078125,-0.453125
1664895739512,-0.010986328,-1.0073853,0.10321045,3.3125,1.625,0.359375
1664895739557,-0.014404297,-0.9920044,0.097351074,1.71875,1.78125,0.140625
1664895739601,-0.014160156,-0.9961548,0.08929443,0.984375,0.921875,0.203125
1664895739633,-0.0107421875,-1.005188,0.09466553,0.171875,0.84375,-0.046875
1664895739676,-0.010498047,-1.0015259,0.101501465,1.1875,1.25,0.0
1664895739722,-0.011962891,-0.9920044,0.09564209,0.03125,0.640625,0.015625
1664895739751,-0.00390625,-1.0007935,0.098083496,1.640625,0.828125,0.09375
1664895739798,-0.01171875,-0.9927368,0.09881592,0.8125,0.671875,0.140625
1664895739826,-0.01171875,-1.000061,0.09246826,0.265625,0.28125,0.015625
1664895739873,-0.013427734,-0.9973755,0.08782959,-0.234375,-0.1875,-0.0625
1664895739918,-0.008544922,-1.003479,0.09515381,1.015625,-0.09375,-0.109375
1664895739947,-0.0146484375,-0.9985962,0.08905029,-0.1875,-0.34375,-0.1875
1664895739993,-0.015136719,-0.9961548,0.09564209,-0.390625,-0.53125,-0.015625
1664895740039,-0.008300781,-1.0007935,0.09075928,0.34375,-0.59375,0.03125
1664895740068,-0.010986328,-0.9976196,0.09539795,-1.109375,-0.6875,-0.40625
1664895740112,-0.021728516,-1.0044556,0.10809326,0.59375,-1.265625,-0.0625
1664895740157,-9.765625E-4,-0.99884033,0.085632324,-5.90625,-1.828125,-0.421875
1664895740187,-0.014404297,-0.9976196,0.10736084,0.921875,-0.9375,-0.375
1664895740232,-0.013916016,-1.0081177,0.10736084,1.203125,-0.21875,-0.296875
1664895740261,-0.012207031,-0.98638916,0.10076904,-0.328125,-0.09375,-0.21875
1664895740307,-0.0041503906,-0.99786377,0.101989746,-0.859375,-0.515625,-0.46875
1664895740352,-0.022949219,-1.0066528,0.11175537,-0.25,-0.109375,-0.140625
1664895740380,-0.015625,-0.9937134,0.10394287,-0.53125,-1.265625,-0.375
1664895740427,-0.020263672,-0.99884033,0.10443115,-1.0625,-1.015625,-0.59375
1664895740473,-0.026855469,-0.9998169,0.11566162,-1.15625,-0.515625,-0.53125
1664895740503,-0.019042969,-0.9998169,0.105163574,-0.0625,-0.921875,-0.28125
1664895740547,-0.009277344,-0.99884033,0.109069824,-0.3125,-0.875,-0.65625
1664895740576,-0.0146484375,-0.9976196,0.11224365,-1.25,-0.734375,-0.625
1664895740623,-0.02319336,-0.99468994,0.10858154,-0.625,-0.296875,-0.484375
1664895740667,-0.018066406,-0.99224854,0.11810303,0.46875,-0.234375,-0.375
1664895740698,-0.020263672,-1.000061,0.11273193,-1.28125,-0.375,-0.484375
1664895740741,-0.02319336,-1.0029907,0.11590576,-0.296875,0.125,-0.546875
1664895740788,-0.026367188,-0.98687744,0.12860107,0.703125,-0.140625,-0.421875
1664895740816,-0.030761719,-1.003479,0.10443115,-0.90625,-0.40625,-0.03125
1664895740861,-0.021728516,-0.99786377,0.11834717,-0.078125,0.265625,-0.5
1664895740908,-0.022705078,-0.99786377,0.117614746,1.859375,-0.1875,-0.046875
1664895740937,-0.024169922,-0.9834595,0.11053467,-0.109375,0.3125,-0.140625
1664895740981,-0.024169922,-0.9968872,0.11468506,-0.046875,-0.109375,-0.21875
1664895741014,-0.018798828,-1.0044556,0.11859131,0.53125,0.375,-0.078125
1664895741057,-0.01928711,-0.99591064,0.11541748,-0.0625,0.3125,-0.078125
1664895741102,-0.01977539,-0.9939575,0.113220215,-0.921875,0.3125,-0.078125
1664895741131,-0.019042969,-0.9949341,0.11907959,0.140625,0.59375,-0.046875
1664895741177,-0.029785156,-0.99542236,0.11785889,0.265625,0.46875,0.0625
1664895741253,-0.022216797,-1.000061,0.12176514,0.140625,0.578125,-0.046875
1664895741255,-0.022460938,-1.0012817,0.11956787,-0.21875,0.390625,-0.109375
1664895741297,-0.02368164,-0.9932251,0.121276855,-0.359375,0.6875,-0.203125
1664895741327,-0.028076172,-0.9951782,0.12445068,-0.09375,0.6875,0.109375
1664895741371,-0.025146484,-0.9956665,0.11907959,-0.59375,0.421875,-0.109375
1664895741417,-0.0234375,-0.9932251,0.1251831,0.328125,0.515625,0.109375
1664895741448,-0.016601562,-0.9963989,0.12445068,-0.0625,1.171875,-0.078125
1664895741491,-0.032226562,-0.9973755,0.14105225,2.328125,0.625,0.40625
1664895741536,-0.0078125,-1.0007935,0.11102295,-3.546875,0.328125,-0.046875
1664895741567,-0.03125,-0.99053955,0.13885498,2.03125,1.15625,-0.09375
1664895741611,-0.025146484,-1.0039673,0.121520996,2.125,0.890625,0.265625
1664895741688,-0.020751953,-0.9849243,0.12200928,0.46875,0.703125,0.078125
1664895741691,-0.017822266,-0.99591064,0.12567139,-0.0625,0.453125,-0.234375
1664895741731,-0.024658203,-1.0042114,0.12884521,0.828125,0.515625,0.359375
1664895741762,-0.016601562,-0.99713135,0.12030029,1.765625,0.984375,-0.109375
1664895741807,-0.020507812,-0.989563,0.121276855,0.34375,0.734375,0.015625
1664895741854,-0.01586914,-1.0010376,0.12640381,0.71875,0.96875,0.015625
1664895741881,-0.014404297,-0.99298096,0.11956787,1.015625,0.90625,0.125
1664895741929,-0.022216797,-0.9939575,0.12420654,1.21875,0.875,0.09375
1664895741973,-0.020263672,-1.000061,0.11541748,0.890625,0.84375,0.125
1664895742001,-0.022216797,-0.99542236,0.11956787,0.546875,0.921875,0.09375
1664895742050,-0.010498047,-0.9993286,0.11541748,0.875,0.90625,0.03125
1664895742077,-0.020263672,-0.99786377,0.11590576,1.171875,0.828125,0.203125
1664895742120,-0.020996094,-0.99786377,0.11859131,0.5625,0.703125,0.0625
1664895742167,-0.015625,-1.0020142,0.112976074,1.015625,1.359375,-0.125
1664895742196,-0.016601562,-0.9961548,0.11956787,2.59375,1.03125,0.0625
1664895742241,-0.010498047,-1.0066528,0.11395264,-0.40625,0.296875,0.21875
1664895742288,-0.014160156,-0.98565674,0.10687256,-0.953125,0.734375,-0.609375
1664895742317,-0.0126953125,-1.0105591,0.113464355,2.875,1.15625,0.140625
1664895742361,-0.019042969,-0.9937134,0.11102295,1.140625,0.984375,-0.078125
1664895742408,-0.01977539,-0.9985962,0.11126709,0.359375,0.671875,-0.078125
1664895742437,-0.0126953125,-0.9981079,0.11077881,0.84375,0.859375,-0.03125
1664895742481,-0.020751953,-1.0020142,0.11077881,1.296875,0.609375,-0.109375
1664895742513,-0.017333984,-0.99224854,0.11102295,-0.140625,0.703125,-0.171875
1664895742556,-0.017333984,-1.0039673,0.1149292,0.609375,0.625,-0.140625
1664895742601,-0.022705078,-0.9973755,0.10467529,1.171875,0.46875,-0.0625
1664895742632,-0.009765625,-1.000061,0.10345459,1.3125,0.875,0.09375
1664895742676,-0.0146484375,-0.99713135,0.105163574,0.4375,0.484375,0.0
1664895742737,-0.021972656,-0.99176025,0.10345459,0.9375,0.609375,-0.078125
1664895742751,-0.018798828,-1.000061,0.10858154,0.4375,0.75,0.0
1664895742798,-0.022216797,-1.0037231,0.109802246,0.453125,0.5625,-0.078125
1664895742826,-0.022460938,-0.9998169,0.09979248,0.25,0.1875,-0.125
1664895742870,-0.01928711,-0.9961548,0.105163574,0.109375,0.265625,-0.109375
1664895742916,-0.012451172,-1.0073853,0.101501465,-0.25,0.03125,-0.28125
1664895742947,-0.02319336,-0.9990845,0.11834717,1.59375,0.015625,0.125
1664895742991,-0.008544922,-0.99102783,0.101989746,-3.0625,-0.265625,-0.140625
1664895743036,-0.020751953,-0.9944458,0.11395264,0.265625,-0.1875,-0.234375
1664895743066,-0.024902344,-1.0012817,0.10858154,0.84375,-0.09375,-0.3125
1664895743112,-0.014892578,-0.9927368,0.11126709,-0.5625,-0.1875,-0.046875
1664895743157,-0.012939453,-0.9976196,0.10736084,-0.953125,-0.375,-0.296875
1664895743187,-0.018554688,-1.006897,0.116882324,0.875,-0.515625,0.0
1664895743234,-0.017822266,-0.9981079,0.11810303,0.28125,-0.421875,-0.125
1664895743261,-0.01953125,-0.99542236,0.11077881,-0.640625,-0.734375,-0.234375
1664895743308,-0.020507812,-0.9981079,0.11273193,0.671875,-0.28125,-0.203125
1664895743354,-0.017333984,-0.9981079,0.1149292,0.546875,-0.34375,-0.140625
1664895743381,-0.020019531,-0.9924927,0.1083374,0.53125,-0.46875,-0.015625
1664895743427,-0.020263672,-0.99957275,0.11175537,-0.703125,-1.0,-0.421875
1664895743473,-0.020996094,-1.000061,0.11639404,-0.3125,-0.65625,-0.1875
1664895743502,-0.016113281,-0.99591064,0.11175537,-0.828125,-0.515625,-0.265625
1664895743547,-0.02319336,-1.0027466,0.11834717,0.203125,-0.484375,-0.046875
1664895743577,-0.018310547,-0.9963989,0.11663818,1.078125,-0.1875,-0.078125
1664895743621,-0.019042969,-0.9963989,0.11273193,-0.265625,-0.28125,-0.203125
1664895743666,-0.018798828,-1.0025024,0.12445068,0.75,0.421875,-0.125
1664895743697,-0.021484375,-0.99176025,0.12689209,0.921875,0.0625,-0.09375
1664895743740,-0.021484375,-1.000061,0.11151123,-1.234375,-0.21875,0.0
1664895743817,-0.024658203,-0.99542236,0.11810303,-0.578125,0.0625,-0.421875
1664895743821,-0.025634766,-1.005188,0.12005615,1.078125,-0.328125,-0.25
1664895743862,-0.013671875,-0.98223877,0.11175537,-0.796875,0.484375,-0.046875
1664895743908,-0.016845703,-1.0015259,0.12005615,-0.4375,0.4375,-0.171875
1664895743937,-0.021728516,-1.0005493,0.13128662,0.125,0.671875,0.15625
1664895743981,-0.016357422,-0.9902954,0.12322998,-0.203125,0.359375,-0.21875
1664895744015,-0.020751953,-0.99664307,0.11956787,-1.109375,0.5,-0.15625
1664895744057,-0.021240234,-0.9993286,0.12762451,0.125,0.578125,0.03125
1664895744102,-0.018066406,-0.9915161,0.12322998,0.1875,0.484375,-0.015625
1664895744133,-0.017822266,-0.99224854,0.12371826,0.328125,0.671875,-0.125
1664895744177,-0.019042969,-0.9973755,0.12615967,-0.109375,0.578125,0.03125
1664895744222,-0.025146484,-0.9898071,0.12591553,0.046875,0.5,-0.15625
1664895744252,-0.016113281,-0.9993286,0.12005615,0.4375,1.0625,-0.0625
1664895744313,-0.021240234,-1.0005493,0.13006592,0.703125,1.109375,0.0
1664895744326,-0.021240234,-0.9951782,0.1227417,1.21875,1.015625,-0.140625
1664895744373,-0.022705078,-1.0027466,0.120788574,0.8125,0.734375,0.0625
1664895744417,-0.01977539,-0.99591064,0.12054443,0.875,1.171875,-0.0625
1664895744449,-0.012939453,-0.9873657,0.12200928,0.421875,1.390625,-0.34375
1664895744491,-0.026611328,-1.0010376,0.12713623,2.765625,0.6875,0.5625
1664895744537,-0.0068359375,-0.9885864,0.10272217,-3.03125,0.1875,-0.578125
1664895744567,-0.030029297,-1.0064087,0.13568115,3.75,1.390625,0.3125
1664895744611,-0.022216797,-0.9949341,0.117614746,0.703125,1.15625,0.0625
1664895744658,-0.020751953,-1.0007935,0.109558105,0.96875,0.875,0.03125
1664895744688,-0.017333984,-0.9985962,0.121520996,-0.421875,0.734375,-0.140625
1664895744733,-0.01977539,-1.0037231,0.117614746,1.15625,0.9375,0.0
1664895744762,-0.0107421875,-0.99835205,0.11395264,0.34375,0.5,0.03125
1664895744807,-0.020507812,-0.9985962,0.11419678,0.484375,0.78125,0.265625
1664895744851,-0.015625,-0.9951782,0.11248779,0.96875,0.78125,-0.03125
1664895744882,-0.012451172,-0.99542236,0.11541748,1.28125,0.796875,0.140625
1664895744928,-0.008544922,-0.99224854,0.11859131,0.9375,0.46875,0.109375
1664895744970,-0.024902344,-0.9963989,0.11663818,0.625,0.8125,0.03125
1664895745002,-0.016601562,-0.99884033,0.10736084,0.59375,0.625,-0.015625
1664895745047,-0.01171875,-0.9951782,0.11175537,1.109375,0.921875,0.0625
1664895745080,-0.012939453,-1.0012817,0.11590576,0.9375,0.671875,-0.125
1664895745123,-0.022705078,-0.99786377,0.1161499,1.171875,0.75,0.015625
1664895745169,-0.01977539,-0.99835205,0.10760498,0.609375,0.734375,0.03125
1664895745200,-0.010986328,-0.99468994,0.109802246,0.34375,0.59375,-0.0625
1664895745241,-0.017822266,-0.9998169,0.105651855,0.78125,0.8125,-0.1875
1664895745288,-0.018798828,-1.0003052,0.11419678,2.265625,0.515625,0.171875
1664895745318,-0.009521484,-1.0012817,0.105651855,-1.875,0.21875,0.15625
1664895745362,-0.015380859,-0.9907837,0.11151123,-0.1875,0.453125,-0.328125
1664895745408,-0.021972656,-1.0007935,0.11053467,1.515625,0.734375,-0.078125
1664895745438,-0.021728516,-0.9993286,0.105163574,0.609375,0.765625,-0.21875
1664895745481,-0.010498047,-0.9985962,0.1161499,-0.21875,0.40625,0.03125
1664895745557,-0.020263672,-0.99835205,0.109558105,-0.015625,0.28125,-0.21875
1664895745561,-0.01953125,-0.99420166,0.11541748,0.703125,0.15625,-0.0625
1664895745600,-0.010009766,-0.9985962,0.11004639,-0.453125,-0.234375,-0.21875
1664895745633,-0.020263672,-1.0046997,0.12298584,0.15625,-0.125,-0.28125
1664895745678,-0.020263672,-1.0042114,0.113708496,0.171875,-0.1875,-0.046875
1664895745723,-0.009277344,-0.9956665,0.116882324,0.359375,-0.375,-0.15625
1664895745752,-0.022216797,-0.9981079,0.11517334,-0.53125,-0.84375,-0.21875
1664895745799,-0.020019531,-0.9990845,0.11907959,-1.375,-1.03125,-0.140625
1664895745827,-0.018310547,-0.9956665,0.117126465,-1.671875,-0.828125,-0.15625
1664895745872,-0.028076172,-0.9963989,0.124694824,0.1875,-0.296875,-0.1875
1664895745918,-0.018798828,-1.0039673,0.1239624,-0.078125,-0.375,-0.1875
1664895745947,-0.01977539,-0.9961548,0.12371826,0.015625,-0.46875,-0.171875
1664895745992,-0.025390625,-0.9976196,0.121032715,-0.328125,-0.59375,-0.171875
1664895746036,-0.01928711,-0.99884033,0.12298584,1.9375,-0.125,-0.015625
1664895746067,-0.01928711,-0.9902954,0.12835693,0.828125,0.15625,-0.234375
1664895746112,-0.032226562,-0.9968872,0.12249756,-0.03125,-0.609375,0.171875
1664895746158,-0.004638672,-0.9837036,0.11468506,-3.75,-1.1875,-1.0
1664895746186,-0.022216797,-0.99884033,0.13006592,1.6875,-0.75,0.0
1664895746233,-0.019042969,-0.9898071,0.121276855,-1.484375,-0.203125,-0.25
1664895746261,-0.020751953,-0.9968872,0.12664795,-2.109375,-1.015625,-0.34375
1664895746307,-0.0234375,-1.0044556,0.13323975,-4.046875,-0.921875,-0.671875
1664895746369,-0.026367188,-0.99542236,0.14251709,-2.578125,-0.59375,-0.421875
1664895746380,-0.018798828,-0.9985962,0.12908936,-0.359375,-0.5,-0.296875
1664895746427,-0.028076172,-0.9981079,0.14007568,0.125,-0.171875,-0.015625
1664895746473,-0.018798828,-0.9956665,0.14251709,-0.390625,-0.21875,-0.34375
1664895746501,-0.020507812,-0.9837036,0.13812256,0.453125,0.234375,-0.078125
1664895746546,-0.024414062,-1.000061,0.14202881,0.046875,0.125,-0.328125
1664895746577,-0.020263672,-0.9915161,0.1359253,-0.078125,0.109375,-0.171875
1664895746622,-0.022949219,-1.0007935,0.1408081,-0.078125,0.609375,-0.1875
1664895746667,-0.025878906,-0.99591064,0.14129639,-0.5,0.328125,-0.109375
1664895746697,-0.03100586,-0.9968872,0.1486206,0.609375,0.484375,0.0
1664895746740,-0.021240234,-0.99713135,0.14520264,0.28125,0.421875,0.015625
1664895746786,-0.02368164,-0.99468994,0.14178467,-0.484375,0.1875,-0.015625
1664895746817,-0.024169922,-1.0039673,0.14447021,0.640625,0.328125,-0.25
1664895746861,-0.020751953,-0.9898071,0.14715576,1.21875,0.703125,0.109375
1664895746892,-0.017089844,-0.99053955,0.13641357,-0.625,0.03125,0.015625
1664895746936,-0.026123047,-0.986145,0.14129639,-2.03125,0.453125,-0.609375
1664895746982,-0.02734375,-1.0042114,0.15252686,3.03125,1.015625,0.3125
1664895747011,-0.021972656,-0.9846802,0.14129639,0.71875,1.40625,0.0625
1664895747057,-0.017333984,-0.9927368,0.14324951,1.125,1.390625,0.03125
1664895747102,-0.023925781,-0.99957275,0.14788818,0.828125,1.0,0.09375
1664895747132,-0.027832031,-0.991272,0.1408081,1.890625,1.4375,0.109375
1664895747177,-0.025146484,-0.99298096,0.1317749,0.3125,0.921875,-0.078125
1664895747223,-0.022460938,-0.9939575,0.15228271,1.234375,1.125,0.078125
1664895747252,-0.020019531,-1.0015259,0.13787842,1.421875,1.5,0.140625
1664895747297,-0.015380859,-0.98883057,0.13787842,1.734375,1.296875,0.0
1664895747328,-0.020263672,-0.9939575,0.13861084,2.171875,1.21875,0.1875
1664895747374,-0.024902344,-0.9963989,0.13446045,1.9375,0.96875,-0.046875
1664895747418,-0.022460938,-0.99102783,0.13104248,1.265625,1.3125,0.078125
1664895747447,-0.017089844,-0.99713135,0.12786865,2.140625,1.125,0.28125
1664895747491,-0.015380859,-0.9990845,0.12908936,1.171875,0.96875,-0.03125
1664895747537,-0.02319336,-0.9990845,0.12615967,1.4375,1.046875,0.25
1664895747567,-0.018554688,-0.99786377,0.11932373,0.984375,1.15625,0.03125
1664895747612,-0.017822266,-0.9990845,0.1281128,1.484375,1.140625,0.140625
1664895747640,-0.021240234,-0.9939575,0.12957764,2.109375,1.375,0.046875
1664895747688,-0.021728516,-1.0029907,0.12835693,1.25,0.3125,0.453125
1664895747733,-0.010498047,-0.98883057,0.105163574,-1.671875,0.234375,-0.796875
1664895747762,-0.020019531,-1.0112915,0.1227417,3.296875,1.296875,0.40625
1664895747808,-0.01586914,-0.9956665,0.11566162,1.953125,1.109375,0.0625
1664895747851,-0.019042969,-0.99420166,0.117614746,1.078125,0.90625,0.09375
1664895747882,-0.019042969,-1.0015259,0.12298584,1.125,0.6875,-0.015625
1664895747931,-0.018066406,-0.99713135,0.11981201,1.171875,0.78125,-0.0625
1664895747972,-0.019042969,-0.99176025,0.11273193,0.109375,0.28125,-0.0625
1664895748001,-0.014404297,-0.99884033,0.11541748,1.5625,0.78125,0.0625
1664895748047,-0.020751953,-0.9920044,0.11077881,0.53125,0.640625,-0.328125
1664895748078,-0.016357422,-1.0020142,0.11053467,1.21875,0.890625,0.15625
1664895748120,-0.016845703,-1.0003052,0.10736084,0.359375,0.390625,-0.0625
1664895748168,-0.013427734,-1.0003052,0.1161499,-0.0625,0.515625,-0.0625
1664895748197,-0.020019531,-1.0037231,0.11029053,-0.171875,0.3125,-0.21875
1664895748241,-0.024169922,-0.99713135,0.11248779,0.234375,0.1875,-0.0625
1664895748288,-0.011474609,-0.9998169,0.11224365,0.40625,0.21875,-0.109375
1664895748318,-0.0234375,-0.99542236,0.11517334,0.109375,-0.109375,0.078125
1664895748361,-0.020996094,-1.000061,0.11102295,-1.0,-0.53125,-0.140625
1664895748392,-0.01928711,-1.0012817,0.113464355,0.375,-0.125,-0.21875
1664895748436,-0.015625,-0.99176025,0.117614746,0.953125,0.171875,0.0
1664895748481,-0.021484375,-1.0020142,0.11859131,-0.75,-0.75,0.15625
1664895748512,-0.013916016,-0.9846802,0.10101318,-2.265625,-0.6875,-0.75
1664895748557,-0.01953125,-1.0042114,0.12860107,2.015625,-0.234375,0.046875
1664895748601,-0.020263672,-0.9932251,0.11273193,0.34375,0.046875,-0.03125
1664895748633,-0.013671875,-0.9949341,0.11541748,0.0625,-0.625,-0.09375
1664895748678,-0.017089844,-0.99957275,0.124938965,-0.9375,-0.9375,-0.25
1664895748754,-0.024658203,-0.99468994,0.11907959,0.46875,-0.53125,0.0625
1664895748756,-0.010498047,-0.9924927,0.11859131,1.203125,-0.171875,-0.109375
1664895748797,-0.01928711,-0.9976196,0.11932373,0.84375,0.09375,-0.15625
1664895748827,-0.015380859,-1.0025024,0.12005615,-0.21875,-0.609375,-0.375
1664895748872,-0.019042969,-0.99542236,0.11663818,0.125,-0.84375,-0.15625
1664895748930,-0.016845703,-0.9961548,0.12298584,0.046875,-0.515625,-0.21875
1664895748947,-0.020263672,-1.0012817,0.11541748,0.078125,-0.546875,-0.40625
1664895748992,-0.02319336,-0.9937134,0.11834717,-0.59375,-0.171875,-0.4375
1664895749039,-0.018798828,-0.9981079,0.11639404,-0.21875,-0.671875,-0.3125
1664895749067,-0.015136719,-0.99298096,0.12347412,0.515625,-0.546875,-0.25
1664895749113,-0.018066406,-0.989563,0.121276855,0.4375,-0.265625,-0.1875
1664895749142,-0.029541016,-0.99542236,0.12030029,0.328125,-0.140625,-0.140625
1664895749186,-0.014404297,-0.9993286,0.112976074,0.171875,-0.03125,-0.21875
1664895749233,-0.029785156,-0.99664307,0.13323975,1.40625,-0.015625,0.234375
1664895749261,-0.010009766,-0.98516846,0.11224365,-3.359375,0.1875,-0.296875
1664895749307,-0.037841797,-0.9990845,0.13861084,1.640625,0.140625,0.15625
1664895749353,-0.018554688,-0.98931885,0.1161499,0.734375,0.21875,-0.40625
1664895749382,-0.025878906,-0.99102783,0.1149292,-0.9375,0.328125,0.0
1664895749427,-0.017822266,-1.0010376,0.1281128,-0.390625,0.46875,-0.328125
1664895749472,-0.017089844,-1.0007935,0.12322998,0.5625,0.421875,-0.015625
1664895749502,-0.0107421875,-0.9883423,0.12689209,-0.625,0.5625,-0.171875
1664895749547,-0.026123047,-0.99835205,0.12786865,-0.75,0.265625,0.0625
1664895749578,-0.02709961,-0.9956665,0.12957764,0.390625,0.703125,-0.15625
1664895749623,-0.01977539,-0.9951782,0.12664795,-0.03125,0.953125,-0.140625
1664895749667,-0.021484375,-0.9883423,0.13543701,0.125,0.9375,0.109375
1664895749698,-0.030761719,-0.9968872,0.12786865,0.109375,0.375,-0.09375
1664895749741,-0.022216797,-0.9927368,0.1329956,-0.140625,0.5625,-0.1875
1664895749786,-0.02319336,-1.0003052,0.13348389,0.015625,0.765625,0.015625
1664895749819,-0.018310547,-0.9939575,0.12908936,0.90625,0.765625,0.3125
1664895749861,-0.02319336,-0.99713135,0.12860107,0.25,0.8125,0.015625
1664895749891,-0.02734375,-0.9841919,0.13348389,0.359375,0.828125,0.03125
1664895749937,-0.0146484375,-0.9973755,0.13226318,0.390625,1.234375,-0.203125
1664895749982,-0.031982422,-0.9968872,0.14129639,2.484375,1.03125,0.171875
1664895750012,-0.011474609,-0.99420166,0.11639404,-2.078125,0.265625,0.015625
1664895750057,-0.021972656,-0.9907837,0.13763428,0.40625,0.8125,-0.296875
1664895750102,-0.026367188,-1.0025024,0.13641357,1.71875,1.234375,0.203125
1664895750134,-0.026367188,-0.9902954,0.1227417,1.21875,1.015625,0.0625
1664895750176,-0.017822266,-0.9993286,0.12615967,1.453125,0.984375,0.0
1664895750236,-0.024658203,-1.0025024,0.12786865,0.921875,0.96875,0.21875
1664895750252,-0.016845703,-0.9963989,0.11932373,1.734375,1.265625,0.015625
1664895750297,-0.010253906,-0.98809814,0.121276855,0.671875,1.15625,-0.0625
1664895750328,-0.016357422,-1.0056763,0.12542725,1.578125,1.296875,-0.015625
1664895750372,-0.020507812,-1.0015259,0.121276855,0.9375,1.109375,0.015625
1664895750419,-0.018310547,-0.9937134,0.11785889,1.65625,1.09375,0.109375
1664895750446,-0.024414062,-0.9927368,0.11810303,1.109375,1.015625,0.140625
1664895750490,-0.020507812,-0.99957275,0.117370605,1.28125,1.125,-0.03125
1664895750536,-0.018066406,-0.9944458,0.12249756,0.640625,1.03125,0.171875
1664895750566,-0.017578125,-0.9932251,0.1161499,1.921875,0.96875,0.03125
1664895750614,-0.022705078,-0.9939575,0.11248779,1.71875,1.03125,0.046875
1664895750640,-0.012451172,-0.9961548,0.11126709,1.21875,1.09375,0.09375
1664895750688,-0.016357422,-0.99224854,0.10662842,1.5,0.953125,0.078125
1664895750731,-0.0107421875,-0.99591064,0.109069824,2.046875,1.578125,0.046875
1664895750761,-0.017089844,-0.99468994,0.11175537,2.484375,0.71875,0.5
1664895750807,-0.005859375,-0.991272,0.09539795,-1.921875,0.328125,-0.484375
1664895750852,-0.015380859,-1.0066528,0.11102295,3.0625,0.921875,0.390625
1664895750882,-0.016357422,-0.99468994,0.10223389,1.125,1.09375,0.015625
1664895750929,-0.016601562,-1.0005493,0.09588623,0.46875,0.671875,0.078125
1664895750971,-0.010498047,-0.99664307,0.105895996,-0.9375,0.078125,-0.21875
1664895751002,-0.019042969,-1.0022583,0.105407715,0.625,0.734375,0.125
1664895751049,-0.0126953125,-0.9968872,0.101257324,-0.0625,0.015625,-0.25
1664895751079,-0.01586914,-1.000061,0.10760498,0.59375,0.234375,0.21875
1664895751121,-0.018066406,-0.99713135,0.11126709,0.078125,0.140625,-0.28125
1664895751167,-0.017333984,-1.00177,0.10321045,0.015625,0.09375,-0.03125
1664895751197,-0.008056641,-0.9907837,0.11273193,0.125,-0.046875,-0.125
1664895751240,-0.017089844,-1.0022583,0.1071167,-0.25,0.15625,0.125
1664895751288,-0.025390625,-0.9985962,0.11273193,-0.703125,-0.0625,-0.234375
1664895751318,-0.016601562,-0.9985962,0.11029053,-0.203125,-0.0625,0.03125
1664895751361,-0.016601562,-0.99664307,0.109313965,0.15625,-0.1875,-0.203125
1664895751391,-0.017089844,-1.0005493,0.11444092,-0.28125,-0.015625,-0.1875
1664895751439,-0.0087890625,-0.99176025,0.11004639,-0.53125,-0.71875,-0.03125
1664895751497,-0.01953125,-1.0007935,0.11248779,-0.21875,-0.203125,-0.171875
1664895751512,-0.019042969,-0.9944458,0.11859131,1.09375,-0.53125,-0.046875
1664895751557,-0.013916016,-0.9944458,0.109802246,-2.15625,-0.859375,0.203125
1664895751600,-0.016357422,-0.99346924,0.11419678,-1.0625,-0.59375,-0.5
1664895751633,-0.016357422,-1.0025024,0.12664795,1.59375,-0.09375,-0.25
1664895751677,-0.014160156,-0.9854126,0.11273193,-0.046875,-0.046875,-0.0625
1664895751721,-0.013671875,-0.99957275,0.11273193,-0.078125,-0.65625,-0.109375
1664895751752,-0.016113281,-1.0105591,0.12591553,0.875,-0.484375,0.171875
1664895751796,-0.0234375,-0.99713135,0.117370605,0.453125,-0.03125,-0.171875
1664895751828,-0.015625,-0.99298096,0.11199951,-0.796875,-0.5,-0.1875
1664895751873,-0.021972656,-0.9902954,0.1161499,-0.046875,-0.46875,-0.28125
1664895751918,-0.018066406,-0.9990845,0.120788574,0.390625,-0.5,0.046875
1664895751947,-0.021972656,-0.99005127,0.121032715,-0.5625,-0.65625,-0.171875
1664895751992,-0.022216797,-0.99591064,0.12347412,0.421875,-1.015625,-0.15625
1664895752035,-0.021728516,-0.99542236,0.11907959,-0.421875,-0.859375,-0.453125
1664895752066,-0.009033203,-1.0003052,0.116882324,0.90625,-0.265625,-0.125
1664895752113,-0.025878906,-0.99346924,0.117126465,0.90625,0.125,-0.171875
1664895752143,-0.01953125,-0.99591064,0.12249756,0.375,0.0625,-0.109375
1664895752187,-0.018798828,-0.9976196,0.113464355,-0.359375,-0.296875,-0.234375
1664895752233,-0.02709961,-0.9981079,0.11956787,-0.40625,-0.296875,-0.21875
1664895752261,-0.015380859,-0.991272,0.12054443,-1.078125,0.0,-0.484375
1664895752307,-0.034179688,-0.99786377,0.13128662,0.96875,-0.15625,0.296875
1664895752352,-0.012939453,-0.99664307,0.12005615,-2.40625,0.484375,-0.421875
1664895752380,-0.030761719,-1.0049438,0.14105225,1.921875,-0.1875,0.359375
1664895752426,-0.017333984,-0.98638916,0.112976074,-0.40625,0.59375,-0.203125
1664895752473,-0.022216797,-0.9951782,0.11590576,0.15625,0.40625,-0.171875
1664895752504,-0.02368164,-1.0044556,0.13568115,0.09375,0.59375,-0.3125
1664895752548,-0.0234375,-0.989563,0.11981201,0.78125,0.25,0.0
1664895752622,-0.021972656,-0.99713135,0.12664795,-0.140625,0.625,-0.125
1664895752625,-0.02758789,-0.9963989,0.1281128,-0.40625,0.375,0.03125
1664895752667,-0.020507812,-0.9976196,0.12371826,0.53125,0.390625,-0.25
1664895752697,-0.020996094,-0.986145,0.121276855,-0.640625,0.53125,-0.171875
1664895752773,-0.02368164,-0.99835205,0.12884521,-0.203125,0.75,0.015625
1664895752786,-0.022949219,-0.99786377,0.12860107,0.0,0.484375,0.03125
1664895752818,-0.017578125,-0.99102783,0.124694824,-0.046875,0.734375,-0.09375
1664895752861,-0.02709961,-0.9951782,0.13079834,0.703125,1.09375,0.21875
1664895752892,-0.025878906,-0.9920044,0.12982178,0.921875,1.296875,0.03125
1664895752936,-0.028076172,-0.9915161,0.12689209,0.84375,1.265625,0.109375
1664895752982,-0.021728516,-0.99664307,0.12957764,0.703125,1.0625,0.203125
1664895753012,-0.011962891,-1.0007935,0.12957764,0.453125,1.28125,-0.1875
1664895753057,-0.03173828,-0.9885864,0.12957764,3.515625,1.171875,0.4375
1664895753101,-0.005859375,-0.9985962,0.11224365,-1.734375,0.875,-0.234375
1664895753132,-0.03149414,-0.991272,0.13372803,0.953125,1.296875,-0.15625
1664895753177,-0.020263672,-1.0093384,0.12664795,2.546875,1.578125,0.15625
1664895753223,-0.022949219,-0.9968872,0.112976074,1.375,1.015625,0.109375
1664895753253,-0.018310547,-0.99420166,0.12371826,0.65625,1.171875,-0.09375
1664895753297,-0.018798828,-1.0056763,0.11981201,1.109375,0.84375,0.171875
1664895753327,-0.012939453,-0.9961548,0.11907959,0.59375,0.640625,-0.28125
1664895753373,-0.016357422,-0.9956665,0.11151123,-0.140625,0.796875,-0.03125
1664895753417,-0.017578125,-1.0027466,0.12957764,1.21875,1.0625,-0.046875
1664895753448,-0.024169922,-0.99957275,0.12005615,1.203125,0.9375,0.1875
1664895753492,-0.021240234,-0.9944458,0.11541748,1.109375,1.109375,-0.171875
1664895753538,-0.01977539,-0.99542236,0.11517334,1.375,0.859375,0.140625
1664895753566,-0.015136719,-0.9973755,0.11517334,1.015625,0.9375,-0.078125
1664895753610,-0.021240234,-0.99420166,0.10760498,0.96875,1.171875,-0.109375
1664895753640,-0.012207031,-0.99884033,0.11273193,1.609375,1.109375,0.1875
1664895753687,-0.020751953,-0.9902954,0.11566162,0.96875,0.6875,0.15625
1664895753733,-0.01586914,-0.99664307,0.1071167,0.796875,0.875,0.046875
1664895753761,-0.011962891,-0.99591064,0.11199951,1.140625,0.609375,0.015625
1664895753807,-0.014160156,-0.99884033,0.12030029,1.703125,0.796875,0.0
1664895753851,-0.015380859,-1.0037231,0.10784912,0.421875,0.28125,0.46875
1664895753883,-0.011962891,-0.991272,0.10028076,-2.625,0.34375,-0.59375
1664895753927,-0.015380859,-1.0120239,0.11395264,2.6875,1.0,0.234375
1664895753958,-0.016357422,-0.9968872,0.11151123,1.171875,0.78125,-0.09375
1664895754002,-0.015136719,-0.99542236,0.10858154,0.4375,0.609375,0.015625
1664895754061,-0.016357422,-0.99884033,0.109313965,0.21875,0.5625,-0.015625
1664895754079,-0.018066406,-0.9993286,0.11175537,1.28125,0.578125,-0.09375
1664895754121,-0.013183594,-0.99176025,0.10736084,0.0,0.4375,0.0
1664895754167,-0.017089844,-0.9993286,0.10662842,0.890625,0.28125,-0.03125
1664895754197,-0.017822266,-0.99713135,0.105651855,0.453125,0.28125,-0.28125
1664895754242,-0.0068359375,-0.9956665,0.11053467,0.53125,0.421875,-0.046875
1664895754287,-0.014160156,-1.0005493,0.10736084,0.171875,-0.046875,-0.0625
1664895754317,-0.016601562,-0.99664307,0.105651855,-0.140625,0.203125,-0.234375
1664895754362,-0.010986328,-0.9981079,0.105895996,0.15625,0.359375,-0.03125
1664895754393,-0.017578125,-0.99884033,0.1083374,0.296875,-0.171875,-0.03125
1664895754437,-0.014892578,-0.9993286,0.10858154,0.03125,-0.234375,-0.171875
1664895754481,-0.011962891,-0.9976196,0.10882568,-0.484375,-0.1875,-0.15625
1664895754512,-0.015136719,-0.9944458,0.117370605,-0.84375,-0.75,-0.203125
1664895754556,-0.017578125,-0.99420166,0.11273193,-0.625,-0.484375,-0.171875
1664895754600,-0.0234375,-1.0027466,0.121032715,0.1875,-0.546875,0.359375
1664895754648,-0.0073242188,-0.9885864,0.10687256,-2.84375,-1.0625,-0.71875
1664895754677,-0.020996094,-1.0117798,0.12445068,2.25,-0.4375,0.078125
1664895754707,-0.022705078,-0.9963989,0.1071167,-0.015625,-0.1875,-0.234375
1664895754754,-0.016357422,-0.9932251,0.11932373,0.015625,-0.59375,-0.15625
1664895754797,-0.015136719,-0.9985962,0.12005615,-0.71875,-0.734375,-0.28125
1664895754826,-0.020751953,-1.0027466,0.117614746,0.890625,-0.109375,0.0
1664895754873,-0.011962891,-0.98394775,0.109802246,-1.8125,-0.953125,-0.328125
1664895754917,-0.016845703,-1.0005493,0.124938965,-2.421875,-0.65625,-0.328125
1664895754946,-0.01928711,-0.9937134,0.1383667,-3.0,-0.375,-0.296875
1664895754992,-0.02734375,-0.9939575,0.12738037,-0.296875,-0.734375,-0.328125
1664895755037,-0.011962891,-0.9973755,0.12640381,-0.515625,-0.640625,-0.421875
1664895755067,-0.021240234,-0.9902954,0.12640381,-0.046875,0.25,-0.125
1664895755113,-0.01953125,-0.99053955,0.1317749,0.09375,-0.078125,-0.140625
1664895755142,-0.026855469,-1.000061,0.13128662,1.0,0.453125,-0.28125
1664895755187,-0.017333984,-0.99542236,0.12371826,0.21875,0.078125,-0.078125
1664895755233,-0.024169922,-0.9937134,0.13348389,-0.09375,0.0625,-0.21875
1664895755262,-0.011474609,-0.99786377,0.13079834,-0.015625,0.21875,-0.234375
1664895755336,-0.020507812,-0.99835205,0.14178467,1.4375,0.0,0.0
1664895755352,-0.011230469,-0.9937134,0.117614746,-2.09375,0.03125,-0.171875
1664895755381,-0.021240234,-1.0049438,0.13494873,1.09375,0.125,-0.09375
1664895755426,-0.01928711,-1.0003052,0.12640381,1.078125,-0.078125,-0.1875
1664895755456,-0.01953125,-0.9898071,0.12664795,-0.65625,0.671875,0.03125
1664895755501,-0.024169922,-0.9981079,0.1329956,0.296875,0.453125,-0.328125
1664895755547,-0.021728516,-0.9976196,0.13787842,0.5,0.296875,0.015625
1664895755576,-0.013671875,-0.99591064,0.13250732,0.1875,0.671875,-0.203125
1664895755621,-0.026855469,-0.99884033,0.12982178,-0.484375,0.5,0.140625
1664895755666,-0.016845703,-0.9976196,0.13250732,0.296875,0.625,-0.09375
1664895755697,-0.010009766,-0.9902954,0.12982178,0.375,0.6875,-0.046875
1664895755741,-0.026611328,-0.9915161,0.13470459,0.8125,0.90625,-0.0625
1664895755817,-0.024169922,-0.9932251,0.13250732,0.328125,0.71875,0.046875
1664895755820,-0.01953125,-0.9920044,0.13104248,0.578125,1.171875,0.078125
1664895755861,-0.020751953,-0.9990845,0.13226318,1.21875,1.046875,-0.03125
1664895755892,-0.021972656,-1.0012817,0.13763428,1.609375,1.59375,0.171875
1664895755937,-0.020996094,-0.9937134,0.1317749,0.625,0.875,0.125
1664895755981,-0.016357422,-0.99713135,0.1317749,1.953125,0.984375,0.09375
1664895756011,-0.014404297,-0.9968872,0.13128662,0.453125,1.328125,-0.1875
1664895756056,-0.039794922,-1.0015259,0.13421631,2.921875,0.90625,0.625
1664895756103,-0.0017089844,-0.9927368,0.10687256,-3.078125,0.546875,-0.5625
1664895756133,-0.017578125,-0.9973755,0.14154053,3.734375,1.546875,0.125
1664895756178,-0.01977539,-0.9985962,0.12420654,1.828125,1.3125,-0.125
1664895756207,-0.018554688,-0.98638916,0.11932373,0.578125,0.84375,0.15625
1664895756253,-0.012939453,-0.9981079,0.12591553,1.125,1.09375,-0.046875
1664895756299,-0.01928711,-1.0032349,0.12176514,1.328125,1.15625,-0.0625
1664895756327,-0.017333984,-0.9920044,0.11907959,1.296875,0.8125,-0.3125
1664895756371,-0.014160156,-0.99420166,0.12005615,1.625,1.53125,0.09375
1664895756417,-0.018554688,-1.0029907,0.121032715,1.5625,1.34375,-0.03125
1664895756447,-0.020019531,-0.9985962,0.117126465,1.234375,1.4375,-0.15625
1664895756492,-0.016845703,-0.9990845,0.11517334,2.421875,1.484375,-0.21875
1664895756538,-0.009765625,-0.9961548,0.113220215,1.875,1.46875,-0.21875
1664895756566,-0.022216797,-0.9956665,0.109069824,0.6875,0.953125,-0.25
1664895756628,-0.01928711,-0.9976196,0.10418701,1.015625,0.890625,0.03125
1664895756641,-0.014892578,-0.9944458,0.10491943,1.546875,0.90625,-0.109375
1664895756686,-0.0107421875,-0.99420166,0.105163574,1.078125,1.125,-0.03125
1664895756732,-0.020507812,-0.9951782,0.105407715,1.109375,0.6875,0.0
1664895756760,-0.011474609,-0.99957275,0.10394287,0.109375,0.890625,-0.34375
1664895756807,-0.018066406,-0.9951782,0.116882324,2.171875,0.390625,0.34375
1664895756853,-0.0053710938,-0.99420166,0.09564209,-2.953125,0.078125,-0.28125
1664895756882,-0.01953125,-0.99664307,0.11981201,1.984375,0.21875,0.015625
1664895756927,-0.019042969,-1.003479,0.1071167,0.890625,0.828125,-0.34375
1664895756959,-0.018310547,-0.9924927,0.10272217,0.140625,0.078125,0.0
1664895757004,-0.015625,-1.0081177,0.10101318,-0.640625,0.03125,-0.078125
1664895757048,-0.024414062,-0.9981079,0.109558105,0.625,0.203125,0.109375
1664895757078,-0.016357422,-0.99224854,0.10491943,-0.15625,-0.53125,-0.265625
1664895757122,-0.014892578,-0.99664307,0.117126465,-0.46875,-0.375,0.34375
1664895757168,-0.029052734,-0.99468994,0.11444092,-1.546875,-0.953125,-0.015625
1664895757196,-0.015380859,-0.99420166,0.11053467,-0.75,-0.78125,0.109375
1664895757241,-0.0146484375,-0.9993286,0.117614746,-0.28125,-0.515625,-0.09375
1664895757288,-0.014892578,-0.9981079,0.117370605,-0.546875,-0.34375,0.046875
1664895757318,-0.018310547,-0.9990845,0.11248779,-0.828125,-0.390625,-0.171875
1664895757363,-0.017578125,-0.9968872,0.12030029,-0.796875,-0.328125,-0.09375
1664895757392,-0.017089844,-1.0005493,0.116882324,-0.078125,-0.46875,-0.0625
1664895757439,-0.013427734,-1.0010376,0.117370605,0.125,-0.34375,-0.015625
1664895757482,-0.017089844,-0.9963989,0.12298584,0.5625,-0.234375,0.171875
1664895757512,-0.0068359375,-0.9968872,0.11883545,-0.390625,-0.25,-0.265625
1664895757558,-0.022705078,-1.0003052,0.11883545,2.203125,-0.734375,0.390625
1664895757601,-0.010009766,-0.9898071,0.105895996,-1.765625,-0.765625,-0.375
1664895757633,-0.017822266,-1.0022583,0.121520996,3.375,0.0625,0.125
1664895757676,-0.018798828,-0.99957275,0.10858154,1.640625,0.1875,-0.140625
1664895757708,-0.009521484,-0.9961548,0.11224365,0.53125,0.0,-0.1875
1664895757752,-0.020019531,-1.0025024,0.11859131,-0.4375,-0.046875,-0.34375
1664895757799,-0.02368164,-1.0007935,0.1083374,1.21875,-0.1875,-0.140625
1664895757826,-0.0048828125,-0.9920044,0.105651855,0.46875,-0.328125,-0.296875
1664895757889,-0.016357422,-0.99468994,0.11859131,-0.421875,-0.203125,-0.0625
1664895757917,-0.021240234,-1.0012817,0.11102295,0.671875,0.15625,-0.1875
1664895757948,-0.013427734,-0.9963989,0.10418701,1.109375,-0.078125,-0.0625
1664895757992,-0.011230469,-0.9951782,0.1071167,-0.125,0.0,-0.171875
1664895758068,-0.020019531,-1.0012817,0.117614746,-0.09375,0.125,-0.078125
1664895758072,-0.019042969,-0.99176025,0.117370605,-0.296875,0.203125,-0.140625
1664895758113,-0.015380859,-0.9924927,0.11053467,-0.171875,0.375,-0.15625
1664895758142,-0.020996094,-0.9951782,0.11566162,-0.0625,0.390625,-0.21875
1664895758187,-0.020996094,-0.99420166,0.11883545,-0.4375,0.046875,0.046875
1664895758233,-0.019042969,-0.9949341,0.11029053,-0.546875,0.53125,-0.296875
1664895758262,-0.028076172,-0.9939575,0.12664795,1.0625,0.25,0.234375
1664895758307,-0.013183594,-0.99591064,0.10809326,-3.328125,0.125,-0.3125
1664895758353,-0.024902344,-1.000061,0.1317749,0.484375,0.65625,-0.265625
1664895758381,-0.020751953,-1.0010376,0.12249756,1.359375,0.875,0.0625
1664895758427,-0.01977539,-0.9927368,0.1161499,-0.84375,0.71875,-0.03125
1664895758457,-0.020507812,-1.003479,0.121032715,0.359375,0.984375,-0.15625
1664895758500,-0.019042969,-0.9981079,0.13470459,0.453125,0.875,0.1875
1664895758548,-0.014160156,-0.99420166,0.121520996,1.09375,0.9375,-0.125
1664895758577,-0.01928711,-0.9937134,0.121520996,-0.328125,0.90625,0.09375
1664895758621,-0.008300781,-1.008606,0.12689209,0.609375,0.984375,-0.046875
1664895758667,-0.019042969,-0.9993286,0.11859131,0.734375,1.28125,0.015625
1664895758696,-0.013427734,-0.9963989,0.12298584,1.625,1.078125,0.203125
1664895758741,-0.015136719,-0.99224854,0.12738037,1.171875,0.90625,-0.046875
1664895758787,-0.01586914,-0.9976196,0.11785889,0.9375,1.109375,-0.015625
1664895758817,-0.015136719,-0.9951782,0.11785889,0.96875,0.90625,0.015625
1664895758861,-0.016113281,-0.99542236,0.1149292,1.5,1.15625,0.25
1664895758893,-0.018066406,-1.0095825,0.12005615,0.703125,1.078125,0.09375
1664895758936,-0.015625,-0.99542236,0.11517334,1.5,0.8125,0.109375
1664895758980,-0.0041503906,-1.0037231,0.11224365,0.34375,1.21875,-0.140625
1664895759012,-0.024414062,-1.0027466,0.12030029,2.59375,0.9375,0.328125
1664895759057,-0.0036621094,-1.00177,0.10784912,-1.96875,0.390625,0.015625
1664895759103,-0.017578125,-0.99346924,0.12200928,0.546875,0.625,-0.078125
1664895759137,-0.016357422,-1.0064087,0.11248779,2.203125,1.1875,0.03125
1664895759177,-0.012939453,-0.99664307,0.10736084,0.8125,0.6875,-0.046875
1664895759207,-0.013671875,-1.0007935,0.10736084,-0.09375,0.671875,-0.296875
1664895759251,-0.014404297,-1.0012817,0.10760498,1.140625,0.9375,0.0625
1664895759298,-0.010498047,-1.0029907,0.117614746,0.890625,0.609375,-0.46875
1664895759327,-0.0126953125,-0.98883057,0.10321045,0.5,0.703125,-0.1875
1664895759373,-0.018798828,-1.0046997,0.1083374,1.625,1.109375,0.0
1664895759417,-0.011962891,-0.9944458,0.105163574,1.046875,0.78125,0.046875
1664895759447,-0.009277344,-0.9956665,0.11199951,0.921875,0.59375,0.15625
1664895759492,-0.0063476562,-1.000061,0.10760498,1.328125,-0.015625,0.34375
1664895759536,-0.018310547,-1.0061646,0.105407715,1.78125,-0.859375,0.453125
1664895759567,-0.028564453,-1.0022583,0.10003662,0.4375,-1.078125,0.484375
1664895759610,-0.03564453,-0.99176025,0.090270996,-1.09375,-0.25,0.328125
1664895759641,-0.005859375,-0.986145,0.10296631,0.859375,1.46875,0.34375
1664895759686,0.0024414062,-1.0010376,0.10369873,0.609375,0.671875,0.640625
1664895759732,-0.004638672,-1.0042114,0.1005249,0.53125,1.1875,0.28125
1664895759760,-0.013916016,-1.003479,0.11248779,1.5625,0.46875,0.734375
1664895759808,-0.005859375,-1.0007935,0.08343506,-2.359375,0.796875,0.28125
1664895759853,-0.0031738281,-0.9829712,0.09881592,-0.21875,1.28125,-0.671875
1664895759883,0.0014648438,-1.0122681,0.11175537,1.640625,1.375,-0.1875
1664895759927,-0.010009766,-0.9961548,0.10736084,0.296875,0.875,-0.484375
1664895759958,-0.005859375,-0.99713135,0.09906006,-0.4375,0.28125,-0.859375
1664895760001,-0.010253906,-0.99884033,0.11029053,0.390625,0.28125,-0.90625
1664895760046,-0.0048828125,-0.99346924,0.109802246,1.4375,-0.140625,-0.625
1664895760077,-0.0043945312,-0.9998169,0.10394287,0.21875,-1.09375,-0.546875
1664895760122,-0.011230469,-1.0115356,0.1071167,0.765625,-2.0,-0.171875
1664895760169,-0.040039062,-0.98931885,0.10662842,-0.359375,-1.578125,-0.578125
1664895760199,-0.024658203,-0.98272705,0.089782715,-0.515625,-0.734375,-0.5
1664895760241,-0.008544922,-0.9944458,0.10418701,-0.03125,0.0625,-0.71875
1664895760288,-0.0017089844,-0.9961548,0.11151123,0.4375,-0.21875,-0.203125
1664895760317,-0.016601562,-0.9907837,0.11273193,1.046875,-0.28125,0.03125
1664895760361,-0.021240234,-1.0039673,0.10394287,0.0625,-1.453125,0.1875
1664895760392,-0.034179688,-0.9985962,0.09515381,-1.4375,-1.03125,-0.359375
1664895760451,-0.018066406,-0.9885864,0.09857178,-0.4375,0.546875,-0.046875
1664895760482,2.4414062E-4,-0.9920044,0.10760498,-0.296875,1.140625,-0.109375
1664895760515,-0.022705078,-1.0132446,0.11151123,1.21875,0.09375,0.34375
1664895760557,-0.0017089844,-1.0012817,0.10076904,-3.34375,0.25,-0.25
1664895760600,-0.015380859,-0.9998169,0.12225342,2.375,0.125,0.28125
1664895760631,-0.01928711,-0.99835205,0.109558105,0.875,0.140625,0.09375
1664895760677,-0.012207031,-0.99420166,0.10345459,-0.46875,0.078125,0.3125
1664895760705,-0.020263672,-1.0042114,0.10687256,0.15625,0.734375,-0.171875
