# Sensor type: Respeck
# Activity type: Standing
# Activity code: 100
# Subject id: s1912575
# Notes: 
timestamp,accel_x,accel_y,accel_z,gyro_x,gyro_y,gyro_z
1664374429172,0.1628418,-1.0266724,0.09613037,-3.609375,-9.890625,4.421875
1664374429202,0.100097656,-0.93927,0.14422607,0.40625,-10.734375,6.046875
1664374429244,-0.03881836,-0.9768677,0.14520264,1.59375,-7.8125,0.828125
1664374429291,-0.15161133,-0.99664307,0.21136475,3.8125,2.421875,-2.125
1664374429321,0.025634766,-1.0049438,0.1293335,-0.75,7.6875,-1.796875
1664374429366,0.15820312,-1.0081177,0.14666748,2.0625,4.25,-0.28125
1664374429395,0.104003906,-0.99005127,0.18426514,2.90625,2.75,-1.03125
1664374429441,-0.04345703,-0.9968872,0.19891357,2.84375,1.59375,0.03125
1664374429487,-0.036621094,-0.97735596,0.1942749,0.8125,4.65625,-3.953125
1664374429517,0.026611328,-0.9873657,0.19866943,-0.625,5.875,-5.390625
1664374429561,0.10424805,-1.0264282,0.20184326,-4.859375,1.0,-3.4375
1664374429606,0.05078125,-1.006897,0.15570068,-1.328125,-0.09375,-1.6875
1664374429637,0.026123047,-0.9639282,0.16473389,2.015625,4.671875,-2.234375
1664374429682,0.06323242,-0.9793091,0.18035889,-0.890625,2.5625,-1.96875
1664374429712,0.07421875,-1.0159302,0.17010498,0.078125,-4.203125,-0.296875
1664374429756,0.044433594,-0.97247314,0.1828003,-1.0625,-2.296875,0.65625
1664374429801,0.034179688,-0.98321533,0.1774292,-2.859375,-2.796875,-0.9375
1664374429832,0.048828125,-0.98883057,0.17694092,-1.75,-3.171875,1.375
1664374429876,0.04736328,-0.975647,0.15985107,-1.46875,-5.3125,1.5
1664374429922,0.017333984,-0.9717407,0.20452881,-1.40625,-2.8125,1.015625
1664374429953,0.021972656,-0.9800415,0.20037842,-0.953125,-0.609375,0.390625
1664374429996,0.04321289,-1.0005493,0.18890381,-1.953125,-3.890625,0.703125
1664374430042,0.06640625,-0.98321533,0.19110107,-0.71875,-5.625,0.765625
1664374430073,-0.015625,-0.9793091,0.19720459,1.515625,-1.15625,0.640625
1664374430117,-0.0041503906,-0.9924927,0.2008667,1.03125,-0.109375,-0.765625
1664374430147,0.045166016,-0.9807739,0.18475342,0.71875,-0.1875,-1.765625
1664374430193,0.041259766,-0.97906494,0.2033081,1.515625,1.4375,0.0625
1664374430236,0.022216797,-0.9846802,0.20404053,-0.1875,-0.296875,-0.265625
1664374430268,0.024658203,-0.9883423,0.18060303,-0.453125,-0.421875,0.1875
1664374430313,0.044189453,-0.9702759,0.18011475,0.609375,1.0625,-0.359375
1664374430355,0.017089844,-0.991272,0.19525146,1.59375,1.96875,-0.0625
1664374430385,0.03857422,-0.9807739,0.18548584,1.28125,0.078125,-0.046875
1664374430433,0.042236328,-1.0022583,0.17889404,-0.15625,-0.40625,-0.625
1664374430463,0.01977539,-0.99884033,0.1954956,-0.0625,0.859375,0.546875
1664374430505,0.026855469,-0.9729614,0.18890381,1.0625,3.03125,0.828125
1664374430552,0.02709961,-0.97198486,0.19647217,-0.3125,1.046875,-0.046875
1664374430584,0.041748047,-0.9932251,0.19940186,0.328125,-0.875,0.765625
1664374430626,0.05493164,-0.9841919,0.20599365,-0.265625,-1.390625,0.34375
1664374430673,0.04663086,-0.9841919,0.20477295,-0.28125,-1.09375,1.390625
1664374430704,0.023925781,-0.97247314,0.18817139,-0.703125,-0.59375,-0.375
1664374430745,0.0107421875,-0.991272,0.20526123,0.203125,0.625,-0.828125
1664374430793,0.022460938,-0.9680786,0.199646,0.109375,1.4375,-0.46875
1664374430823,0.022460938,-1.0054321,0.20941162,-0.734375,1.1875,-1.40625
1664374430865,0.052001953,-1.0020142,0.2008667,-1.828125,-0.53125,-1.328125
1664374430897,0.013183594,-0.9871216,0.20916748,-0.5,2.40625,-0.921875
1664374430941,0.010498047,-0.97125244,0.1984253,-2.015625,0.96875,-1.296875
1664374430986,0.05444336,-0.99835205,0.20794678,-2.921875,0.78125,-1.140625
1664374431017,0.0625,-0.9937134,0.18621826,-4.734375,1.109375,-0.78125
1664374431062,0.0068359375,-0.9846802,0.22747803,0.921875,1.359375,0.53125
1664374431105,0.016113281,-0.9751587,0.230896,-0.171875,0.640625,0.234375
1664374431137,0.03881836,-0.9829712,0.21722412,-0.515625,0.0625,0.21875
1664374431183,0.034179688,-0.9795532,0.22503662,-0.0625,0.015625,-0.3125
1664374431213,0.02319336,-0.9795532,0.23626709,0.6875,1.03125,0.46875
1664374431256,0.013183594,-0.972229,0.2218628,0.71875,0.421875,0.28125
1664374431303,0.045654297,-0.9717407,0.20794678,0.75,0.359375,0.3125
1664374431332,0.015136719,-1.0010376,0.2074585,-2.328125,-0.796875,0.09375
1664374431376,0.026123047,-0.9846802,0.2164917,-0.5625,1.109375,0.03125
1664374431422,0.044189453,-0.9866333,0.22064209,0.40625,0.75,1.3125
1664374431452,0.043701172,-0.9631958,0.23382568,-1.25,0.25,0.421875
1664374431495,0.03515625,-0.96588135,0.22113037,-1.625,-0.171875,-0.125
1664374431542,0.032226562,-0.973938,0.24969482,1.078125,1.953125,-0.0625
1664374431571,0.033935547,-0.9702759,0.21087646,-2.03125,-2.234375,0.3125
1664374431617,0.043701172,-0.9890747,0.22943115,1.640625,-0.515625,-0.390625
1664374431646,0.044433594,-0.9788208,0.22796631,1.359375,0.0625,0.140625
1664374431692,0.020996094,-0.97540283,0.23602295,1.40625,0.4375,0.1875
1664374431736,0.03149414,-0.97003174,0.21917725,-0.4375,-1.125,-0.1875
1664374431765,0.03491211,-0.98101807,0.23236084,3.203125,0.765625,-0.3125
1664374431811,0.033935547,-0.97735596,0.21624756,1.984375,2.59375,0.390625
1664374431856,0.016357422,-0.9783325,0.21331787,2.640625,1.671875,-0.21875
1664374431886,0.044433594,-0.97442627,0.21429443,2.28125,2.09375,-0.296875
1664374431932,0.051757812,-0.9812622,0.21453857,2.796875,1.328125,0.21875
1664374431961,0.030029297,-0.9771118,0.2164917,1.28125,0.640625,0.234375
1664374432007,0.029785156,-0.98638916,0.21990967,-1.015625,0.328125,-0.03125
1664374432052,0.033203125,-1.0025024,0.2020874,0.53125,1.78125,-0.734375
1664374432083,0.008544922,-0.9783325,0.21820068,3.9375,1.234375,0.421875
1664374432124,0.032958984,-0.98150635,0.21331787,-0.234375,0.3125,0.46875
1664374432173,0.047607422,-0.9788208,0.20941162,0.5,0.40625,-0.359375
1664374432202,0.050048828,-1.0015259,0.21795654,0.71875,1.296875,0.0
1664374432245,0.016113281,-0.97735596,0.21502686,1.109375,0.421875,0.3125
1664374432293,0.020507812,-0.9692993,0.21356201,0.296875,-0.296875,0.03125
1664374432322,0.030273438,-0.9885864,0.22064209,0.0,0.046875,-0.109375
1664374432366,0.034423828,-0.9849243,0.20452881,-1.15625,-1.640625,0.46875
1664374432395,0.04248047,-0.9859009,0.19451904,1.359375,-0.703125,-0.078125
1664374432442,0.052734375,-0.9812622,0.20941162,-0.578125,1.125,-0.21875
1664374432487,0.020996094,-0.9780884,0.2177124,-0.578125,-0.25,-0.65625
1664374432517,0.041992188,-0.9890747,0.20770264,-1.328125,-0.40625,-0.984375
1664374432561,0.0390625,-0.9710083,0.21551514,-3.375,-1.125,-0.859375
1664374432606,0.020996094,-0.9859009,0.22479248,-1.171875,-0.96875,-1.625
1664374432640,0.0073242188,-0.9795532,0.22650146,0.65625,-0.015625,-0.984375
1664374432682,0.06225586,-0.96099854,0.21063232,1.84375,2.390625,0.375
1664374432712,0.026123047,-0.991272,0.20819092,-0.03125,0.734375,-1.046875
1664374432756,0.012207031,-0.9873657,0.22625732,1.78125,0.71875,0.15625
1664374432801,0.04321289,-0.97784424,0.21722412,0.9375,0.890625,0.046875
1664374432833,0.021484375,-0.9780884,0.21038818,-0.375,0.3125,0.21875
1664374432876,0.030029297,-0.9885864,0.23040771,2.9375,0.765625,-0.75
1664374432921,0.038085938,-0.9898071,0.20892334,2.0625,1.15625,0.609375
1664374432952,0.033203125,-0.97198486,0.20111084,1.8125,0.515625,0.03125
1664374432996,0.032958984,-0.9746704,0.1942749,1.734375,-0.421875,-0.8125
1664374433041,0.03125,-0.98760986,0.2074585,0.4375,0.25,-0.109375
1664374433071,0.036376953,-0.98101807,0.19744873,-0.53125,0.625,-0.5
1664374433116,0.038085938,-0.99005127,0.20501709,-0.109375,0.859375,-0.171875
1664374433144,0.024169922,-0.9866333,0.20672607,-0.671875,0.75,0.53125
1664374433191,0.032714844,-0.98223877,0.19989014,0.109375,0.078125,0.421875
1664374433239,0.03540039,-0.9834595,0.20965576,3.296875,-1.046875,0.421875
1664374433269,0.04663086,-0.98687744,0.19451904,0.609375,-0.03125,0.34375
1664374433314,0.004638672,-0.9788208,0.21258545,1.265625,2.296875,0.03125
1664374433356,0.064941406,-0.98223877,0.19012451,1.90625,-0.625,-0.265625
1664374433387,0.041503906,-0.98394775,0.20794678,1.125,-0.984375,-0.078125
1664374433433,0.037841797,-0.9837036,0.20721436,-1.375,-1.640625,-0.125
1664374433466,0.056640625,-0.98443604,0.19622803,-0.109375,-2.234375,0.15625
1664374433505,0.052246094,-0.97979736,0.20233154,0.890625,-0.640625,1.0
1664374433554,0.006591797,-0.98443604,0.2020874,0.1875,-0.625,0.421875
1664374433584,0.024414062,-0.9768677,0.2062378,1.90625,0.734375,-0.53125
1664374433626,0.024169922,-0.9885864,0.22332764,0.171875,1.015625,-0.6875
1664374433672,0.016357422,-0.9807739,0.20819092,-2.859375,1.1875,-0.625
1664374433705,0.036621094,-0.9907837,0.19866943,-1.71875,-0.078125,-1.0
1664374433746,0.045410156,-0.9841919,0.2218628,0.65625,1.578125,-0.328125
1664374433823,0.025390625,-0.9746704,0.21038818,-1.828125,-0.46875,0.25
1664374433831,0.033935547,-0.98931885,0.21331787,0.109375,0.0625,0.6875
1664374433866,0.028808594,-0.99224854,0.2086792,-0.921875,0.796875,-0.0625
1664374433897,0.023925781,-0.97613525,0.22869873,1.5,2.078125,0.890625
1664374433942,0.040283203,-0.9702759,0.21282959,0.28125,1.140625,0.3125
1664374433988,0.026123047,-0.9793091,0.21014404,0.84375,-0.046875,0.515625
1664374434017,0.02758789,-0.9807739,0.22332764,1.109375,0.5,-0.1875
1664374434061,0.0234375,-0.9837036,0.2177124,1.375,0.734375,0.390625
1664374434105,0.033447266,-0.98516846,0.20794678,0.046875,-0.375,-0.046875
1664374434137,0.034179688,-0.9729614,0.20770264,0.0625,-0.8125,0.015625
1664374434183,0.020507812,-0.9741821,0.20672607,1.09375,0.046875,-0.375
1664374434212,0.02709961,-0.9846802,0.21600342,1.59375,1.671875,-0.96875
1664374434257,0.03100586,-0.97369385,0.20526123,0.5625,1.109375,-0.640625
1664374434302,0.032958984,-0.9849243,0.20355225,1.09375,1.28125,-0.5625
1664374434332,0.029052734,-0.99884033,0.2098999,1.765625,1.0,-0.484375
1664374434376,0.03930664,-0.99346924,0.20233154,-0.40625,-0.34375,-0.328125
1664374434422,0.049560547,-0.9846802,0.19769287,-0.21875,0.71875,0.65625
1664374434451,0.024658203,-0.9717407,0.1930542,-2.171875,-1.71875,-0.125
1664374434496,0.03564453,-0.9937134,0.20941162,0.578125,0.234375,0.53125
1664374434541,0.036376953,-0.97491455,0.20965576,0.40625,0.6875,0.296875
1664374434572,0.025634766,-0.98687744,0.20843506,-0.328125,-0.421875,0.078125
1664374434616,0.021240234,-0.986145,0.21136475,0.71875,0.21875,-0.203125
1664374434646,0.049072266,-0.9854126,0.20452881,0.046875,0.375,0.109375
1664374434693,0.02709961,-0.9793091,0.199646,1.046875,0.25,0.140625
1664374434737,0.033935547,-0.9920044,0.21600342,0.796875,0.71875,0.1875
1664374434769,0.030761719,-0.97662354,0.21136475,-0.109375,0.875,-0.09375
1664374434813,0.029541016,-0.9829712,0.20550537,0.359375,0.578125,-0.359375
1664374434856,0.030761719,-0.9793091,0.20843506,-0.375,0.25,-0.109375
1664374434885,0.03149414,-0.9834595,0.20843506,-0.78125,-0.609375,-0.3125
1664374434931,0.02709961,-0.99176025,0.2086792,0.15625,0.125,0.21875
1664374434961,0.032470703,-0.98223877,0.2164917,1.09375,0.15625,-0.25
1664374435005,0.05029297,-0.9841919,0.21038818,-0.1875,0.09375,1.0
1664374435052,0.021240234,-0.97320557,0.21356201,-0.125,-0.796875,-0.328125
1664374435081,0.03540039,-0.986145,0.22528076,1.046875,1.125,0.390625
1664374435126,0.036621094,-0.98760986,0.20452881,1.34375,-0.0625,0.203125
1664374435173,0.03881836,-0.98272705,0.2033081,1.265625,-1.25,0.140625
1664374435203,0.033935547,-0.9859009,0.21502686,2.125,0.359375,0.140625
1664374435246,0.042236328,-0.9849243,0.20257568,1.875,0.6875,0.171875
1664374435306,0.03149414,-0.9817505,0.20721436,1.65625,0.296875,-0.203125
1664374435322,0.03955078,-0.9883423,0.20135498,1.484375,-0.15625,0.515625
1664374435365,0.040527344,-0.98394775,0.20697021,0.75,0.234375,0.28125
1664374435395,0.04321289,-0.9837036,0.20257568,0.234375,0.03125,-0.1875
1664374435441,0.029541016,-0.9898071,0.20477295,0.59375,0.375,0.3125
1664374435486,0.03930664,-0.9846802,0.2062378,0.65625,0.296875,0.125
1664374435516,0.049316406,-1.0010376,0.1954956,-1.125,2.171875,-0.703125
1664374435563,0.03515625,-0.98150635,0.21307373,0.0625,1.8125,-0.421875
1664374435605,0.024169922,-0.9800415,0.20355225,-0.671875,-0.703125,0.359375
1664374435636,0.03173828,-0.9768677,0.19207764,-1.046875,-1.28125,-0.375
1664374435683,0.022705078,-0.9829712,0.21331787,2.125,0.421875,0.390625
1664374435712,0.032226562,-0.9714966,0.20233154,0.421875,0.796875,0.28125
1664374435756,0.040283203,-0.973938,0.20135498,0.734375,-0.484375,-0.03125
1664374435802,0.029052734,-0.9854126,0.20526123,1.453125,-1.265625,0.484375
1664374435832,0.042236328,-0.9819946,0.20965576,0.9375,-0.46875,0.6875
1664374435876,0.03564453,-0.9805298,0.20111084,0.953125,-0.84375,0.28125
1664374435921,0.048339844,-0.9854126,0.20135498,1.265625,-1.015625,0.46875
1664374435952,0.036376953,-0.9771118,0.1954956,0.1875,-0.5625,0.203125
1664374435995,0.03930664,-0.9783325,0.20037842,-0.015625,0.25,-0.140625
1664374436043,0.03125,-0.987854,0.20892334,-0.1875,0.15625,-0.3125
1664374436071,0.032226562,-0.9812622,0.20037842,0.296875,1.203125,-0.25
1664374436116,0.04296875,-0.98272705,0.199646,-0.5,0.78125,-0.671875
1664374436145,0.042236328,-0.989563,0.21038818,0.421875,1.6875,-0.359375
1664374436193,0.032958984,-0.9902954,0.21185303,0.84375,1.3125,-0.09375
1664374436236,0.061035156,-0.9692993,0.1918335,-2.53125,0.71875,-0.453125
1664374436267,0.03100586,-0.9866333,0.21038818,0.296875,0.046875,-0.0625
1664374436313,0.057128906,-0.97613525,0.19573975,0.125,1.5625,0.25
1664374436356,0.03564453,-0.9829712,0.18548584,0.6875,2.59375,-0.125
1664374436388,0.044433594,-0.97979736,0.20037842,0.84375,4.109375,-0.28125
1664374436432,0.06201172,-0.9793091,0.20135498,4.765625,5.125,0.46875
1664374436463,0.047607422,-0.9873657,0.19525146,3.984375,3.796875,0.296875
1664374436507,0.018798828,-0.9981079,0.1984253,3.34375,3.0625,-0.21875
1664374436552,0.04296875,-0.9780884,0.19671631,1.796875,2.75,0.171875
1664374436581,0.04248047,-0.9873657,0.2033081,1.53125,1.859375,0.171875
1664374436625,0.055908203,-0.9939575,0.18743896,1.8125,1.40625,0.59375
1664374436674,0.052246094,-0.9915161,0.18426514,1.140625,1.78125,0.734375
1664374436705,0.034423828,-0.9920044,0.18499756,0.9375,1.296875,0.0625
1664374436745,0.053466797,-0.9898071,0.18572998,-0.09375,1.671875,0.21875
1664374436792,0.05419922,-0.9805298,0.19451904,0.0625,1.15625,0.09375
1664374436820,0.04711914,-0.9902954,0.17913818,-0.28125,0.53125,-0.359375
1664374436867,0.041259766,-0.99420166,0.18353271,-0.03125,0.875,0.546875
1664374436896,0.055419922,-0.9866333,0.16888428,-2.546875,0.25,-0.59375
1664374436942,0.049072266,-0.9854126,0.1876831,1.265625,1.421875,-0.109375
1664374436985,0.057617188,-0.98394775,0.184021,0.984375,1.84375,-0.046875
1664374437016,0.03540039,-0.9854126,0.17523193,0.421875,1.484375,-0.34375
1664374437061,0.05126953,-0.9915161,0.18182373,1.1875,1.1875,-0.125
1664374437107,0.06347656,-0.9866333,0.19403076,1.484375,2.09375,-0.140625
1664374437137,0.05419922,-0.97857666,0.17645264,1.28125,1.140625,0.015625
1664374437182,0.048339844,-0.9871216,0.18182373,2.296875,1.921875,0.234375
1664374437212,0.05126953,-0.9920044,0.1828003,2.0,1.0625,-0.203125
1664374437256,0.053466797,-0.9902954,0.18572998,1.5,1.71875,-0.03125
1664374437302,0.044433594,-0.98516846,0.18109131,0.375,0.71875,-0.25
1664374437331,0.053955078,-0.9866333,0.18011475,0.015625,1.203125,-0.0625
1664374437376,0.049560547,-0.99005127,0.18475342,-0.1875,0.546875,0.0625
1664374437422,0.047607422,-0.9949341,0.18060303,-1.0,0.578125,-0.34375
1664374437452,0.053222656,-0.986145,0.18988037,-0.78125,0.84375,-0.390625
1664374437496,0.061767578,-0.98394775,0.18060303,-0.28125,-0.421875,0.03125
1664374437542,0.041992188,-0.99176025,0.18597412,0.703125,-0.03125,0.453125
1664374437572,0.05102539,-0.9841919,0.1671753,-2.953125,-0.921875,-0.375
1664374437616,0.052734375,-0.9924927,0.19158936,1.3125,0.0,-0.03125
1664374437645,0.053222656,-0.9846802,0.18670654,1.15625,0.34375,-0.03125
1664374437693,0.046142578,-0.98223877,0.18865967,0.703125,-0.515625,-0.15625
1664374437736,0.0546875,-0.9898071,0.17791748,1.203125,-0.40625,-0.296875
1664374437766,0.050048828,-0.98443604,0.18597412,1.375,0.25,0.265625
1664374437812,0.047607422,-0.9817505,0.18353271,2.203125,-0.359375,-0.296875
1664374437860,0.051757812,-0.9812622,0.1774292,1.140625,-1.203125,-0.015625
1664374437886,0.04321289,-0.98931885,0.17889404,1.859375,-0.359375,-0.046875
1664374437933,0.052001953,-0.9846802,0.17425537,1.546875,-0.765625,-0.015625
1664374437961,0.059570312,-0.9883423,0.17718506,1.078125,-1.390625,-0.4375
1664374438006,0.05029297,-1.0003052,0.17156982,0.84375,-1.21875,0.09375
1664374438053,0.04663086,-0.99102783,0.17303467,1.25,0.109375,0.109375
1664374438081,0.05078125,-0.99005127,0.16229248,0.96875,-0.328125,-0.1875
1664374438125,0.056152344,-0.98272705,0.17279053,0.6875,-1.0625,-0.171875
1664374438171,0.05493164,-0.9819946,0.1762085,0.453125,-0.859375,-0.1875
1664374438202,0.043701172,-1.000061,0.168396,1.4375,0.640625,0.125
1664374438246,0.053466797,-0.9951782,0.16595459,0.203125,-1.1875,-0.75
1664374438292,0.053466797,-1.0003052,0.1618042,2.484375,-0.375,-0.078125
1664374438321,0.040771484,-0.9680786,0.15692139,1.09375,0.71875,0.4375
1664374438365,0.041503906,-0.98443604,0.16497803,-0.25,-1.71875,-0.390625
1664374438396,0.057128906,-0.99420166,0.16595459,0.234375,-0.78125,0.015625
1664374438441,0.052001953,-0.9807739,0.16741943,0.421875,-0.65625,0.625
1664374438486,0.036376953,-0.9817505,0.1564331,-0.359375,-1.8125,0.109375
1664374438516,0.05859375,-0.9915161,0.15985107,-0.796875,-1.4375,-0.21875
1664374438561,0.046875,-0.99786377,0.16693115,-1.03125,-0.46875,-0.078125
1664374438605,0.03930664,-0.9793091,0.16790771,-1.0,-0.53125,0.140625
1664374438636,0.044921875,-0.9944458,0.17327881,-0.796875,-0.625,-0.375
1664374438683,0.050048828,-0.9944458,0.17132568,-1.4375,0.5625,0.09375
1664374438712,0.048828125,-0.98321533,0.17279053,-0.96875,0.59375,-0.078125
1664374438756,0.05053711,-0.9846802,0.17523193,-0.640625,0.203125,-0.1875
1664374438803,0.04272461,-0.98516846,0.18450928,-1.703125,0.421875,-0.359375
1664374438833,0.052978516,-0.9873657,0.1749878,-1.21875,0.6875,-0.21875
1664374438876,0.03955078,-0.9976196,0.18792725,0.078125,0.515625,0.015625
1664374438921,0.07104492,-0.9788208,0.16790771,-4.28125,-0.46875,-0.90625
1664374438953,0.023925781,-0.9883423,0.19647217,-0.265625,-0.171875,-0.375
1664374438995,0.060791016,-0.9883423,0.18890381,-1.109375,0.5625,-0.375
1664374439042,0.042236328,-0.98638916,0.1918335,-0.953125,0.40625,-0.484375
1664374439072,0.036621094,-0.9885864,0.19525146,0.171875,0.984375,-1.703125
1664374439116,0.043701172,-0.9854126,0.19769287,0.046875,2.25,-1.015625
1664374439207,0.041015625,-0.9758911,0.18939209,-0.25,0.78125,-0.78125
1664374439209,0.041503906,-0.99298096,0.19769287,0.0,0.703125,-1.0
1664374439237,0.03173828,-0.9924927,0.19573975,0.0625,1.34375,-0.421875
1664374439266,0.040283203,-0.9780884,0.19622803,0.84375,1.359375,-0.265625
1664374439312,0.036865234,-0.98565674,0.19744873,1.0,1.28125,-0.671875
1664374439356,0.04638672,-0.9812622,0.19256592,0.484375,1.203125,-0.390625
1664374439386,0.025878906,-0.9846802,0.18450928,1.515625,1.515625,-0.296875
1664374439433,0.037353516,-0.986145,0.19647217,1.125,1.8125,-0.421875
1664374439463,0.041748047,-0.9837036,0.19207764,0.90625,0.9375,-0.140625
1664374439506,0.02709961,-0.98101807,0.20037842,0.609375,0.96875,-0.125
1664374439553,0.056152344,-0.9890747,0.19012451,-0.625,-0.140625,-0.359375
1664374439583,0.032226562,-0.9871216,0.19891357,1.0,0.078125,0.703125
1664374439625,0.035888672,-0.9885864,0.17156982,-3.5,-1.578125,-0.171875
1664374439673,0.03491211,-0.9944458,0.21331787,1.078125,0.5,0.015625
1664374439702,0.036376953,-0.98394775,0.1984253,0.34375,0.09375,0.09375
1664374439745,0.040771484,-0.9751587,0.18621826,-0.578125,-0.078125,-0.375
1664374439792,0.036132812,-0.98516846,0.20062256,0.40625,0.328125,-0.375
1664374439821,0.038085938,-0.9859009,0.1942749,-0.1875,1.109375,0.078125
1664374439866,0.034179688,-0.9692993,0.19256592,0.0625,0.15625,-0.5
1664374439896,0.042236328,-0.99346924,0.19793701,0.0625,-0.296875,-0.296875
1664374439941,0.039794922,-0.98150635,0.199646,-0.03125,0.890625,-0.203125
1664374439986,0.044433594,-0.98272705,0.18914795,-0.21875,0.9375,-0.375
1664374440016,0.04638672,-0.99957275,0.199646,1.3125,2.296875,-0.65625
1664374440061,0.025146484,-0.9812622,0.20501709,1.375,1.765625,-0.171875
1664374440105,0.030273438,-0.97540283,0.19573975,1.3125,0.953125,-0.25
1664374440136,0.04248047,-0.9841919,0.19720459,1.921875,0.5,0.15625
1664374440182,0.03515625,-0.9807739,0.19622803,2.09375,-0.46875,0.453125
1664374440213,0.038330078,-0.9859009,0.18182373,1.359375,-0.796875,0.359375
1664374440254,0.05029297,-0.973938,0.19696045,1.375,-1.03125,-0.03125
1664374440299,0.037353516,-0.9907837,0.17962646,0.546875,-1.296875,0.609375
1664374440331,0.020507812,-0.9961548,0.19696045,1.328125,-1.171875,0.40625
1664374440376,0.057861328,-0.97369385,0.18109131,-1.96875,-2.0625,-0.421875
1664374440435,0.03149414,-1.0010376,0.19696045,1.09375,-0.578125,-0.296875
1664374440450,0.041015625,-0.98272705,0.19256592,0.46875,0.90625,-0.171875
1664374440495,0.041015625,-0.97076416,0.17694092,0.34375,0.265625,-0.703125
1664374440540,0.03930664,-0.99835205,0.19500732,0.84375,-0.6875,-0.984375
1664374440572,0.030517578,-0.9834595,0.19232178,1.046875,0.53125,0.203125
1664374440616,0.03881836,-0.9768677,0.18182373,-0.03125,-0.421875,-0.640625
1664374440646,0.038330078,-0.9885864,0.18621826,0.5,-1.5625,-0.46875
1664374440691,0.038085938,-0.99224854,0.19158936,0.40625,-0.578125,-0.078125
1664374440736,0.029785156,-0.98687744,0.1906128,0.25,-1.0,0.234375
1664374440766,0.037353516,-0.9690552,0.19012451,0.125,-0.84375,0.375
1664374440814,0.03930664,-0.9907837,0.17474365,0.15625,-1.15625,-0.046875
1664374440855,0.032958984,-0.991272,0.18792725,-0.234375,0.015625,0.046875
1664374440885,0.03540039,-0.9854126,0.1864624,-0.859375,0.15625,0.09375
1664374440931,0.032226562,-0.987854,0.19573975,-0.625,-0.296875,-0.0625
1664374440962,0.029541016,-0.9846802,0.20037842,-0.515625,0.25,0.1875
1664374441006,0.036376953,-0.9883423,0.1942749,-0.40625,0.578125,-0.046875
1664374441052,0.029052734,-0.98150635,0.19207764,-0.625,-0.40625,0.0625
1664374441081,0.029541016,-0.99176025,0.2111206,0.265625,0.5,-0.125
1664374441126,0.032470703,-0.9829712,0.20013428,0.578125,0.296875,-0.0625
1664374441172,0.05078125,-0.9795532,0.18377686,-2.671875,0.328125,-0.078125
1664374441201,0.028564453,-0.9932251,0.20062256,-1.640625,0.390625,-0.84375
1664374441246,0.0546875,-0.9829712,0.21575928,-0.21875,1.828125,0.125
1664374441291,0.03540039,-0.97857666,0.19598389,-0.09375,0.6875,0.296875
1664374441322,0.041748047,-0.97906494,0.20111084,-0.828125,-0.484375,0.171875
1664374441366,0.03491211,-0.991272,0.215271,0.71875,-0.09375,0.078125
1664374441400,0.040771484,-0.9817505,0.21380615,0.3125,0.078125,0.390625
1664374441441,0.024169922,-0.9768677,0.19525146,-0.359375,-0.703125,-0.234375
1664374441486,0.038085938,-0.98687744,0.20697021,-0.375,-0.46875,-0.171875
1664374441515,0.036376953,-0.9837036,0.2098999,-0.203125,-0.34375,-0.125
1664374441562,0.021972656,-0.98321533,0.20965576,-0.1875,-0.4375,0.03125
1664374441604,0.028320312,-0.98883057,0.2086792,-0.015625,0.203125,-0.578125
1664374441635,0.03515625,-0.97369385,0.21038818,0.671875,0.453125,0.09375
1664374441718,0.032958984,-0.9807739,0.20379639,0.875,1.171875,-0.28125
1664374441720,0.032958984,-0.9883423,0.21453857,1.03125,1.234375,-0.625
1664374441756,0.032226562,-0.987854,0.20770264,0.734375,0.828125,-0.171875
1664374441802,0.032958984,-0.9800415,0.20013428,0.3125,-0.125,0.09375
1664374441832,0.048339844,-0.97857666,0.20355225,0.578125,-0.140625,-0.109375
1664374441877,0.030029297,-0.9873657,0.199646,1.078125,0.984375,0.34375
1664374441922,0.03100586,-0.98150635,0.21209717,0.859375,-0.09375,0.046875
1664374441953,0.052734375,-0.98223877,0.20697021,-0.09375,0.375,0.265625
1664374441995,0.014404297,-0.9846802,0.20477295,-0.6875,-0.46875,-0.34375
1664374442026,0.03125,-0.98687744,0.21014404,0.390625,1.515625,-0.03125
1664374442073,0.026367188,-0.975647,0.20159912,1.53125,1.75,0.265625
1664374442115,0.045410156,-0.9788208,0.20794678,0.34375,0.9375,-0.0625
1664374442145,0.033691406,-0.9883423,0.20501709,0.4375,0.921875,0.0
1664374442192,0.045654297,-0.9846802,0.20184326,1.15625,1.28125,0.53125
1664374442251,0.029052734,-0.9819946,0.20013428,1.296875,0.8125,-0.0625
1664374442282,0.03564453,-0.99005127,0.20404053,3.328125,2.1875,-0.25
1664374442311,0.03173828,-0.9824829,0.20648193,1.1875,1.734375,0.109375
1664374442356,0.033203125,-0.98028564,0.19744873,0.828125,0.75,-0.375
1664374442388,0.036865234,-0.9915161,0.20306396,0.1875,0.484375,-0.4375
1664374442433,0.038085938,-0.98150635,0.20916748,0.703125,0.34375,-0.015625
1664374442462,0.03173828,-0.9920044,0.20062256,0.984375,0.53125,-0.125
1664374442506,0.041015625,-0.98760986,0.2033081,1.28125,0.0625,0.0
1664374442565,0.044433594,-0.98516846,0.19647217,-0.078125,-0.046875,0.15625
1664374442581,0.043945312,-0.9812622,0.19451904,0.21875,-1.234375,0.234375
1664374442624,0.028320312,-0.99224854,0.18914795,0.890625,-0.46875,0.40625
1664374442672,0.05444336,-0.9834595,0.20184326,1.984375,1.4375,0.53125
1664374442703,0.032714844,-0.98687744,0.20159912,2.0625,0.6875,0.109375
1664374442748,0.044433594,-0.9859009,0.19354248,1.8125,0.171875,-0.046875
1664374442776,0.03125,-0.98687744,0.199646,1.40625,0.140625,0.65625
1664374442821,0.045166016,-0.989563,0.1762085,-1.15625,-1.421875,-0.53125
1664374442868,0.044433594,-0.9937134,0.19647217,2.984375,0.109375,0.421875
1664374442896,0.042236328,-0.9783325,0.18157959,0.9375,0.5,0.59375
1664374442942,0.035888672,-0.9819946,0.18597412,0.65625,-0.328125,-0.0625
1664374443001,0.047607422,-0.99591064,0.19036865,1.765625,-0.296875,0.25
1664374443016,0.041748047,-0.98101807,0.18304443,1.5625,0.21875,0.59375
1664374443062,0.033203125,-0.9817505,0.17523193,0.984375,-0.921875,-0.265625
1664374443107,0.046875,-0.98516846,0.1852417,1.34375,-0.75,0.1875
1664374443137,0.033691406,-0.9793091,0.18304443,1.46875,0.1875,0.15625
1664374443183,0.042236328,-0.9871216,0.17156982,1.078125,0.28125,-0.109375
1664374443212,0.038085938,-0.98809814,0.1786499,0.6875,-0.5625,-0.15625
1664374443256,0.044189453,-0.98565674,0.17938232,0.953125,-0.046875,-0.125
1664374443301,0.03857422,-0.9885864,0.17376709,-0.140625,0.265625,-0.453125
1664374443331,0.041992188,-0.97857666,0.1720581,-0.140625,-0.125,-0.0625
1664374443376,0.045166016,-0.986145,0.17694092,-0.515625,-0.015625,-0.171875
1664374443421,0.037597656,-0.9956665,0.18255615,0.109375,0.484375,-0.328125
1664374443450,0.03540039,-0.9883423,0.1828003,-0.328125,0.453125,0.0625
1664374443496,0.045166016,-0.9788208,0.17669678,-1.0625,-0.234375,-0.515625
1664374443527,0.05078125,-0.9902954,0.1798706,-0.5,0.5625,-0.140625
1664374443571,0.032958984,-0.9885864,0.18548584,1.484375,0.796875,0.234375
1664374443619,0.06323242,-0.97247314,0.17669678,-2.140625,0.0625,-0.125
1664374443645,0.032226562,-0.98883057,0.1906128,-0.3125,-0.625,0.125
1664374443692,0.052246094,-0.991272,0.19232178,0.53125,1.46875,0.578125
1664374443736,0.034179688,-0.973938,0.19110107,0.0625,0.75,0.28125
1664374443766,0.052490234,-0.98565674,0.18426514,-0.0625,0.09375,-0.171875
1664374443812,0.047851562,-0.9951782,0.19207764,1.125,0.984375,0.265625
1664374443856,0.037597656,-0.9807739,0.19329834,0.6875,0.9375,0.21875
1664374443886,0.03857422,-0.9866333,0.17279053,0.375,0.3125,0.328125
1664374443931,0.055908203,-0.98760986,0.18353271,0.3125,0.5625,-0.140625
1664374443961,0.041503906,-0.9788208,0.1774292,0.3125,-0.09375,0.21875
1664374444005,0.052734375,-0.97735596,0.17962646,0.90625,0.296875,-0.1875
1664374444052,0.032714844,-0.99591064,0.1942749,0.296875,-0.046875,-0.703125
1664374444096,0.0390625,-0.98883057,0.18670654,-0.078125,1.0625,0.15625
1664374444126,0.038330078,-0.9746704,0.18377686,-0.53125,0.984375,-0.4375
1664374444171,0.05419922,-0.9873657,0.18988037,-0.375,0.5,-0.1875
1664374444202,0.041259766,-0.987854,0.19158936,0.203125,1.0,-0.171875
1664374444249,0.045898438,-0.98516846,0.17938232,-0.484375,1.109375,-0.171875
1664374444276,0.049804688,-0.97613525,0.19085693,0.234375,1.375,-0.375
1664374444322,0.03881836,-0.9990845,0.19232178,0.375,0.640625,-0.125
1664374444366,0.046142578,-0.97540283,0.18841553,0.4375,0.890625,0.03125
1664374444395,0.05859375,-0.9817505,0.18792725,-1.25,0.609375,-0.34375
1664374444441,0.031982422,-0.9788208,0.19085693,-0.71875,-0.3125,-0.40625
1664374444486,0.055664062,-0.9937134,0.19500732,0.34375,1.09375,0.28125
1664374444516,0.045654297,-0.98223877,0.18988037,0.65625,1.0625,0.0625
1664374444561,0.05029297,-0.9902954,0.18890381,0.21875,0.765625,-0.03125
1664374444623,0.038330078,-1.0005493,0.19647217,0.734375,0.765625,0.15625
1664374444635,0.057617188,-0.9834595,0.19012451,0.265625,0.5625,0.015625
1664374444683,0.04638672,-0.9819946,0.19158936,0.34375,0.796875,-0.171875
1664374444712,0.037597656,-0.9898071,0.19476318,0.46875,0.515625,0.078125
1664374444756,0.04736328,-0.98516846,0.18914795,-0.140625,0.15625,-0.03125
1664374444800,0.05126953,-0.9854126,0.19451904,-0.3125,-0.171875,-0.1875
1664374444832,0.043945312,-0.989563,0.19500732,0.03125,-0.453125,-0.140625
1664374444875,0.04296875,-0.98321533,0.19451904,0.609375,-0.015625,0.171875
1664374444922,0.048828125,-0.9834595,0.19403076,0.328125,-0.140625,-0.15625
1664374444952,0.044677734,-0.9854126,0.19671631,0.640625,-0.1875,0.203125
1664374444995,0.049316406,-0.9898071,0.1918335,0.71875,-0.421875,0.28125
1664374445025,0.0390625,-0.9883423,0.19012451,0.65625,-0.625,0.453125
1664374445073,0.04736328,-0.9829712,0.1906128,0.828125,-0.15625,0.015625
1664374445114,0.05078125,-0.9795532,0.18890381,1.078125,-0.53125,0.28125
1664374445144,0.041015625,-0.98760986,0.19158936,1.71875,-0.921875,0.609375
1664374445191,0.064453125,-0.98028564,0.17572021,-1.109375,-1.171875,-0.28125
1664374445236,0.036621094,-0.98883057,0.19744873,0.984375,-0.4375,-0.140625
1664374445264,0.057128906,-0.9805298,0.19573975,1.015625,0.703125,0.203125
1664374445310,0.046142578,-0.98028564,0.17913818,0.40625,-0.265625,0.03125
1664374445357,0.04663086,-0.9902954,0.17889404,-0.171875,0.203125,-0.625
1664374445385,0.03955078,-0.9944458,0.19866943,0.296875,2.234375,-0.140625
1664374445430,0.052978516,-0.98028564,0.19232178,0.625,1.59375,-0.28125
1664374445459,0.049316406,-0.98101807,0.1906128,0.765625,-0.03125,-0.4375
1664374445506,0.04638672,-0.9968872,0.18670654,1.0625,-0.28125,-0.234375
1664374445552,0.050048828,-0.972229,0.18353271,0.546875,0.65625,-0.140625
1664374445584,0.045166016,-0.9898071,0.18817139,0.8125,-0.5625,-0.1875
1664374445625,0.047607422,-0.9932251,0.18792725,0.109375,-0.59375,-0.171875
1664374445673,0.059814453,-0.9907837,0.18988037,-0.125,0.390625,-0.140625
1664374445703,0.044189453,-0.97613525,0.184021,-0.40625,-0.453125,-0.375
1664374445746,0.055664062,-0.9859009,0.19036865,-0.234375,-0.3125,0.09375
1664374445778,0.049072266,-0.9793091,0.184021,-1.328125,-0.078125,0.078125
1664374445822,0.030761719,-0.98223877,0.19915771,-1.0,0.28125,-0.40625
1664374445866,0.049072266,-0.9883423,0.19403076,-0.921875,-0.078125,-0.34375
1664374445897,0.044189453,-0.9885864,0.19085693,-0.9375,0.453125,0.640625
1664374445942,0.042236328,-0.99420166,0.2033081,-2.046875,-0.734375,-0.953125
1664374445987,0.041992188,-0.9932251,0.20233154,0.21875,0.046875,0.28125
1664374446015,0.057373047,-0.9717407,0.20135498,-0.265625,1.359375,-0.21875
1664374446062,0.046142578,-0.98223877,0.20159912,-0.578125,-0.046875,0.109375
1664374446138,0.045898438,-0.99224854,0.20770264,0.1875,-0.046875,-0.421875
1664374446142,0.056640625,-0.97735596,0.2020874,-0.453125,0.375,0.140625
1664374446181,0.044921875,-0.97540283,0.20379639,-0.703125,0.296875,-0.0625
1664374446226,0.040771484,-0.9883423,0.215271,0.09375,0.015625,0.046875
1664374446257,0.041748047,-0.99176025,0.21307373,-0.421875,0.296875,0.234375
1664374446302,0.049316406,-0.9795532,0.20501709,-0.359375,0.03125,0.296875
1664374446332,0.042236328,-0.9819946,0.20819092,-0.296875,0.703125,-0.125
1664374446377,0.040283203,-0.97906494,0.21453857,-0.109375,0.203125,-0.046875
1664374446423,0.049072266,-0.9800415,0.21063232,-0.078125,0.203125,-0.09375
1664374446451,0.040527344,-0.98028564,0.20892334,0.609375,0.109375,0.015625
1664374446496,0.044189453,-0.9907837,0.21673584,1.03125,0.578125,-0.28125
1664374446527,0.034179688,-0.98516846,0.20892334,0.5625,0.671875,-0.328125
1664374446571,0.041015625,-0.97735596,0.19989014,1.15625,0.890625,-0.046875
1664374446616,0.039794922,-0.9783325,0.20306396,1.3125,0.234375,-0.46875
1664374446646,0.061523438,-0.97857666,0.20770264,-0.296875,1.125,-0.21875
1664374446691,0.028808594,-0.97662354,0.20697021,-0.0625,-0.09375,-0.484375
1664374446735,0.05029297,-0.9866333,0.21697998,1.390625,1.734375,0.09375
1664374446766,0.044677734,-0.98394775,0.19818115,1.578125,1.0,0.1875
1664374446826,0.04296875,-0.9829712,0.21014404,0.125,0.484375,-0.15625
1664374446886,0.041992188,-0.9920044,0.20648193,1.078125,1.171875,0.15625
1664374446889,0.052246094,-0.9837036,0.20428467,1.0,0.609375,0.078125
1664374446931,0.05078125,-0.9805298,0.20648193,0.609375,1.015625,-0.21875
1664374446961,0.049804688,-0.9805298,0.19915771,0.46875,0.53125,0.140625
1664374447006,0.046875,-0.98809814,0.20281982,0.625,0.828125,0.171875
1664374447051,0.053466797,-0.9751587,0.199646,-0.0625,0.359375,-0.15625
1664374447081,0.041015625,-0.9937134,0.20379639,-0.1875,-0.09375,-0.09375
1664374447126,0.047607422,-0.98223877,0.20111084,-0.4375,-0.09375,0.0625
1664374447171,0.052490234,-0.986145,0.20794678,0.15625,-0.09375,-0.25
1664374447201,0.049804688,-0.99102783,0.2111206,0.890625,-0.25,0.21875
1664374447247,0.044921875,-0.9866333,0.20306396,1.0,-0.046875,-0.03125
1664374447276,0.036132812,-0.98101807,0.2062378,1.609375,-0.09375,0.15625
1664374447322,0.055908203,-0.9837036,0.2086792,1.28125,-0.671875,-0.625
1664374447366,0.044677734,-0.99346924,0.21722412,0.859375,-0.125,0.46875
1664374447397,0.044433594,-0.9800415,0.18621826,-1.875,-1.390625,-0.5625
1664374447441,0.037597656,-0.98883057,0.20941162,2.59375,-0.390625,0.234375
1664374447487,0.053466797,-0.9800415,0.19207764,1.59375,0.21875,0.265625
1664374447518,0.044921875,-0.9788208,0.1984253,0.046875,-1.03125,0.046875
1664374447564,0.04345703,-0.9859009,0.2033081,1.375,-0.875,-0.234375
1664374447607,0.055419922,-0.9793091,0.19476318,0.921875,0.296875,0.21875
1664374447635,0.04248047,-0.9678345,0.19622803,1.046875,-0.296875,0.109375
1664374447682,0.041259766,-0.97979736,0.20135498,1.421875,-0.53125,0.0
1664374447713,0.045898438,-0.9812622,0.19573975,0.53125,0.0625,-0.234375
1664374447760,0.048583984,-0.9849243,0.19671631,0.59375,-0.265625,0.0625
1664374447803,0.03540039,-0.98150635,0.19451904,0.515625,-0.34375,0.0625
1664374447833,0.036865234,-0.98565674,0.20062256,1.3125,0.359375,-0.171875
1664374447876,0.046142578,-0.9898071,0.1906128,0.609375,0.03125,-0.171875
1664374447922,0.040527344,-0.98394775,0.19085693,0.921875,-0.4375,0.0625
1664374447952,0.03955078,-0.9795532,0.1798706,0.40625,0.0,-0.078125
1664374447997,0.03564453,-0.99102783,0.19891357,0.109375,0.109375,-0.3125
1664374448026,0.050048828,-0.9768677,0.19696045,-0.921875,-0.421875,-0.484375
1664374448103,0.034423828,-0.9885864,0.19720459,-1.546875,0.5,0.359375
1664374448116,0.037597656,-0.97906494,0.19256592,-2.34375,-0.21875,-1.125
1664374448161,0.046142578,-0.98760986,0.20794678,0.203125,0.546875,0.078125
1664374448192,0.043701172,-0.9746704,0.2020874,-1.546875,1.171875,0.03125
1664374448235,0.04663086,-0.9819946,0.2098999,-1.453125,0.984375,-0.578125
1664374448266,0.032226562,-0.99053955,0.20794678,0.15625,0.90625,-0.25
1664374448313,0.057617188,-0.97735596,0.21258545,-0.84375,0.765625,-0.015625
1664374448356,0.040771484,-0.97979736,0.20135498,-0.515625,0.609375,-0.171875
1664374448385,0.043945312,-0.98321533,0.21185303,0.0,0.15625,-0.34375
1664374448432,0.03857422,-0.99102783,0.21502686,-0.796875,0.171875,-0.109375
1664374448462,0.053466797,-0.973938,0.2111206,-0.140625,0.09375,0.15625
1664374448508,0.036621094,-0.9793091,0.21234131,-0.21875,0.265625,-0.453125
1664374448554,0.040283203,-0.98101807,0.215271,-0.359375,0.40625,-0.3125
1664374448583,0.031982422,-0.9841919,0.21185303,-0.4375,0.328125,-0.109375
1664374448626,0.041748047,-0.9771118,0.21014404,-0.203125,0.4375,-0.5
1664374448673,0.040771484,-0.98443604,0.215271,0.25,0.453125,-0.203125
1664374448702,0.040039062,-0.9800415,0.2164917,0.078125,0.71875,-0.171875
1664374448746,0.044677734,-0.97540283,0.2111206,-0.4375,0.265625,-0.015625
1664374448777,0.027832031,-0.9885864,0.22039795,1.296875,0.203125,0.109375
1664374448822,0.061035156,-0.9780884,0.20233154,-1.078125,0.4375,-0.5
1664374448866,0.02709961,-0.9763794,0.21868896,0.765625,0.21875,-0.546875
1664374448896,0.045166016,-0.98443604,0.2267456,0.421875,1.25,0.09375
1664374448941,0.041748047,-0.98443604,0.21136475,0.875,1.140625,0.046875
1664374448987,0.0390625,-0.975647,0.21966553,0.375,0.8125,-0.125
1664374449017,0.033935547,-0.99176025,0.2189331,1.203125,0.75,-0.109375
1664374449093,0.04638672,-0.9771118,0.21136475,0.328125,0.796875,-0.109375
1664374449105,0.026855469,-0.9854126,0.21258545,1.03125,0.453125,-0.234375
1664374449139,0.038085938,-0.9807739,0.21014404,0.421875,0.515625,0.1875
1664374449185,0.040039062,-0.97320557,0.2140503,0.109375,0.734375,0.03125
1664374449212,0.037597656,-0.9841919,0.2140503,0.03125,-0.09375,-0.28125
1664374449256,0.039794922,-0.9837036,0.22235107,0.21875,0.03125,-0.234375
1664374449302,0.044921875,-0.97784424,0.22064209,-0.078125,0.03125,-0.21875
1664374449332,0.040527344,-0.98321533,0.21600342,0.125,0.21875,-0.0625
1664374449376,0.03491211,-0.9837036,0.2177124,0.359375,-0.484375,-0.125
1664374449423,0.04272461,-0.98321533,0.20965576,1.21875,0.046875,0.328125
1664374449451,0.044921875,-0.98394775,0.2189331,1.75,0.265625,0.140625
1664374449496,0.040771484,-0.9829712,0.21038818,0.828125,-0.359375,-0.34375
1664374449543,0.03125,-0.9866333,0.22015381,1.296875,-0.21875,0.515625
1664374449572,0.049804688,-0.9846802,0.18743896,-1.828125,-1.078125,-0.6875
1664374449619,0.039794922,-0.98931885,0.23016357,2.734375,-0.1875,0.3125
1664374449645,0.038085938,-0.97979736,0.21087646,2.0625,0.53125,0.125
1664374449692,0.045410156,-0.9800415,0.20477295,0.578125,-0.6875,-0.109375
1664374449736,0.041259766,-0.98687744,0.20819092,1.546875,-0.125,-0.453125
1664374449768,0.03173828,-0.9907837,0.21551514,1.390625,0.25,0.40625
1664374449812,0.032470703,-0.975647,0.20794678,1.53125,0.328125,-0.203125
1664374449856,0.045410156,-0.97857666,0.21160889,0.859375,-0.234375,0.0
1664374449886,0.047607422,-0.9846802,0.2098999,0.796875,0.125,0.28125
1664374449931,0.034179688,-0.9783325,0.20697021,0.859375,0.125,-0.015625
1664374449961,0.04248047,-0.9834595,0.20550537,0.8125,-0.34375,-0.140625
1664374450006,0.041748047,-0.9834595,0.20941162,-0.078125,-0.34375,-0.140625
1664374450052,0.043701172,-0.9846802,0.20037842,0.46875,-0.34375,-0.09375
1664374450081,0.041259766,-0.98883057,0.20355225,0.40625,0.0625,0.0625
1664374450126,0.04321289,-0.97784424,0.20526123,0.34375,0.421875,0.3125
1664374450172,0.046875,-0.9837036,0.19232178,-0.5625,0.015625,-0.03125
1664374450200,0.040527344,-0.9883423,0.19818115,0.171875,0.734375,0.03125
1664374450246,0.043701172,-0.97979736,0.20281982,0.3125,0.40625,0.0625
1664374450275,0.052001953,-0.9805298,0.19647217,-1.546875,0.625,0.15625
1664374450322,0.029296875,-0.9902954,0.21063232,-0.625,-0.765625,-0.359375
1664374450366,0.047607422,-0.9866333,0.20648193,0.453125,1.09375,0.21875
1664374450395,0.044921875,-0.973938,0.20355225,-1.046875,0.59375,0.0
1664374450442,0.04272461,-0.98638916,0.2098999,-1.03125,0.140625,-0.296875
1664374450486,0.040771484,-0.9951782,0.21160889,0.21875,0.40625,0.09375
1664374450518,0.044189453,-0.98150635,0.2111206,-0.390625,0.921875,0.171875
1664374450561,0.03881836,-0.9780884,0.21063232,-0.5625,0.5,-0.203125
1664374450604,0.04272461,-0.9859009,0.21453857,-0.359375,0.75,-0.21875
1664374450634,0.035888672,-0.9783325,0.21600342,-0.1875,0.28125,0.171875
1664374450681,0.045410156,-0.9780884,0.215271,-0.109375,0.65625,-0.234375
1664374450714,0.05419922,-0.9780884,0.2164917,-0.359375,0.765625,-0.328125
1664374450755,0.03515625,-0.97198486,0.21258545,0.1875,0.234375,-0.171875
1664374450803,0.041503906,-0.98443604,0.21697998,0.328125,0.671875,-0.0625
1664374450832,0.04736328,-0.98223877,0.21624756,-0.03125,1.109375,-0.375
1664374450877,0.044921875,-0.9768677,0.22381592,0.09375,1.078125,0.140625
1664374450921,0.044189453,-0.98638916,0.21063232,-0.09375,0.265625,0.015625
1664374450951,0.044189453,-0.98272705,0.21673584,-0.328125,0.796875,0.296875
1664374450996,0.03466797,-0.9817505,0.22796631,0.90625,0.625,0.34375
1664374451026,0.05517578,-0.9780884,0.2164917,-1.015625,0.453125,0.21875
1664374451072,0.03540039,-0.9824829,0.21990967,-0.59375,-0.234375,-0.4375
1664374451114,0.052001953,-0.9859009,0.22821045,0.265625,1.640625,0.1875
1664374451146,0.04638672,-0.9668579,0.21990967,0.75,0.703125,0.1875
1664374451192,0.041992188,-0.9871216,0.22576904,0.0625,0.078125,-0.03125
1664374451235,0.041259766,-0.98565674,0.21868896,0.296875,0.953125,0.03125
1664374451264,0.041992188,-0.9673462,0.215271,0.84375,0.671875,0.1875
1664374451311,0.04345703,-0.9776001,0.21038818,0.375,1.015625,-0.53125
1664374451355,0.04248047,-0.9807739,0.22869873,0.734375,1.6875,-0.328125
1664374451385,0.044677734,-0.97369385,0.22601318,0.3125,1.0625,0.0
1664374451431,0.045166016,-0.97369385,0.21917725,-0.171875,0.421875,-0.28125
1664374451460,0.049072266,-0.9819946,0.22332764,-0.015625,-0.203125,-0.09375
1664374451504,0.043945312,-0.9817505,0.22528076,-0.28125,-0.09375,0.078125
1664374451551,0.045410156,-0.9768677,0.22235107,0.671875,0.15625,0.15625
1664374451582,0.05078125,-0.9795532,0.21795654,1.0625,-0.140625,0.34375
1664374451625,0.038330078,-0.9776001,0.22479248,1.375,0.484375,0.15625
1664374451671,0.040771484,-0.9768677,0.21820068,0.375,0.15625,-0.0625
1664374451701,0.043701172,-0.9859009,0.22064209,1.234375,0.9375,0.375
1664374451762,0.040283203,-0.9729614,0.22357178,2.3125,0.859375,-0.234375
1664374451775,0.055664062,-0.97735596,0.21673584,0.171875,0.515625,0.375
1664374451821,0.03149414,-0.9788208,0.20794678,-0.625,-0.46875,-0.4375
1664374451865,0.04638672,-0.99420166,0.2321167,2.078125,0.5,-0.03125
1664374451896,0.03930664,-0.97247314,0.21160889,1.890625,0.0,0.046875
1664374451970,0.04321289,-0.9771118,0.20355225,1.109375,-0.8125,-0.375
1664374451986,0.045410156,-0.9846802,0.2111206,1.765625,-0.1875,-0.1875
1664374452016,0.05444336,-0.97540283,0.2062378,1.15625,0.28125,0.046875
1664374452075,0.04248047,-0.9729614,0.20672607,0.96875,-0.515625,-0.21875
1664374452140,0.045410156,-0.97979736,0.20819092,0.5625,0.171875,-0.21875
1664374452144,0.045898438,-0.9898071,0.19793701,0.8125,0.328125,-0.28125
1664374452184,0.05126953,-0.9902954,0.215271,0.171875,-0.21875,-0.390625
1664374452212,0.041748047,-0.9788208,0.20672607,0.078125,-0.65625,-0.0625
1664374452256,0.042236328,-0.9776001,0.2062378,0.171875,0.3125,-0.28125
1664374452302,0.0546875,-0.9741821,0.2111206,-0.109375,0.03125,-0.40625
1664374452333,0.041259766,-0.98272705,0.20599365,-0.203125,0.28125,-0.234375
1664374452377,0.040039062,-0.9751587,0.21038818,-0.390625,0.625,-0.4375
1664374452422,0.03930664,-0.98321533,0.21087646,-0.75,0.484375,-0.421875
1664374452451,0.05493164,-0.9812622,0.20770264,-1.359375,-0.375,-0.1875
1664374452496,0.03515625,-0.9871216,0.2255249,-0.15625,0.515625,0.921875
1664374452527,0.044433594,-0.9741821,0.20672607,-3.265625,0.078125,-0.859375
1664374452572,0.048583984,-0.9780884,0.22943115,0.515625,0.0625,0.046875
1664374452616,0.059326172,-0.9817505,0.22283936,-0.3125,1.21875,0.625
1664374452646,0.036132812,-0.9729614,0.22235107,-0.515625,0.171875,0.453125
1664374452694,0.03491211,-0.9871216,0.22283936,0.34375,-0.015625,0.078125
1664374452736,0.061767578,-0.9793091,0.22137451,0.359375,0.765625,0.984375
1664374452765,0.049072266,-0.97320557,0.21453857,0.84375,0.625,0.640625
1664374452812,0.037597656,-0.9793091,0.2189331,0.828125,-0.078125,0.421875
1664374452856,0.05126953,-0.9890747,0.23162842,0.453125,0.203125,0.15625
1664374452886,0.057373047,-0.97662354,0.23187256,0.140625,0.734375,0.46875
1664374452933,0.046142578,-0.97076416,0.2189331,-0.140625,-0.296875,-0.03125
1664374452963,0.037597656,-0.9939575,0.22650146,0.15625,0.359375,-0.1875
1664374453006,0.038330078,-0.9783325,0.22747803,0.578125,0.609375,-0.0625
1664374453051,0.053710938,-0.98223877,0.22161865,0.796875,0.421875,-0.21875
1664374453081,0.0390625,-0.97979736,0.2164917,0.25,0.1875,0.015625
1664374453125,0.04296875,-0.97052,0.22283936,-0.328125,0.78125,-0.703125
1664374453173,0.05444336,-0.9837036,0.22064209,-0.125,0.25,-0.34375
1664374453201,0.036865234,-0.97662354,0.22479248,0.96875,0.171875,-0.390625
1664374453246,0.04638672,-0.97613525,0.2243042,-0.265625,1.046875,-0.09375
1664374453275,0.039794922,-0.9817505,0.21820068,-1.796875,0.1875,-1.015625
1664374453322,0.05493164,-0.9873657,0.23846436,0.734375,1.21875,0.09375
1664374453366,0.043701172,-0.9751587,0.22406006,0.515625,0.9375,-0.03125
1664374453396,0.048583984,-0.97857666,0.2255249,-0.265625,0.640625,-0.0625
1664374453441,0.04736328,-0.9849243,0.22894287,0.515625,0.90625,0.375
1664374453487,0.060791016,-0.97662354,0.22528076,0.6875,0.3125,0.125
1664374453515,0.037353516,-0.9817505,0.22479248,0.609375,0.640625,0.015625
1664374453562,0.05078125,-0.9771118,0.22454834,0.375,-0.140625,0.375
1664374453605,0.04272461,-0.9788208,0.21820068,0.65625,0.296875,0.015625
1664374453652,0.047851562,-0.97442627,0.22796631,0.875,0.015625,-0.078125
1664374453681,0.05102539,-0.9854126,0.22698975,0.0,-0.3125,-0.21875
1664374453711,0.041503906,-0.97735596,0.23187256,0.8125,-0.25,-0.0625
1664374453756,0.048339844,-0.97613525,0.2230835,1.09375,0.203125,-0.015625
1664374453803,0.044189453,-0.97540283,0.2243042,1.28125,-0.515625,-0.484375
1664374453832,0.039794922,-0.9771118,0.21722412,0.09375,-0.3125,-0.6875
1664374453877,0.04638672,-0.9746704,0.21356201,-0.765625,-0.203125,-0.421875
1664374453922,0.036865234,-0.97735596,0.22845459,0.78125,-0.28125,-0.296875
1664374453953,0.059326172,-0.9734497,0.21820068,-1.828125,-0.015625,-0.09375
1664374453996,0.026367188,-0.97076416,0.23065186,-0.75,-0.765625,-0.578125
1664374454026,0.056884766,-0.98223877,0.23602295,-0.21875,0.3125,-0.1875
1664374454072,0.0390625,-0.97662354,0.22772217,-0.453125,0.203125,0.125
1664374454116,0.041015625,-0.9734497,0.2321167,-0.15625,-0.34375,-0.1875
1664374454147,0.04321289,-0.986145,0.23260498,1.484375,0.40625,0.265625
1664374454192,0.044677734,-0.9656372,0.23114014,0.53125,0.65625,0.0625
1664374454236,0.03515625,-0.9793091,0.22332764,1.421875,0.28125,-0.078125
1664374454266,0.048339844,-0.98101807,0.22283936,0.90625,-0.015625,0.140625
1664374454325,0.045898438,-0.9727173,0.21575928,2.203125,0.921875,0.46875
1664374454356,0.045410156,-0.9812622,0.20819092,2.953125,0.859375,0.25
1664374454386,0.036865234,-0.97540283,0.2164917,3.8125,2.015625,0.0
1664374454446,0.05517578,-0.97979736,0.20404053,3.375,2.4375,-0.046875
1664374454462,0.041748047,-0.98394775,0.21185303,2.328125,1.625,-0.109375
1664374454521,0.03955078,-0.98028564,0.20355225,0.609375,1.5,-0.328125
1664374454553,0.05126953,-0.9854126,0.2111206,0.328125,1.21875,-0.359375
1664374454582,0.053222656,-0.9859009,0.20721436,0.40625,1.890625,-0.484375
1664374454626,0.03930664,-0.9902954,0.21820068,0.109375,1.96875,0.0625
1664374454673,0.046875,-0.97857666,0.18475342,-1.96875,0.875,-0.78125
1664374454703,0.05102539,-0.9890747,0.21429443,1.578125,2.734375,0.015625
1664374454746,0.053955078,-0.98516846,0.2062378,1.125,2.53125,0.25
1664374454777,0.0546875,-0.9788208,0.2020874,0.65625,1.671875,0.21875
1664374454822,0.044921875,-0.99298096,0.20477295,1.375,1.875,0.0
1664374454865,0.052246094,-0.986145,0.20916748,1.765625,2.171875,0.3125
1664374454897,0.0390625,-0.9793091,0.19378662,0.671875,0.5625,0.046875
1664374454941,0.060791016,-0.9812622,0.19915771,0.984375,1.09375,0.203125
1664374454989,0.049316406,-0.9829712,0.20428467,1.109375,1.703125,0.125
1664374455017,0.05493164,-0.9817505,0.19744873,2.0,2.125,0.234375
1664374455063,0.04272461,-0.98687744,0.20379639,1.65625,1.296875,-0.09375
1664374455106,0.053955078,-0.97784424,0.19134521,2.21875,1.796875,0.03125
1664374455139,0.06518555,-0.97857666,0.18426514,1.921875,1.65625,-0.421875
1664374455182,0.050048828,-0.9907837,0.19671631,1.1875,1.109375,-0.203125
1664374455213,0.060546875,-0.9783325,0.19476318,-0.3125,0.5625,-0.203125
1664374455257,0.043945312,-0.98028564,0.19891357,1.484375,0.359375,0.46875
1664374455303,0.064453125,-0.9898071,0.17767334,-2.6875,-1.21875,-0.734375
1664374455332,0.047607422,-0.9866333,0.20794678,-0.296875,-1.234375,-0.484375
1664374455377,0.05053711,-0.98883057,0.2098999,-0.640625,-0.75,-0.375
1664374455423,0.051757812,-0.9890747,0.19012451,0.3125,-0.671875,0.171875
1664374455453,0.06347656,-0.97979736,0.2062378,0.859375,-0.578125,-0.25
1664374455497,0.052001953,-0.9873657,0.20135498,0.15625,-1.125,-0.125
1664374455525,0.046142578,-0.9805298,0.20135498,-0.75,-1.140625,-0.171875
1664374455571,0.06201172,-0.99298096,0.20159912,0.203125,-1.5625,-0.1875
1664374455616,0.053466797,-0.9859009,0.20306396,-1.328125,-1.46875,0.15625
1664374455645,0.04711914,-0.9673462,0.19622803,-4.4375,-4.46875,0.40625
1664374455692,0.07104492,-0.9944458,0.19110107,0.703125,-2.03125,-0.234375
1664374455736,0.038330078,-0.9829712,0.2230835,0.484375,-0.5625,0.4375
1664374455766,0.04248047,-0.9758911,0.20281982,0.03125,-1.65625,0.296875
1664374455811,0.064208984,-0.98809814,0.20526123,0.71875,-0.6875,-0.171875
1664374455856,0.035888672,-0.9817505,0.2164917,0.53125,-0.625,-0.484375
1664374455887,0.045654297,-0.98687744,0.21038818,-1.078125,-0.53125,0.3125
1664374455934,0.053466797,-0.9824829,0.20965576,-1.265625,-1.375,-1.109375
1664374455962,0.0390625,-0.989563,0.20599365,1.109375,-0.203125,-0.234375
1664374456007,0.049804688,-0.97247314,0.21234131,0.5,0.75,-0.25
1664374456051,0.041259766,-0.98760986,0.20306396,0.203125,-0.21875,-0.5
1664374456082,0.05102539,-0.98516846,0.21453857,0.671875,0.109375,-0.078125
1664374456124,0.056152344,-0.9751587,0.21356201,-0.203125,-0.25,0.296875
1664374456172,0.040283203,-0.9771118,0.20281982,-0.34375,-1.203125,-0.046875
1664374456201,0.0546875,-0.9859009,0.21429443,0.484375,-0.0625,0.03125
1664374456262,0.03857422,-0.9729614,0.19647217,0.015625,0.21875,0.359375
1664374456275,0.049072266,-0.97784424,0.2033081,0.25,-0.453125,-0.03125
1664374456322,0.048828125,-0.9859009,0.21136475,-0.03125,-0.203125,-0.03125
1664374456367,0.047607422,-0.97857666,0.20965576,-0.546875,0.265625,0.265625
1664374456396,0.033447266,-0.9776001,0.21356201,-0.9375,0.1875,-0.484375
1664374456443,0.057373047,-0.9841919,0.22528076,-0.4375,-0.046875,-0.140625
1664374456486,0.043701172,-0.9776001,0.23284912,0.890625,0.53125,0.234375
1664374456515,0.04663086,-0.97076416,0.20477295,-2.671875,0.0625,-0.453125
1664374456561,0.03125,-0.9907837,0.22576904,0.40625,-0.53125,-0.4375
1664374456605,0.057861328,-0.98272705,0.22894287,0.109375,1.203125,0.15625
1664374456637,0.03564453,-0.98321533,0.22406006,0.0625,0.90625,-0.484375
1664374456682,0.04296875,-0.9741821,0.22991943,-0.203125,-0.234375,-0.453125
1664374456713,0.036376953,-0.98272705,0.22918701,0.234375,0.125,-0.203125
1664374456755,0.05029297,-0.9812622,0.22015381,-0.265625,0.4375,-0.109375
1664374456801,0.045410156,-0.98760986,0.21990967,-0.0625,0.46875,-0.53125
1664374456832,0.042236328,-0.975647,0.2189331,0.234375,0.703125,-0.25
1664374456876,0.04345703,-0.97735596,0.22283936,0.015625,1.046875,0.03125
1664374456922,0.036621094,-0.9734497,0.22723389,-0.109375,0.40625,-0.390625
1664374456953,0.041992188,-0.9841919,0.23260498,-0.4375,0.5,-0.03125
1664374456995,0.046875,-0.9812622,0.22406006,-0.25,0.5625,-0.1875
1664374457041,0.03540039,-0.9776001,0.23284912,0.359375,0.84375,-0.34375
1664374457072,0.045898438,-0.9771118,0.22650146,-0.296875,0.765625,-0.65625
1664374457116,0.03100586,-0.97979736,0.23431396,1.46875,0.921875,0.328125
1664374457146,0.06274414,-0.97735596,0.20965576,-1.765625,0.171875,-0.625
1664374457194,0.032226562,-0.9927368,0.23724365,1.765625,0.9375,-0.21875
1664374457238,0.041992188,-0.9746704,0.23358154,0.640625,1.546875,0.125
1664374457265,0.048339844,-0.9780884,0.22454834,0.0625,0.953125,-0.0625
1664374457312,0.04345703,-0.9854126,0.230896,0.71875,-0.078125,-0.109375
1664374457358,0.037353516,-0.97613525,0.23602295,0.953125,1.015625,0.359375
1664374457385,0.044189453,-0.9673462,0.22015381,0.375,0.796875,0.015625
1664374457433,0.049072266,-0.97857666,0.22698975,1.078125,0.390625,0.03125
1664374457505,0.045654297,-0.975647,0.22235107,0.71875,0.6875,-0.078125
1664374457507,0.04296875,-0.9829712,0.22821045,1.328125,1.328125,0.078125
1664374457554,0.051513672,-0.9776001,0.2243042,1.0,1.0625,0.171875
1664374457584,0.044921875,-0.9807739,0.22528076,1.28125,0.703125,0.046875
1664374457627,0.05078125,-0.9837036,0.21917725,0.265625,1.328125,0.1875
1664374457674,0.049560547,-0.9807739,0.22015381,0.734375,0.421875,0.15625
1664374457701,0.05810547,-0.9758911,0.22332764,-0.65625,0.328125,-0.484375
1664374457746,0.043945312,-0.98516846,0.24090576,0.421875,0.390625,0.609375
1664374457777,0.053710938,-0.9692993,0.20574951,-3.0,-1.359375,-0.375
1664374457822,0.05834961,-0.9907837,0.23797607,1.59375,1.203125,0.34375
1664374457865,0.03564453,-0.9768677,0.22357178,0.546875,0.640625,0.59375
1664374457898,0.05102539,-0.97784424,0.22894287,0.296875,0.6875,-0.046875
1664374457942,0.049072266,-0.9841919,0.2255249,0.0,-0.140625,-0.03125
1664374457985,0.05029297,-0.9741821,0.22357178,0.328125,0.5,0.1875
1664374458017,0.048339844,-0.97247314,0.22015381,0.71875,0.375,-0.25
1664374458061,0.052490234,-0.97979736,0.22723389,0.125,-0.15625,-0.03125
1664374458107,0.045166016,-0.9678345,0.22454834,0.265625,-0.03125,0.203125
1664374458136,0.039794922,-0.97442627,0.22845459,0.46875,-0.21875,-0.203125
1664374458184,0.05419922,-0.98223877,0.2345581,0.703125,-0.359375,0.15625
1664374458212,0.055419922,-0.9788208,0.21722412,1.15625,-0.21875,0.3125
1664374458257,0.052246094,-0.9812622,0.22137451,1.359375,-0.515625,0.1875
1664374458302,0.048339844,-0.9788208,0.22479248,0.671875,-0.390625,-0.28125
1664374458332,0.056396484,-0.97442627,0.21722412,0.375,0.234375,0.234375
1664374458377,0.044921875,-0.97979736,0.23529053,2.28125,-0.8125,0.28125
1664374458421,0.064697266,-0.9795532,0.21258545,-1.1875,-1.125,-0.140625
1664374458453,0.04736328,-0.9841919,0.22821045,1.921875,-0.4375,-0.203125
1664374458498,0.052001953,-0.97906494,0.22698975,1.390625,0.390625,0.484375
1664374458526,0.048583984,-0.9746704,0.2189331,0.359375,-0.21875,-0.234375
1664374458572,0.060058594,-0.97784424,0.21722412,0.34375,-0.953125,-0.203125
1664374458616,0.04736328,-0.986145,0.21551514,0.359375,-0.234375,0.46875
1664374458645,0.052490234,-0.97906494,0.2086792,-0.40625,0.671875,-0.546875
1664374458692,0.052490234,-0.9768677,0.22332764,-0.515625,-0.078125,-0.15625
1664374458737,0.045410156,-0.98760986,0.2098999,-1.34375,-0.640625,-0.171875
1664374458768,0.052978516,-0.97491455,0.2189331,-0.78125,-0.015625,-0.21875
1664374458811,0.05029297,-0.973938,0.22601318,-0.96875,-0.078125,-0.5
1664374458856,0.040283203,-0.9807739,0.22723389,-0.953125,-0.375,-0.171875
1664374458888,0.041259766,-0.96954346,0.22845459,-0.625,0.234375,-0.546875
1664374458932,0.050048828,-0.9829712,0.23065186,-0.578125,0.0625,-0.453125
1664374458962,0.041503906,-0.97662354,0.22894287,-0.78125,0.265625,-0.34375
1664374459005,0.048583984,-0.97662354,0.23651123,-1.15625,-0.25,-0.453125
1664374459052,0.033203125,-0.99176025,0.24920654,1.90625,0.8125,0.453125
1664374459082,0.06567383,-0.9661255,0.21722412,-3.140625,-0.125,-0.796875
1664374459134,0.034423828,-0.9758911,0.24359131,0.90625,-0.25,-0.234375
1664374459174,0.04711914,-0.9751587,0.23309326,-0.53125,1.203125,-0.078125
1664374459200,0.04321289,-0.9663696,0.23382568,-0.578125,0.265625,-0.140625
1664374459246,0.052490234,-0.97857666,0.24505615,0.3125,-0.078125,-0.46875
1664374459275,0.047851562,-0.9817505,0.23309326,0.96875,0.15625,0.6875
1664374459321,0.037841797,-0.9651489,0.22869873,1.03125,0.21875,0.0625
1664374459366,0.05126953,-0.97857666,0.24139404,1.78125,0.0,-0.09375
1664374459396,0.03857422,-0.9734497,0.23431396,1.328125,0.328125,0.46875
1664374459442,0.05053711,-0.9727173,0.24066162,1.15625,0.46875,-0.21875
1664374459486,0.04711914,-0.9776001,0.22991943,0.53125,-0.203125,-0.078125
1664374459517,0.048095703,-0.98028564,0.22943115,1.265625,0.421875,-0.359375
1664374459561,0.053222656,-0.9746704,0.22747803,0.9375,0.875,-0.0625
1664374459636,0.049560547,-0.97320557,0.22650146,-0.109375,0.671875,-0.359375
1664374459638,0.041992188,-0.98687744,0.22918701,0.53125,0.78125,-0.03125
1664374459681,0.05517578,-0.9678345,0.23040771,-0.421875,1.015625,-1.03125
1664374459713,0.041748047,-0.9783325,0.23724365,1.296875,0.96875,0.359375
1664374459755,0.05859375,-0.97735596,0.21160889,-2.484375,-0.65625,-0.46875
1664374459802,0.03857422,-0.97979736,0.24041748,1.640625,0.515625,-0.3125
1664374459832,0.04248047,-0.972229,0.2296753,0.265625,1.109375,0.09375
1664374459892,0.04638672,-0.9771118,0.2333374,0.296875,0.71875,-0.125
1664374459922,0.05053711,-0.986145,0.22918701,0.546875,0.875,-0.328125
1664374459952,0.04321289,-0.97540283,0.23187256,0.5625,1.03125,0.1875
1664374459997,0.044677734,-0.972229,0.23138428,0.671875,0.90625,-0.375
1664374460026,0.039794922,-0.98443604,0.22943115,0.5,0.84375,0.015625
1664374460073,0.048095703,-0.97540283,0.22650146,0.734375,1.171875,-0.15625
1664374460115,0.044433594,-0.97491455,0.22601318,1.0,1.1875,-0.34375
1664374460146,0.03955078,-0.97857666,0.22821045,1.140625,0.875,-0.078125
1664374460193,0.057373047,-0.972229,0.22772217,0.609375,0.953125,-0.03125
1664374460236,0.037353516,-0.97540283,0.21917725,0.703125,1.375,-0.171875
1664374460266,0.04711914,-0.9841919,0.23529053,0.84375,1.671875,-0.296875
1664374460325,0.051757812,-0.97613525,0.22357178,0.03125,1.34375,-0.828125
1664374460341,0.040039062,-0.987854,0.2321167,0.96875,1.328125,0.40625
1664374460385,0.052490234,-0.97369385,0.20355225,-1.9375,0.234375,-0.734375
1664374460433,0.05102539,-0.97906494,0.2411499,2.21875,0.96875,-0.28125
1664374460462,0.046875,-0.9800415,0.22503662,0.28125,0.796875,0.03125
1664374460505,0.05053711,-0.9729614,0.22698975,0.765625,0.625,0.046875
1664374460552,0.03955078,-0.97979736,0.22503662,0.734375,0.65625,-0.21875
1664374460581,0.04736328,-0.98101807,0.22772217,1.015625,1.171875,0.375
1664374460627,0.046142578,-0.97003174,0.22650146,0.21875,1.171875,-0.171875
1664374460673,0.04296875,-0.97784424,0.22503662,0.703125,0.734375,0.125
1664374460703,0.044677734,-0.97540283,0.2255249,0.453125,0.859375,0.28125
1664374460746,0.04736328,-0.9741821,0.22259521,0.515625,0.765625,-0.265625
1664374460777,0.049804688,-0.98809814,0.22235107,0.40625,0.40625,0.03125
1664374460822,0.049316406,-0.9824829,0.22821045,0.484375,0.515625,0.015625
1664374460865,0.045166016,-0.9776001,0.22161865,-0.03125,0.125,-0.234375
1664374460897,0.05126953,-0.98516846,0.22406006,0.46875,0.0625,-0.125
1664374460941,0.047607422,-0.9807739,0.23431396,0.65625,0.359375,-0.234375
1664374460987,0.037109375,-0.9800415,0.22772217,0.75,0.171875,0.5
1664374461017,0.055664062,-0.9751587,0.21453857,-0.6875,-1.203125,-0.359375
1664374461062,0.04321289,-0.98638916,0.24066162,1.78125,-0.640625,0.296875
1664374461091,0.047607422,-0.9751587,0.21942139,0.953125,-0.21875,0.09375
1664374461136,0.052246094,-0.9834595,0.21917725,0.796875,-0.125,0.25
1664374461182,0.053222656,-0.98150635,0.2255249,1.53125,-0.328125,0.109375
1664374461212,0.045410156,-0.9763794,0.21917725,1.859375,-0.40625,0.453125
1664374461256,0.045410156,-0.97491455,0.21844482,1.828125,-0.484375,0.03125
1664374461302,0.045654297,-0.98101807,0.22381592,1.359375,0.234375,0.171875
1664374461331,0.048583984,-0.9812622,0.21478271,1.03125,0.171875,0.203125
1664374461376,0.052734375,-0.97491455,0.21136475,0.75,-0.765625,0.0625
1664374461425,0.048828125,-0.9824829,0.21722412,0.6875,-0.703125,0.078125
1664374461452,0.05419922,-0.98394775,0.22161865,0.4375,-0.375,0.09375
1664374461514,0.04296875,-0.9834595,0.21600342,0.3125,-0.65625,0.15625
1664374461527,0.05126953,-0.98443604,0.21087646,-0.390625,-0.546875,0.15625
1664374461571,0.052246094,-0.9758911,0.21502686,0.265625,-0.84375,-0.15625
1664374461615,0.040771484,-0.9873657,0.22161865,0.71875,-0.21875,0.53125
1664374461647,0.06689453,-0.97906494,0.19476318,-1.71875,-0.3125,-0.609375
1664374461691,0.049072266,-0.97979736,0.22161865,1.796875,0.15625,0.359375
1664374461736,0.05859375,-0.9692993,0.2177124,0.15625,0.96875,0.453125
1664374461770,0.049560547,-0.9758911,0.21063232,-0.21875,-0.015625,-0.140625
1664374461813,0.05029297,-0.98809814,0.21673584,0.984375,0.3125,-0.203125
1664374461842,0.059814453,-0.973938,0.21258545,-0.390625,0.765625,-0.078125
1664374461885,0.057617188,-0.9673462,0.21160889,-0.390625,0.140625,-0.296875
1664374461932,0.049560547,-0.9829712,0.22015381,0.171875,0.0,-0.3125
1664374461961,0.048339844,-0.97540283,0.22113037,-0.828125,0.265625,-0.03125
1664374462006,0.06323242,-0.9758911,0.22064209,-0.46875,0.109375,-0.609375
1664374462052,0.052490234,-0.9824829,0.2230835,-0.28125,0.171875,-0.234375
1664374462082,0.04711914,-0.9841919,0.22088623,-0.515625,0.0625,-0.25
1664374462125,0.0546875,-0.9800415,0.22406006,-0.671875,0.546875,-0.3125
1664374462172,0.046142578,-0.97442627,0.22576904,-0.734375,0.484375,-0.015625
1664374462200,0.05078125,-0.9741821,0.22235107,-0.984375,-0.09375,-0.046875
1664374462246,0.03930664,-0.9824829,0.23724365,1.4375,0.296875,0.203125
1664374462275,0.061767578,-0.97369385,0.21234131,-2.3125,0.109375,-0.828125
1664374462321,0.03100586,-0.9837036,0.23187256,0.5625,-0.359375,-0.109375
1664374462366,0.051513672,-0.975647,0.22869873,0.34375,1.28125,0.0625
1664374462398,0.04736328,-0.9776001,0.22845459,0.21875,0.8125,-0.515625
1664374462442,0.044921875,-0.97662354,0.23406982,0.40625,0.46875,-0.34375
1664374462488,0.050048828,-0.9746704,0.22406006,0.1875,0.6875,0.03125
1664374462517,0.041748047,-0.97442627,0.23016357,0.390625,0.828125,-0.28125
1664374462562,0.047851562,-0.975647,0.23138428,0.703125,0.78125,-0.4375
1664374462594,0.03930664,-0.9819946,0.23016357,-0.03125,0.828125,-0.390625
1664374462636,0.055908203,-0.97052,0.22943115,0.765625,0.6875,-0.21875
1664374462681,0.044189453,-0.9834595,0.2255249,0.40625,0.109375,-0.4375
1664374462713,0.044433594,-0.97784424,0.23187256,0.546875,0.8125,-0.0625
1664374462757,0.053710938,-0.97540283,0.2267456,0.171875,0.609375,-0.4375
1664374462802,0.044921875,-0.98028564,0.23016357,-0.140625,0.671875,-0.171875
1664374462832,0.048339844,-0.9807739,0.23651123,0.8125,1.140625,-0.25
1664374462877,0.050048828,-0.97369385,0.23187256,0.234375,0.828125,-0.59375
1664374462939,0.04663086,-0.98443604,0.24285889,1.015625,0.53125,0.359375
1664374462951,0.044189453,-0.9788208,0.2074585,-2.875,-0.46875,-0.71875
1664374462998,0.04248047,-0.9849243,0.24163818,2.09375,0.875,-0.140625
1664374463025,0.05126953,-0.97491455,0.23138428,0.453125,1.25,-0.09375
1664374463073,0.053710938,-0.97857666,0.23553467,0.609375,0.5625,-0.046875
1664374463116,0.048095703,-0.9793091,0.23553467,0.28125,0.796875,-0.328125
1664374463161,0.045654297,-0.97784424,0.23138428,0.984375,0.65625,-0.03125
1664374463193,0.047851562,-0.97125244,0.23040771,0.484375,0.3125,-0.25
1664374463235,0.048095703,-0.98101807,0.23260498,0.375,0.390625,-0.296875
1664374463266,0.045166016,-0.973938,0.22747803,0.65625,0.359375,-0.046875
1664374463312,0.044677734,-0.9812622,0.2333374,0.421875,0.4375,-0.453125
1664374463343,0.0546875,-0.9812622,0.22503662,0.15625,0.46875,-0.15625
1664374463386,0.04345703,-0.97784424,0.23162842,0.484375,0.0625,-0.171875
1664374463434,0.048339844,-0.97369385,0.23162842,0.0625,0.203125,-0.140625
1664374463461,0.041503906,-0.98028564,0.23260498,-0.625,-0.53125,0.046875
1664374463505,0.04711914,-0.97613525,0.22283936,0.140625,-0.171875,0.328125
1664374463552,0.047607422,-0.9751587,0.23406982,1.609375,-0.359375,0.125
1664374463582,0.048095703,-0.9734497,0.23382568,-0.5,-0.453125,0.421875
1664374463626,0.029541016,-0.9714966,0.22772217,-0.1875,-1.515625,-0.21875
1664374463672,0.05078125,-0.9924927,0.24578857,1.09375,-0.171875,0.375
1664374463702,0.043945312,-0.97003174,0.22454834,1.484375,0.234375,0.625
1664374463746,0.028076172,-0.97003174,0.22723389,1.046875,-0.25,0.21875
1664374463776,0.04296875,-0.9898071,0.23138428,2.21875,0.21875,-0.375
1664374463822,0.057861328,-0.97857666,0.22357178,1.328125,1.21875,0.40625
1664374463866,0.041259766,-0.97540283,0.2218628,1.5625,0.203125,0.015625
1664374463897,0.041259766,-0.98223877,0.2218628,1.546875,-0.015625,0.078125
1664374463942,0.06298828,-0.97979736,0.22503662,1.46875,0.859375,0.109375
1664374463985,0.053955078,-0.9788208,0.21868896,1.03125,0.390625,-0.0625
1664374464018,0.048828125,-0.98272705,0.215271,0.078125,-0.640625,0.25
1664374464062,0.045898438,-0.97540283,0.23236084,-1.53125,-1.171875,0.390625
1664374464092,0.05078125,-0.9807739,0.21575928,0.0,-0.046875,0.359375
1664374464136,0.057373047,-0.9714966,0.20111084,1.4375,1.234375,0.9375
1664374464185,0.0546875,-0.9829712,0.22259521,1.296875,0.578125,-0.0625
1664374464212,0.041748047,-0.9807739,0.22943115,2.046875,-0.03125,0.15625
1664374464257,0.067871094,-0.9873657,0.20574951,-0.546875,0.390625,0.359375
1664374464302,0.032470703,-0.98028564,0.22015381,-0.46875,-0.921875,-0.21875
1664374464333,0.047607422,-0.98931885,0.2399292,-0.078125,0.90625,0.21875
1664374464377,0.05053711,-0.96832275,0.2111206,-0.375,-0.40625,0.484375
1664374464451,0.05859375,-0.9780884,0.21014404,0.234375,0.046875,-0.109375
1664374464453,0.030273438,-0.991272,0.22039795,0.484375,0.3125,-0.234375
1664374464498,0.057128906,-0.97198486,0.22113037,-0.5,1.25,-0.1875
1664374464526,0.04321289,-0.98028564,0.22161865,-0.671875,-0.15625,-0.65625
1664374464572,0.052001953,-0.98272705,0.22845459,-0.484375,0.40625,-0.265625
1664374464617,0.052001953,-0.97735596,0.22161865,-0.375,0.234375,-0.3125
1664374464649,0.052490234,-0.9727173,0.22625732,-0.9375,-0.03125,-0.578125
1664374464691,0.043945312,-0.972229,0.21722412,-0.53125,-0.34375,-0.4375
1664374464738,0.048583984,-0.9800415,0.22259521,-0.0625,0.046875,-0.21875
1664374464766,0.046142578,-0.97613525,0.23504639,-0.375,0.078125,-0.4375
1664374464811,0.049560547,-0.9763794,0.230896,-0.28125,-0.53125,-0.03125
1664374464841,0.044677734,-0.97540283,0.22357178,-0.6875,0.171875,-0.0625
1664374464886,0.04638672,-0.97491455,0.23382568,1.015625,0.078125,-0.421875
1664374464931,0.04345703,-0.97662354,0.23016357,-0.328125,0.75,0.375
1664374464962,0.04736328,-0.97784424,0.22161865,-0.953125,-0.203125,-0.546875
1664374465005,0.047607422,-0.9841919,0.2411499,1.53125,0.953125,0.09375
1664374465053,0.042236328,-0.9717407,0.2374878,0.859375,1.59375,-0.25
1664374465097,0.05444336,-0.9734497,0.23065186,0.46875,0.859375,-0.28125
1664374465126,0.030273438,-0.9902954,0.2321167,0.390625,1.078125,-0.109375
1664374465200,0.056640625,-0.97198486,0.23284912,0.578125,1.734375,-0.40625
