# Sensor type: Respeck
# Activity type: Standing
# Activity code: 100
# Subject id: s1912575
# Notes: 
timestamp,accel_x,accel_y,accel_z,gyro_x,gyro_y,gyro_z
1664896329687,-0.12060547,-0.99468994,0.09466553,0.984375,0.96875,-0.3125
1664896329730,-0.06713867,-1.017395,0.08758545,0.828125,0.59375,0.734375
1664896329761,-0.071777344,-0.97857666,0.07537842,-0.796875,-0.890625,0.0625
1664896329806,-0.12695312,-0.9961548,0.089538574,-0.109375,-2.21875,-1.25
1664896329836,-0.1303711,-1.0181274,0.09295654,0.359375,-1.3125,0.234375
1664896329882,-0.099121094,-0.986145,0.07611084,-1.0,-2.828125,0.390625
1664896329927,-0.10571289,-0.9883423,0.08856201,0.234375,-2.78125,-0.03125
1664896329957,-0.14355469,-0.99786377,0.09539795,-0.578125,-2.5625,-0.546875
1664896330000,-0.12841797,-0.9883423,0.0914917,-0.671875,-1.96875,-0.203125
1664896330062,-0.10864258,-0.9924927,0.09442139,-0.609375,-1.78125,-0.78125
1664896330076,-0.115478516,-0.98883057,0.09320068,-2.171875,-2.65625,-0.296875
1664896330122,-0.12695312,-0.97735596,0.09490967,-2.515625,-2.0,-0.59375
1664896330150,-0.1105957,-1.0088501,0.10418701,-1.546875,-1.234375,-1.09375
1664896330197,-0.13378906,-0.9961548,0.11199951,-0.75,-1.140625,-0.15625
1664896330243,-0.114746094,-0.98638916,0.09490967,-4.515625,-2.140625,-1.265625
1664896330271,-0.12109375,-1.0130005,0.11541748,0.640625,-2.625,-0.421875
1664896330316,-0.11669922,-0.9849243,0.113220215,-1.515625,-1.390625,-0.1875
1664896330361,-0.1340332,-0.99176025,0.11517334,-1.171875,-0.421875,-1.0625
1664896330391,-0.12915039,-0.9993286,0.109558105,0.671875,-0.03125,-0.078125
1664896330437,-0.107666016,-0.98883057,0.11102295,1.0625,1.09375,0.0
1664896330482,-0.119384766,-0.9898071,0.10760498,2.140625,1.234375,0.25
1664896330512,-0.12109375,-0.99224854,0.11077881,0.984375,0.71875,-0.0625
1664896330557,-0.11621094,-0.9993286,0.113220215,0.109375,0.8125,-0.171875
1664896330587,-0.11035156,-0.99786377,0.113220215,0.59375,1.09375,-0.015625
1664896330632,-0.12451172,-0.99835205,0.105651855,-0.21875,0.59375,-0.09375
1664896330677,-0.12451172,-0.98443604,0.10638428,0.125,0.359375,0.34375
1664896330707,-0.11376953,-0.989563,0.12420654,1.09375,1.078125,0.109375
1664896330751,-0.10839844,-0.99542236,0.112976074,-1.453125,0.078125,-0.21875
1664896330797,-0.14160156,-0.99102783,0.13201904,1.09375,-0.28125,0.65625
1664896330827,-0.1105957,-1.0015259,0.10369873,-3.0,-1.015625,-0.609375
1664896330873,-0.11791992,-0.99224854,0.1305542,0.703125,-0.796875,0.53125
1664896330900,-0.12451172,-0.98150635,0.121032715,-0.4375,-0.234375,-0.0625
1664896330947,-0.12792969,-0.99542236,0.11663818,-0.421875,-0.671875,-0.53125
1664896330993,-0.12133789,-0.9976196,0.124938965,0.296875,-0.3125,0.125
1664896331024,-0.1171875,-0.99005127,0.113464355,0.53125,-0.046875,-0.03125
1664896331068,-0.12451172,-0.98394775,0.10321045,0.734375,-0.046875,-0.0625
1664896331112,-0.12084961,-0.9812622,0.11077881,0.421875,0.21875,0.15625
1664896331143,-0.12011719,-0.9932251,0.117614746,0.09375,-0.140625,-0.296875
1664896331186,-0.1171875,-0.99664307,0.1149292,-0.296875,-0.234375,0.0
1664896331234,-0.1237793,-0.98443604,0.10760498,0.71875,0.265625,0.03125
1664896331264,-0.1237793,-0.99053955,0.105895996,0.609375,0.234375,0.203125
1664896331338,-0.12695312,-0.9924927,0.11932373,0.921875,0.5625,0.0625
1664896331341,-0.10571289,-1.0029907,0.11126709,-0.421875,0.34375,0.03125
1664896331382,-0.12841797,-0.9949341,0.13494873,1.609375,0.421875,1.03125
1664896331443,-0.114990234,-0.98394775,0.0927124,-2.71875,-0.03125,0.03125
1664896331457,-0.11328125,-1.010315,0.12567139,4.203125,1.359375,0.734375
1664896331502,-0.11352539,-0.99346924,0.12664795,0.0,0.46875,0.8125
1664896331547,-0.118652344,-0.9871216,0.1161499,-0.203125,-0.015625,0.140625
1664896331577,-0.119140625,-0.99053955,0.10809326,1.328125,-0.21875,0.515625
1664896331621,-0.11621094,-0.9907837,0.11175537,0.65625,0.359375,0.46875
1664896331653,-0.115234375,-0.99664307,0.117614746,0.78125,0.25,0.3125
1664896331698,-0.11279297,-0.9890747,0.11785889,0.5625,1.0625,0.359375
1664896331741,-0.10205078,-0.991272,0.117614746,0.609375,0.96875,0.5
1664896331770,-0.11328125,-0.9956665,0.11199951,-0.171875,0.640625,0.0
1664896331818,-0.114746094,-0.99176025,0.11566162,0.90625,1.40625,0.34375
1664896331861,-0.11206055,-1.0010376,0.11004639,1.53125,1.015625,0.296875
1664896331907,-0.10424805,-0.9890747,0.11834717,0.609375,0.796875,0.546875
1664896331938,-0.096191406,-0.9981079,0.10369873,-0.421875,0.609375,0.109375
1664896331983,-0.12084961,-1.0020142,0.12591553,1.46875,0.515625,0.765625
1664896332015,-0.095214844,-0.99053955,0.09051514,-1.90625,-0.046875,0.3125
1664896332057,-0.09277344,-0.9927368,0.13275146,2.734375,0.25,0.875
1664896332131,-0.08666992,-0.9944458,0.11224365,-0.328125,-1.96875,1.09375
1664896332133,-0.10620117,-0.9829712,0.10809326,0.5,-1.390625,0.921875
1664896332177,-0.11010742,-1.0020142,0.121520996,0.53125,-2.0,0.46875
1664896332207,-0.104003906,-1.0066528,0.12542725,-0.28125,-2.203125,1.109375
1664896332252,-0.119384766,-0.98223877,0.10760498,0.71875,-1.640625,0.46875
1664896332298,-0.12939453,-0.98760986,0.10638428,2.125,-1.015625,0.171875
1664896332329,-0.11328125,-1.005188,0.109069824,1.046875,-0.421875,0.40625
1664896332388,-0.10058594,-0.98516846,0.11541748,-0.296875,0.484375,0.046875
1664896332401,-0.104003906,-0.9998169,0.10638428,0.515625,-0.015625,-0.328125
1664896332446,-0.10473633,-0.99786377,0.113220215,-0.375,-0.5,-0.171875
1664896332491,-0.11401367,-1.0010376,0.11248779,-0.53125,-1.421875,-0.75
1664896332523,-0.08569336,-1.0059204,0.109313965,-2.0,-3.4375,-1.078125
1664896332568,-0.10864258,-1.0056763,0.11956787,-0.328125,-4.5,-0.890625
1664896332627,-0.095947266,-0.97784424,0.10369873,-2.640625,-3.796875,-1.15625
1664896332641,-0.11230469,-0.98272705,0.13421631,0.875,-0.84375,-0.890625
1664896332688,-0.12695312,-0.99957275,0.12615967,-0.578125,-0.640625,-0.78125
1664896332733,-0.12426758,-0.9834595,0.10614014,-1.171875,-1.625,-0.828125
1664896332763,-0.103759766,-0.99053955,0.1239624,-0.53125,-0.09375,-0.5
1664896332808,-0.115722656,-1.0022583,0.1293335,-2.28125,-0.265625,-0.640625
1664896332837,-0.106933594,-0.9829712,0.11785889,-1.4375,-0.53125,-0.359375
1664896332883,-0.11425781,-0.98223877,0.11663818,0.25,-0.46875,-0.375
1664896332928,-0.12646484,-0.9873657,0.12347412,0.515625,0.546875,-0.25
1664896332956,-0.12524414,-0.9819946,0.11883545,0.609375,1.234375,-0.375
1664896333002,-0.12792969,-0.987854,0.12664795,0.453125,1.5625,-0.578125
1664896333048,-0.115234375,-0.9981079,0.12420654,0.40625,1.71875,-0.3125
1664896333077,-0.11230469,-0.9854126,0.11810303,-0.703125,0.890625,-0.328125
1664896333120,-0.1105957,-0.99468994,0.11932373,0.671875,1.734375,-0.03125
1664896333152,-0.119140625,-1.0066528,0.13397217,1.984375,1.421875,0.046875
1664896333197,-0.107666016,-0.99005127,0.11517334,-0.796875,1.109375,0.375
1664896333242,-0.13256836,-0.9907837,0.12640381,0.828125,0.296875,-0.59375
1664896333270,-0.11425781,-1.0022583,0.12591553,1.859375,1.90625,0.5625
1664896333318,-0.11621094,-0.98101807,0.12713623,0.640625,1.875,0.0
1664896333361,-0.119140625,-0.99542236,0.13079834,1.328125,0.765625,-0.125
1664896333392,-0.11645508,-1.000061,0.13372803,0.640625,1.5625,0.234375
1664896333437,-0.115234375,-0.98638916,0.11639404,1.1875,2.1875,-0.03125
1664896333483,-0.114746094,-0.99224854,0.12200928,2.0,1.75,-0.109375
1664896333512,-0.111572266,-0.98809814,0.12249756,1.546875,2.015625,0.15625
1664896333557,-0.11645508,-0.9939575,0.11810303,1.546875,1.703125,0.21875
1664896333588,-0.1171875,-0.9985962,0.12054443,1.671875,1.9375,0.09375
1664896333630,-0.10864258,-0.99664307,0.116882324,1.625,1.875,0.453125
1664896333677,-0.12036133,-0.989563,0.10443115,0.875,1.265625,0.140625
1664896333706,-0.11645508,-0.98272705,0.11102295,2.453125,2.765625,0.3125
1664896333751,-0.10449219,-0.9915161,0.11566162,1.078125,2.03125,0.1875
1664896333796,-0.11791992,-0.9963989,0.11639404,3.390625,3.078125,0.921875
1664896333827,-0.11328125,-0.9937134,0.09173584,-1.171875,1.953125,-0.3125
1664896333886,-0.1105957,-1.0010376,0.11956787,4.59375,3.296875,0.90625
1664896333916,-0.11035156,-0.9951782,0.10491943,0.828125,1.890625,0.140625
1664896333947,-0.110839844,-0.98809814,0.09295654,1.046875,2.03125,0.421875
1664896333991,-0.114746094,-0.9981079,0.10760498,1.4375,2.328125,0.3125
1664896334024,-0.104003906,-1.0015259,0.09710693,0.171875,2.125,0.375
1664896334067,-0.107910156,-0.99053955,0.09881592,1.96875,2.78125,0.703125
1664896334112,-0.1003418,-0.99542236,0.09320068,1.921875,2.15625,0.359375
1664896334143,-0.10839844,-0.99591064,0.10321045,2.28125,1.96875,0.4375
1664896334187,-0.09716797,-0.9937134,0.09539795,0.953125,1.875,0.59375
1664896334231,-0.09106445,-1.0012817,0.101501465,1.140625,2.375,0.203125
1664896334262,-0.11254883,-1.0005493,0.093933105,1.3125,1.078125,0.234375
1664896334307,-0.09838867,-0.99053955,0.105895996,0.453125,1.703125,0.53125
1664896334353,-0.088378906,-0.99835205,0.082214355,-0.71875,1.1875,0.0625
1664896334382,-0.11303711,-0.99835205,0.09906006,1.96875,1.484375,0.78125
1664896334427,-0.0847168,-0.99176025,0.0758667,-1.765625,0.859375,0.109375
1664896334457,-0.115722656,-1.0032349,0.10638428,2.109375,1.453125,0.484375
1664896334503,-0.07519531,-0.99542236,0.097351074,0.28125,1.1875,0.171875
1664896334548,-0.099365234,-0.9944458,0.089538574,-0.015625,0.296875,-0.375
1664896334578,-0.10131836,-1.0003052,0.0927124,0.65625,-0.75,-0.109375
1664896334623,-0.07836914,-1.0073853,0.08685303,1.046875,-1.234375,-0.46875
1664896334651,-0.0871582,-0.99542236,0.082214355,0.625,-1.140625,-0.171875
1664896334697,-0.09692383,-0.99224854,0.09490967,0.0625,-1.84375,-0.671875
1664896334743,-0.09741211,-0.9993286,0.085632324,0.609375,-1.34375,0.171875
1664896334772,-0.09887695,-0.99884033,0.090026855,0.421875,-2.03125,-0.25
1664896334820,-0.09716797,-1.0039673,0.09222412,0.734375,-2.25,-0.046875
1664896334863,-0.103027344,-0.99102783,0.0914917,1.015625,-1.390625,0.140625
1664896334891,-0.103271484,-0.989563,0.08660889,0.78125,-1.375,-0.34375
1664896334939,-0.11230469,-1.0015259,0.09954834,1.09375,-1.484375,-0.03125
1664896334966,-0.09399414,-0.98638916,0.093688965,0.21875,-1.5,-0.234375
1664896335010,-0.103515625,-0.99664307,0.08148193,0.546875,-1.375,0.203125
1664896335071,-0.107177734,-1.0044556,0.086120605,-0.21875,-0.703125,-0.875
1664896335088,-0.10180664,-1.0022583,0.0836792,0.65625,-0.453125,0.328125
1664896335131,-0.1003418,-0.98516846,0.086364746,-2.140625,-1.03125,-0.65625
1664896335177,-0.10180664,-1.0029907,0.081726074,-0.609375,-1.421875,-0.71875
1664896335207,-0.09765625,-0.99468994,0.09832764,0.359375,-0.078125,0.109375
1664896335251,-0.0925293,-0.9956665,0.09100342,-1.359375,-1.59375,-0.796875
1664896335298,-0.1003418,-0.9902954,0.10003662,-1.421875,-2.328125,-0.4375
1664896335327,-0.11035156,-0.99053955,0.08758545,-1.03125,-1.28125,-0.8125
1664896335373,-0.091552734,-0.991272,0.101501465,-2.296875,-1.625,-0.328125
1664896335403,-0.12133789,-0.9829712,0.0993042,-1.78125,-1.125,-0.875
1664896335447,-0.11669922,-0.9993286,0.109069824,0.375,0.078125,-0.390625
1664896335490,-0.0925293,-0.99786377,0.10369873,-0.875,0.359375,-0.40625
1664896335523,-0.111572266,-0.987854,0.11468506,-0.703125,-0.109375,-0.59375
1664896335567,-0.10058594,-0.98883057,0.11395264,-2.0,-0.828125,-0.5625
1664896335617,-0.11791992,-0.9985962,0.11956787,1.109375,0.375,-0.03125
1664896335641,-0.09301758,-0.9812622,0.0993042,-2.984375,-0.78125,-0.859375
1664896335688,-0.12548828,-0.99176025,0.12860107,1.046875,-0.140625,0.421875
1664896335716,-0.1015625,-0.99176025,0.11102295,-1.390625,0.46875,-0.46875
1664896335761,-0.122558594,-0.9859009,0.11151123,-0.90625,0.65625,-0.578125
1664896335807,-0.1159668,-1.0025024,0.117614746,-0.046875,0.3125,-0.171875
1664896335837,-0.092285156,-0.989563,0.112976074,0.21875,1.03125,-0.0625
1664896335882,-0.11206055,-0.98809814,0.11566162,-0.125,0.3125,-0.265625
1664896335926,-0.12597656,-0.9873657,0.11419678,0.3125,0.0625,-0.359375
1664896335956,-0.10864258,-0.9951782,0.11419678,0.78125,1.203125,0.203125
1664896336002,-0.10229492,-0.98516846,0.112976074,-0.21875,0.390625,-0.25
1664896336047,-0.11230469,-0.99102783,0.11151123,-0.25,0.03125,-0.171875
1664896336077,-0.111083984,-0.9837036,0.11907959,-0.078125,0.1875,-0.203125
1664896336123,-0.106933594,-0.9990845,0.105895996,-0.625,0.0,0.125
1664896336151,-0.10424805,-0.991272,0.11859131,0.734375,0.28125,0.046875
1664896336197,-0.11035156,-0.991272,0.12713623,1.125,-0.15625,0.0625
1664896336242,-0.11376953,-0.99176025,0.11419678,-0.53125,0.15625,0.765625
1664896336271,-0.12158203,-0.986145,0.12347412,0.640625,-0.03125,-0.453125
1664896336317,-0.103271484,-0.9951782,0.12322998,1.09375,1.25,0.53125
1664896336362,-0.122558594,-0.9873657,0.11053467,0.171875,0.796875,-0.59375
1664896336391,-0.123291016,-0.99542236,0.12908936,0.140625,0.265625,0.09375
1664896336451,-0.10864258,-1.0003052,0.11981201,0.578125,1.359375,0.015625
1664896336483,-0.11206055,-0.99468994,0.11199951,-0.375,0.5625,-0.296875
1664896336511,-0.103027344,-0.99053955,0.109313965,1.265625,1.375,-0.03125
1664896336570,-0.118652344,-0.9956665,0.12445068,0.375,1.375,0.0
1664896336587,-0.10571289,-0.9834595,0.12347412,0.328125,0.984375,-0.046875
1664896336632,-0.10473633,-0.99298096,0.11834717,0.46875,0.375,-0.109375
1664896336676,-0.103271484,-0.99420166,0.11590576,0.40625,0.6875,0.03125
1664896336706,-0.11035156,-0.99542236,0.11834717,0.859375,0.640625,-0.25
1664896336750,-0.111083984,-0.98760986,0.12054443,-0.171875,0.671875,0.078125
1664896336796,-0.10131836,-0.9920044,0.11224365,-0.40625,0.453125,-0.109375
1664896336827,-0.12109375,-0.9898071,0.13763428,1.484375,1.109375,0.0625
1664896336871,-0.087890625,-0.9968872,0.097839355,-2.453125,-0.4375,0.046875
1664896336902,-0.11621094,-0.9920044,0.13079834,3.046875,1.296875,-0.015625
1664896336947,-0.110839844,-0.9866333,0.120788574,0.671875,1.28125,0.203125
1664896336991,-0.103027344,-0.9902954,0.11663818,1.53125,1.921875,-0.171875
1664896337021,-0.111816406,-0.9944458,0.121032715,0.296875,0.78125,0.0
1664896337067,-0.10620117,-0.99468994,0.117126465,1.46875,1.296875,0.53125
1664896337110,-0.107910156,-0.9920044,0.11151123,0.234375,0.703125,-0.1875
1664896337144,-0.11254883,-0.9871216,0.11199951,0.4375,0.453125,-0.296875
1664896337190,-0.11206055,-0.99835205,0.11663818,0.25,-0.03125,-0.21875
1664896337217,-0.1081543,-0.9981079,0.12249756,0.234375,-0.484375,-0.0625
1664896337262,-0.11450195,-0.9890747,0.117370605,-1.78125,-1.421875,-0.21875
1664896337307,-0.103759766,-0.9902954,0.1293335,-3.5625,-2.0,-0.609375
1664896337336,-0.12011719,-0.99053955,0.12615967,-4.390625,-2.921875,-0.640625
1664896337383,-0.12133789,-1.0007935,0.12298584,-2.625,-2.265625,-0.421875
1664896337443,-0.1171875,-0.9885864,0.14324951,-3.390625,-2.03125,-0.546875
1664896337458,-0.114746094,-0.9915161,0.14984131,-6.34375,-3.390625,-0.90625
1664896337502,-0.08544922,-0.97125244,0.13250732,-8.1875,-2.625,0.234375
1664896337547,-0.10961914,-0.9976196,0.1720581,1.96875,0.703125,-0.6875
1664896337578,-0.12402344,-1.0032349,0.15960693,0.140625,0.5,1.0625
1664896337621,-0.11767578,-0.9553833,0.14471436,-2.046875,0.296875,0.171875
1664896337653,-0.10131836,-0.99542236,0.16986084,-1.5625,-0.15625,-0.59375
1664896337698,-0.11669922,-0.99835205,0.17401123,-2.984375,-0.234375,0.125
1664896337759,-0.12939453,-0.98272705,0.14886475,-0.75,0.4375,-0.515625
1664896337771,-0.107177734,-0.98516846,0.15545654,3.296875,0.203125,0.59375
1664896337817,-0.11230469,-0.9829712,0.16107178,2.921875,1.28125,0.3125
1664896337860,-0.111572266,-0.99176025,0.1552124,1.875,0.359375,-0.03125
1664896337893,-0.123291016,-0.9920044,0.15301514,0.203125,-0.59375,-0.109375
1664896337937,-0.11376953,-0.9817505,0.15496826,-0.0625,-0.53125,-0.078125
1664896337966,-0.118652344,-0.9883423,0.1473999,-0.046875,-0.640625,-0.015625
1664896338012,-0.10864258,-0.98931885,0.14324951,0.8125,-0.390625,-0.15625
1664896338058,-0.119140625,-0.98931885,0.15496826,1.0625,0.234375,-0.0625
1664896338087,-0.118896484,-0.9834595,0.14715576,-0.890625,0.21875,-0.265625
1664896338130,-0.123046875,-0.99005127,0.1671753,2.1875,0.25,0.234375
1664896338178,-0.095947266,-0.99346924,0.13079834,-3.390625,-0.203125,-1.046875
1664896338207,-0.12963867,-0.9963989,0.15985107,4.828125,0.453125,0.71875
1664896338250,-0.104003906,-0.9734497,0.1486206,0.1875,1.796875,0.125
1664896338327,-0.12109375,-0.99053955,0.15057373,0.625,0.75,-0.71875
1664896338330,-0.11791992,-1.0061646,0.15618896,2.359375,0.59375,0.484375
1664896338372,-0.084228516,-0.9932251,0.14520264,0.90625,-0.046875,0.515625
1664896338402,-0.10449219,-0.9883423,0.14031982,-0.0625,-0.21875,0.515625
1664896338447,-0.10449219,-0.9890747,0.15594482,1.109375,0.21875,0.1875
1664896338491,-0.109375,-0.987854,0.15130615,1.34375,0.28125,0.671875
1664896338523,-0.12451172,-0.9859009,0.1449585,2.0,0.3125,0.09375
1664896338567,-0.111816406,-0.99884033,0.1408081,1.59375,0.96875,0.328125
1664896338613,-0.11328125,-0.9873657,0.14129639,1.921875,1.234375,0.21875
1664896338642,-0.111816406,-0.9824829,0.13787842,1.6875,0.734375,0.109375
1664896338688,-0.10864258,-0.99420166,0.13983154,0.375,0.734375,0.203125
1664896338716,-0.11743164,-0.9829712,0.12786865,-0.484375,0.515625,-0.140625
1664896338762,-0.10473633,-0.9961548,0.13690186,1.1875,1.53125,0.0
1664896338807,-0.119140625,-0.9963989,0.14129639,3.5,1.828125,0.234375
1664896338837,-0.083740234,-0.9890747,0.1083374,-1.96875,1.671875,0.15625
1664896338883,-0.12109375,-0.98272705,0.15325928,3.484375,2.53125,-0.359375
1664896338928,-0.1081543,-0.99224854,0.14031982,1.4375,1.8125,0.3125
1664896338957,-0.10229492,-0.9883423,0.12200928,1.96875,3.609375,-0.140625
1664896339019,-0.11401367,-0.9951782,0.1449585,1.96875,2.234375,-0.078125
1664896339077,-0.109375,-0.9873657,0.121032715,0.984375,1.953125,0.3125
1664896339080,-0.08935547,-0.98565674,0.12445068,1.09375,1.375,0.015625
1664896339123,-0.10620117,-0.99786377,0.12713623,1.109375,1.09375,0.046875
1664896339153,-0.1105957,-0.98687744,0.11883545,2.015625,1.46875,0.484375
1664896339197,-0.099853516,-0.99664307,0.12249756,1.0,1.0625,0.140625
1664896339242,-0.10131836,-0.99005127,0.11785889,1.5,1.15625,0.328125
1664896339274,-0.107910156,-0.9944458,0.11932373,0.765625,1.609375,0.140625
1664896339317,-0.09765625,-0.9981079,0.11395264,1.15625,0.734375,0.375
1664896339363,-0.09350586,-0.9968872,0.117614746,1.25,0.578125,0.4375
1664896339392,-0.09790039,-0.9944458,0.11590576,1.390625,0.78125,0.78125
1664896339439,-0.11254883,-0.9907837,0.11859131,1.609375,1.4375,0.40625
1664896339467,-0.09448242,-0.9985962,0.11053467,0.328125,1.4375,0.5625
1664896339511,-0.10864258,-0.9968872,0.12054443,2.96875,1.234375,0.671875
1664896339557,-0.07543945,-0.99468994,0.08880615,-2.625,0.3125,0.265625
1664896339589,-0.10131836,-0.99713135,0.12738037,4.171875,1.640625,0.75
1664896339634,-0.10180664,-1.0046997,0.11956787,0.8125,0.5625,0.625
1664896339676,-0.09301758,-0.98809814,0.10662842,0.375,0.65625,0.390625
1664896339723,-0.103271484,-1.0032349,0.109802246,1.078125,0.25,0.234375
1664896339751,-0.095703125,-0.9846802,0.10809326,1.59375,1.09375,0.703125
1664896339799,-0.092285156,-1.0015259,0.10491943,0.109375,0.9375,0.265625
1664896339826,-0.092285156,-0.9939575,0.105163574,-0.359375,1.125,-0.09375
1664896339873,-0.09106445,-0.9890747,0.10491943,1.328125,1.09375,0.3125
1664896339900,-0.07739258,-0.99542236,0.109313965,-0.046875,0.0625,-0.015625
1664896339946,-0.09106445,-0.9998169,0.10687256,0.28125,-0.046875,0.125
1664896339994,-0.09667969,-0.987854,0.11273193,0.40625,0.671875,0.265625
1664896340022,-0.092285156,-0.99835205,0.11248779,0.65625,0.703125,-0.046875
1664896340067,-0.08569336,-0.99468994,0.11126709,0.859375,0.5,0.53125
1664896340112,-0.09765625,-0.98883057,0.113220215,1.671875,1.34375,0.375
1664896340142,-0.095214844,-0.98809814,0.10687256,-0.5625,0.859375,0.34375
1664896340187,-0.055419922,-1.0039673,0.109069824,-0.984375,1.015625,-0.09375
1664896340218,-0.10058594,-1.0054321,0.12054443,1.25,-0.484375,0.0625
1664896340291,-0.072509766,-0.99713135,0.09539795,-2.90625,-2.75,-0.4375
1664896340305,-0.091552734,-1.0025024,0.1305542,0.875,-2.5,0.234375
1664896340336,-0.10498047,-0.9717407,0.0993042,-5.109375,-5.0,-0.59375
1664896340381,-0.088134766,-0.99884033,0.13323975,1.6875,0.3125,0.125
1664896340427,-0.072753906,-1.0032349,0.11566162,-0.234375,-1.609375,-0.484375
1664896340458,-0.10546875,-0.9963989,0.11395264,0.359375,-2.0,-0.328125
1664896340501,-0.10253906,-0.97979736,0.112976074,0.65625,0.25,0.203125
1664896340547,-0.08520508,-0.99591064,0.113464355,1.34375,1.015625,-0.4375
1664896340577,-0.099365234,-0.9915161,0.11053467,-0.6875,0.46875,-0.375
1664896340621,-0.09008789,-0.9985962,0.1149292,2.28125,0.125,-0.3125
1664896340666,-0.09057617,-1.0003052,0.11199951,0.328125,0.328125,-0.21875
1664896340712,-0.091308594,-0.9873657,0.10736084,-1.59375,-0.421875,-0.5625
1664896340741,-0.08227539,-0.9976196,0.121520996,-2.84375,-0.765625,-0.6875
1664896340771,-0.091796875,-0.99224854,0.117370605,-1.84375,-1.75,-0.6875
1664896340818,-0.10107422,-0.9873657,0.12615967,-0.359375,-1.234375,-0.5625
1664896340861,-0.099365234,-0.9937134,0.10760498,-1.78125,-1.25,-0.796875
1664896340892,-0.08959961,-0.99542236,0.13226318,-0.34375,-0.421875,-0.5625
1664896340938,-0.10083008,-0.9920044,0.1359253,-0.171875,-0.65625,-0.609375
1664896340967,-0.103759766,-0.9915161,0.11273193,-2.6875,-0.6875,0.15625
1664896341011,-0.11303711,-0.9949341,0.13348389,-2.75,-1.703125,-1.28125
1664896341059,-0.08300781,-0.9963989,0.13861084,-2.375,-1.03125,0.203125
1664896341087,-0.10522461,-0.98760986,0.13763428,-4.03125,-1.125,-1.046875
1664896341131,-0.11694336,-0.99053955,0.15106201,-3.1875,-1.234375,-0.421875
1664896341177,-0.111083984,-0.9885864,0.137146,-0.03125,-0.171875,-0.15625
1664896341209,-0.09667969,-0.9883423,0.137146,1.4375,-0.140625,-0.125
1664896341252,-0.1081543,-0.98883057,0.15081787,1.5625,0.015625,-0.171875
1664896341298,-0.1015625,-0.99420166,0.14056396,1.0625,0.15625,-0.09375
1664896341328,-0.099853516,-0.9961548,0.14300537,0.6875,0.328125,-0.109375
1664896341372,-0.10424805,-0.9981079,0.14031982,1.375,-0.171875,-0.21875
1664896341402,-0.10449219,-0.98223877,0.13787842,0.859375,-0.1875,0.140625
1664896341448,-0.10620117,-0.9924927,0.13690186,0.515625,0.171875,-0.171875
1664896341491,-0.10498047,-0.98931885,0.13641357,1.125,0.5,-0.046875
1664896341522,-0.1105957,-0.9883423,0.14642334,0.34375,0.46875,0.046875
1664896341582,-0.10058594,-0.9981079,0.13323975,-0.9375,0.578125,0.03125
1664896341611,-0.10864258,-0.9873657,0.14447021,0.0625,0.84375,0.0
1664896341642,-0.10473633,-0.9841919,0.15423584,0.234375,0.484375,-0.078125
1664896341687,-0.10498047,-0.99053955,0.13616943,-0.3125,0.875,0.765625
1664896341717,-0.11303711,-0.987854,0.14300537,0.03125,0.109375,-1.09375
1664896341765,-0.107177734,-1.0022583,0.16229248,1.734375,1.625,0.703125
1664896341806,-0.095947266,-0.98516846,0.13665771,0.765625,1.234375,-0.34375
1664896341838,-0.09423828,-0.99542236,0.14520264,1.234375,0.8125,0.109375
1664896341883,-0.11425781,-0.991272,0.14300537,1.890625,1.578125,0.171875
1664896341927,-0.10131836,-0.991272,0.13861084,1.359375,1.46875,0.265625
1664896341971,-0.10571289,-0.99005127,0.13934326,1.640625,1.328125,0.125
1664896342003,-0.10205078,-0.9873657,0.1359253,0.828125,1.296875,-0.171875
1664896342046,-0.09667969,-1.0022583,0.14251709,1.328125,1.9375,0.28125
1664896342092,-0.09692383,-0.99102783,0.13641357,1.6875,1.5,-0.109375
1664896342121,-0.099365234,-0.9915161,0.12860107,1.359375,1.28125,0.125
1664896342167,-0.10131836,-0.99884033,0.14349365,0.5,1.34375,-0.09375
1664896342197,-0.09765625,-0.99224854,0.13616943,0.078125,1.03125,-0.046875
1664896342243,-0.095458984,-0.99835205,0.13470459,1.171875,0.953125,0.25
1664896342272,-0.09692383,-0.99298096,0.12664795,-0.578125,1.578125,0.015625
1664896342317,-0.095703125,-0.99346924,0.13397217,1.234375,1.484375,0.265625
1664896342362,-0.09716797,-0.99713135,0.14056396,1.0625,0.8125,-0.015625
1664896342392,-0.091308594,-0.9866333,0.12347412,-0.515625,1.078125,0.71875
1664896342437,-0.111328125,-0.97613525,0.13787842,1.03125,0.921875,-0.484375
1664896342468,-0.09350586,-0.9993286,0.14398193,1.421875,1.578125,0.4375
1664896342512,-0.10546875,-0.9871216,0.12371826,-0.09375,1.453125,-0.3125
1664896342586,-0.09350586,-0.99420166,0.13031006,1.625,1.109375,0.234375
1664896342590,-0.100097656,-0.99591064,0.12664795,0.890625,1.53125,0.125
1664896342632,-0.08081055,-0.99102783,0.124938965,0.28125,1.25,0.03125
1664896342677,-0.09326172,-0.99005127,0.12347412,0.828125,1.4375,-0.078125
1664896342708,-0.09765625,-0.9939575,0.1329956,1.484375,1.453125,0.296875
1664896342750,-0.09423828,-0.9963989,0.13372803,0.203125,0.765625,-0.25
1664896342797,-0.09765625,-0.99420166,0.12664795,0.015625,0.5625,-0.09375
1664896342841,-0.095703125,-0.99176025,0.12713623,1.40625,0.9375,-0.109375
1664896342871,-0.09423828,-0.99176025,0.12640381,0.515625,1.703125,0.15625
1664896342901,-0.09057617,-0.9924927,0.124938965,0.703125,2.46875,0.09375
1664896342948,-0.1105957,-0.9885864,0.12615967,0.515625,2.328125,0.3125
1664896342992,-0.08886719,-0.99298096,0.12591553,0.28125,1.265625,0.078125
1664896343021,-0.088134766,-0.99884033,0.12908936,0.421875,0.46875,-0.421875
1664896343067,-0.09765625,-1.0005493,0.13690186,1.125,-0.234375,-0.328125
1664896343111,-0.096191406,-0.98638916,0.11444092,-0.375,-1.3125,0.4375
1664896343145,-0.099121094,-0.9961548,0.14300537,0.828125,-1.3125,-1.1875
1664896343190,-0.092041016,-1.0071411,0.12615967,0.59375,0.078125,-0.25
1664896343217,-0.11206055,-0.97906494,0.109313965,0.578125,0.8125,-0.46875
1664896343261,-0.0949707,-0.99176025,0.12982178,0.09375,0.109375,-0.4375
1664896343324,-0.087890625,-1.000061,0.13323975,0.109375,0.546875,-0.359375
1664896343336,-0.09008789,-0.99346924,0.12615967,0.171875,-1.59375,-0.8125
1664896343381,-0.103515625,-0.98443604,0.13372803,-0.015625,-2.40625,-0.375
1664896343428,-0.09033203,-0.9949341,0.13006592,-0.53125,-2.171875,-0.578125
1664896343458,-0.10424805,-0.99420166,0.13079834,-0.4375,-1.515625,-0.671875
1664896343501,-0.10131836,-0.9859009,0.117370605,0.6875,-1.046875,-0.59375
1664896343547,-0.09399414,-0.9968872,0.13543701,0.53125,-0.515625,-0.28125
1664896343577,-0.10913086,-0.9812622,0.12689209,-0.28125,-1.0,-0.484375
1664896343621,-0.10473633,-0.9866333,0.12054443,-1.1875,-0.8125,-0.078125
1664896343651,-0.09863281,-0.9956665,0.13421631,0.109375,-0.921875,-0.296875
1664896343712,-0.10498047,-0.9859009,0.124938965,-0.296875,-0.65625,-0.25
1664896343743,-0.10839844,-0.9885864,0.1359253,0.375,-0.015625,-0.171875
1664896343773,-0.104003906,-0.9846802,0.12957764,-1.0625,-0.484375,-0.515625
1664896343818,-0.11352539,-1.0007935,0.13616943,0.78125,0.359375,0.296875
1664896343861,-0.08886719,-0.99298096,0.12957764,-2.71875,-0.4375,-1.125
1664896343892,-0.10546875,-0.99957275,0.14642334,1.3125,-0.34375,0.484375
1664896343938,-0.10864258,-0.98638916,0.12786865,-1.265625,0.125,-0.421875
1664896343969,-0.103271484,-0.99346924,0.14251709,-0.859375,0.03125,-0.234375
1664896344011,-0.1159668,-0.9968872,0.1383667,0.390625,-0.109375,-0.015625
1664896344057,-0.09838867,-0.9871216,0.13641357,0.015625,0.359375,-0.03125
1664896344088,-0.09790039,-0.987854,0.13250732,-0.796875,0.296875,-0.328125
1664896344147,-0.1081543,-0.9963989,0.14544678,-0.15625,0.3125,-0.296875
1664896344177,-0.1081543,-0.98760986,0.14569092,-0.125,0.40625,-0.25
1664896344208,-0.10498047,-0.9890747,0.14251709,-0.140625,0.453125,-0.3125
1664896344252,-0.10180664,-0.99005127,0.13909912,-0.234375,0.390625,-0.0625
1664896344328,-0.111572266,-0.9915161,0.14447021,0.140625,0.25,-0.25
1664896344333,-0.110839844,-0.98809814,0.1486206,0.0,0.4375,-0.015625
1664896344373,-0.09741211,-0.99224854,0.14544678,-0.609375,0.078125,-0.03125
1664896344402,-0.107666016,-0.9883423,0.14569092,-0.046875,0.078125,-0.296875
1664896344447,-0.111572266,-0.9985962,0.15716553,1.28125,0.78125,-0.328125
1664896344491,-0.10644531,-0.9837036,0.14569092,0.6875,1.203125,-0.4375
1664896344521,-0.11425781,-0.98687744,0.15203857,1.984375,1.0,0.75
1664896344580,-0.11206055,-0.9859009,0.12982178,-2.4375,-0.484375,-1.375
1664896344627,-0.10205078,-1.0046997,0.15570068,2.296875,1.46875,0.328125
1664896344640,-0.12158203,-0.98565674,0.13470459,-0.1875,0.890625,-0.359375
1664896344689,-0.10083008,-0.9924927,0.14837646,0.75,0.515625,0.03125
1664896344719,-0.107666016,-1.0012817,0.14837646,1.953125,1.265625,-0.15625
1664896344777,-0.10668945,-0.99102783,0.1383667,-0.1875,0.921875,0.0625
1664896344807,-0.1081543,-0.9805298,0.13763428,3.28125,1.8125,0.28125
1664896344838,-0.10058594,-0.9920044,0.14251709,1.953125,2.4375,0.109375
1664896344883,-0.106933594,-0.9927368,0.13372803,1.875,3.640625,0.421875
1664896344929,-0.09814453,-0.9859009,0.14129639,1.09375,1.640625,0.125
1664896344956,-0.100097656,-0.9944458,0.12713623,-0.296875,1.234375,0.28125
1664896345001,-0.09350586,-0.9949341,0.14520264,0.96875,1.640625,0.015625
1664896345049,-0.10546875,-0.986145,0.13616943,0.671875,0.734375,0.015625
1664896345078,-0.1015625,-0.9949341,0.1383667,1.3125,0.453125,0.328125
1664896345121,-0.10253906,-0.9951782,0.13323975,0.546875,0.265625,-0.25
1664896345152,-0.09814453,-0.98760986,0.13323975,0.875,1.0,0.046875
1664896345198,-0.11206055,-0.9939575,0.137146,1.703125,0.296875,-0.21875
1664896345243,-0.0871582,-0.99005127,0.13079834,-0.84375,0.140625,0.265625
1664896345271,-0.11816406,-0.98272705,0.14178467,0.65625,1.015625,-0.875
1664896345318,-0.09423828,-0.9951782,0.14129639,1.359375,0.9375,0.09375
1664896345362,-0.114746094,-0.99176025,0.12957764,0.125,0.71875,-0.5
1664896345392,-0.095703125,-0.98638916,0.13739014,0.421875,1.0625,0.0625
1664896345437,-0.09863281,-1.0007935,0.12762451,0.40625,0.671875,-0.140625
1664896345467,-0.09790039,-0.99005127,0.1329956,-1.28125,0.125,-0.34375
1664896345511,-0.096191406,-0.9939575,0.14031982,0.21875,-0.453125,-0.40625
1664896345556,-0.106933594,-0.99591064,0.13983154,-0.609375,-0.921875,-0.125
1664896345587,-0.10595703,-0.9949341,0.1395874,-0.9375,-1.609375,-0.5
1664896345634,-0.10253906,-0.9993286,0.14129639,-1.21875,-2.390625,-0.375
1664896345677,-0.104003906,-0.9937134,0.14520264,-1.171875,-2.375,-0.265625
1664896345707,-0.118896484,-0.9883423,0.14154053,-0.671875,-1.78125,-0.140625
1664896345752,-0.10522461,-0.9793091,0.13812256,0.9375,-0.28125,0.046875
1664896345798,-0.1105957,-0.9937134,0.1486206,0.125,-0.359375,-0.65625
1664896345842,-0.12207031,-0.986145,0.15130615,-0.109375,-0.90625,-0.25
1664896345872,-0.10253906,-0.98394775,0.13934326,-0.640625,-1.109375,-0.703125
1664896345900,-0.1184082,-0.989563,0.14788818,0.5625,-1.375,-0.078125
1664896345946,-0.0949707,-0.9817505,0.12884521,-4.34375,-1.078125,-0.890625
1664896345992,-0.107910156,-0.9968872,0.15667725,2.890625,0.609375,0.015625
1664896346022,-0.111572266,-0.9834595,0.1461792,-0.703125,-0.15625,-0.203125
1664896346066,-0.12109375,-0.9866333,0.13885498,1.921875,0.453125,-0.359375
1664896346112,-0.11303711,-1.0007935,0.15350342,2.921875,0.3125,0.109375
1664896346142,-0.1003418,-0.98394775,0.13348389,1.203125,0.640625,0.046875
1664896346187,-0.11425781,-0.98223877,0.13128662,0.359375,-0.796875,-0.171875
1664896346216,-0.115478516,-0.9890747,0.14300537,0.875,-0.875,-0.09375
1664896346264,-0.10839844,-0.991272,0.1383667,0.359375,-0.59375,0.171875
1664896346307,-0.10546875,-0.9837036,0.13323975,1.09375,-0.640625,-0.125
1664896346337,-0.11621094,-0.99298096,0.13275146,0.875,-0.546875,-0.03125
1664896346383,-0.106933594,-0.99176025,0.13641357,0.15625,-0.03125,0.171875
1664896346428,-0.11401367,-0.9849243,0.13568115,0.375,-0.078125,-0.03125
1664896346457,-0.11450195,-0.9883423,0.13128662,-0.25,-0.140625,0.078125
1664896346502,-0.11425781,-0.99005127,0.14105225,0.5625,0.15625,-0.078125
1664896346547,-0.10668945,-0.9949341,0.13543701,-1.609375,-0.078125,-0.171875
1664896346577,-0.12646484,-0.98760986,0.14959717,0.65625,0.25,0.1875
1664896346621,-0.099853516,-0.9907837,0.11981201,-3.671875,-0.375,-0.984375
1664896346667,-0.122802734,-0.99102783,0.15667725,0.953125,0.734375,0.5625
1664896346698,-0.103027344,-0.9873657,0.14154053,-1.40625,1.03125,-0.375
1664896346743,-0.114990234,-0.9883423,0.1408081,-1.390625,0.09375,-0.4375
1664896346773,-0.111816406,-0.9956665,0.15496826,0.078125,0.015625,-0.078125
1664896346818,-0.1081543,-0.99005127,0.14910889,-0.3125,0.484375,-0.0625
1664896346862,-0.11645508,-0.9871216,0.1449585,-0.8125,0.25,-0.171875
1664896346892,-0.106933594,-0.99102783,0.1552124,-0.65625,0.390625,-0.15625
1664896346937,-0.11743164,-0.98687744,0.15008545,0.015625,0.1875,-0.3125
1664896346970,-0.114990234,-0.9907837,0.14910889,0.515625,0.671875,-0.09375
1664896347013,-0.119628906,-0.9846802,0.15350342,-0.171875,0.421875,-0.109375
1664896347057,-0.10546875,-0.9915161,0.15789795,0.71875,0.78125,-0.03125
1664896347102,-0.11401367,-0.9795532,0.14715576,-0.015625,0.3125,0.078125
1664896347131,-0.11328125,-0.9859009,0.14666748,1.140625,0.953125,0.09375
1664896347178,-0.12573242,-0.9854126,0.15667725,1.953125,0.84375,0.21875
1664896347208,-0.10986328,-0.9817505,0.1408081,-0.328125,1.15625,-0.125
1664896347251,-0.12158203,-0.9819946,0.168396,3.28125,1.625,0.796875
1664896347297,-0.10961914,-0.99224854,0.11517334,-3.265625,0.0,-0.765625
1664896347342,-0.11767578,-0.9939575,0.15863037,4.296875,2.65625,1.078125
1664896347372,-0.11254883,-0.9819946,0.152771,0.46875,1.203125,0.171875
1664896347403,-0.12597656,-0.98321533,0.14984131,0.40625,1.34375,0.0625
1664896347447,-0.11816406,-1.0007935,0.14984131,1.953125,1.375,0.140625
1664896347492,-0.10253906,-0.987854,0.14691162,-0.140625,1.203125,0.03125
1664896347522,-0.111816406,-0.973938,0.14666748,1.25,1.40625,0.21875
1664896347567,-0.11621094,-0.98809814,0.14422607,0.828125,1.140625,-0.125
1664896347613,-0.10644531,-0.99664307,0.1437378,1.0625,1.015625,0.0
1664896347642,-0.09790039,-0.98883057,0.14251709,0.359375,0.96875,0.015625
1664896347686,-0.10449219,-0.9902954,0.13885498,0.375,1.328125,-0.09375
1664896347718,-0.1081543,-1.0005493,0.1437378,0.515625,0.90625,0.0
1664896347760,-0.1003418,-0.99224854,0.1486206,-0.3125,0.96875,0.0625
1664896347807,-0.107666016,-0.99053955,0.14129639,0.3125,0.484375,-0.046875
1664896347836,-0.10864258,-0.9949341,0.152771,0.78125,0.28125,0.09375
1664896347882,-0.09423828,-0.991272,0.14447021,0.640625,0.03125,-0.140625
1664896347928,-0.115722656,-0.98883057,0.1630249,0.609375,0.5,0.5625
1664896347959,-0.10498047,-0.9829712,0.11981201,-3.46875,-1.375,-0.859375
1664896348001,-0.103515625,-1.0003052,0.16229248,2.578125,0.59375,0.40625
1664896348048,-0.10668945,-0.98809814,0.1461792,-0.078125,0.671875,-0.046875
1664896348077,-0.104003906,-0.98687744,0.15570068,0.09375,0.46875,0.1875
1664896348122,-0.11230469,-0.9949341,0.1515503,0.6875,0.3125,0.203125
1664896348152,-0.091796875,-0.9944458,0.14251709,0.890625,0.21875,0.40625
1664896348196,-0.10522461,-0.9907837,0.15130615,1.53125,0.359375,-0.015625
1664896348241,-0.11816406,-0.9829712,0.14764404,0.40625,0.0625,-0.015625
1664896348287,-0.09838867,-0.99298096,0.14105225,1.328125,0.796875,-0.0625
1664896348318,-0.10449219,-0.9927368,0.14666748,0.359375,0.15625,-0.140625
1664896348362,-0.11279297,-0.9890747,0.1359253,0.390625,0.4375,-0.171875
1664896348392,-0.111816406,-0.9937134,0.13909912,0.46875,0.265625,-0.21875
1664896348438,-0.110839844,-0.9873657,0.14276123,0.421875,0.5,-0.28125
1664896348466,-0.10571289,-0.99176025,0.14447021,0.625,0.609375,-0.375
1664896348511,-0.11303711,-0.9871216,0.14837646,0.921875,0.421875,-0.15625
1664896348558,-0.111572266,-0.991272,0.14764404,0.28125,0.078125,-0.59375
1664896348605,-0.109375,-0.9937134,0.14569092,0.203125,0.015625,0.359375
1664896348633,-0.103515625,-0.991272,0.13421631,-2.921875,-1.453125,-1.546875
1664896348676,-0.10595703,-0.99664307,0.15740967,2.1875,-0.21875,0.46875
1664896348707,-0.123046875,-0.9846802,0.13543701,-0.828125,-1.25,-0.484375
1664896348753,-0.10229492,-0.9834595,0.14447021,0.453125,-0.53125,0.0625
1664896348797,-0.118652344,-1.0005493,0.14276123,1.46875,0.34375,0.0
1664896348828,-0.10205078,-0.99713135,0.15545654,0.765625,0.421875,0.375
1664896348872,-0.111572266,-0.99005127,0.14447021,0.609375,0.25,0.6875
1664896348947,-0.10424805,-0.98809814,0.14520264,1.578125,0.515625,0.203125
1664896348951,-0.11010742,-1.0039673,0.14520264,1.421875,0.125,0.328125
1664896348995,-0.12011719,-0.9866333,0.14984131,-0.296875,0.28125,0.109375
1664896349022,-0.111083984,-0.99005127,0.13934326,-0.21875,0.296875,0.109375
1664896349068,-0.088134766,-0.99420166,0.14300537,0.359375,-0.75,-0.09375
1664896349113,-0.10986328,-0.9924927,0.14276123,0.53125,0.1875,-0.015625
1664896349142,-0.11694336,-0.9846802,0.14398193,-0.40625,-0.34375,-0.265625
1664896349186,-0.11035156,-0.989563,0.15496826,-0.375,-0.75,-0.390625
1664896349217,-0.099365234,-0.986145,0.14276123,-1.03125,-1.453125,-0.640625
1664896349278,-0.11279297,-0.98638916,0.14886475,0.359375,0.25,0.1875
1664896349325,-0.09375,-0.9824829,0.13616943,-2.578125,0.359375,-1.0625
1664896349336,-0.10473633,-0.9993286,0.1593628,2.625,0.15625,0.21875
1664896349382,-0.10571289,-0.9763794,0.1539917,-1.3125,-0.265625,-0.03125
1664896349427,-0.11621094,-0.9915161,0.14959717,-0.953125,-0.28125,-0.5625
1664896349458,-0.10644531,-1.0003052,0.14276123,1.859375,0.84375,0.109375
1664896349503,-0.092285156,-0.98443604,0.15057373,0.78125,0.375,-0.1875
1664896349548,-0.10961914,-0.98638916,0.15130615,-0.078125,0.203125,-0.125
1664896349576,-0.107910156,-0.98394775,0.1552124,-0.890625,-0.125,-0.171875
1664896349622,-0.11352539,-0.98028564,0.15447998,-0.875,0.40625,-0.15625
1664896349652,-0.103759766,-0.99957275,0.15814209,-2.046875,-0.4375,-0.859375
1664896349697,-0.10595703,-0.98809814,0.15692139,-0.125,0.421875,0.15625
1664896349741,-0.10449219,-0.9907837,0.16253662,0.5,0.625,0.109375
1664896349773,-0.11352539,-0.9829712,0.168396,0.078125,0.484375,0.234375
1664896349817,-0.09887695,-0.986145,0.15594482,-0.71875,0.03125,0.234375
1664896349876,-0.10131836,-0.9951782,0.15838623,-0.171875,0.421875,-0.015625
1664896349890,-0.11694336,-0.99884033,0.1708374,2.671875,-0.015625,0.25
1664896349936,-0.09887695,-0.98638916,0.14105225,-0.59375,-0.046875,0.59375
1664896349982,-0.12207031,-0.98809814,0.16864014,1.8125,0.59375,-0.296875
1664896350012,-0.1027832,-1.0049438,0.17718506,2.1875,0.515625,0.0625
1664896350056,-0.11401367,-0.9807739,0.14837646,0.140625,1.265625,-0.203125
1664896350087,-0.10668945,-0.98565674,0.16156006,0.015625,0.6875,-0.4375
1664896350131,-0.11230469,-0.99786377,0.15228271,0.796875,1.75,0.0625
1664896350176,-0.100097656,-0.9776001,0.15814209,0.0,1.046875,-0.15625
1664896350221,-0.111083984,-0.98394775,0.16156006,1.390625,1.578125,-0.296875
1664896350251,-0.10595703,-0.98931885,0.16229248,-0.1875,1.4375,-0.1875
1664896350297,-0.1027832,-0.9898071,0.15496826,-0.25,0.53125,-0.046875
1664896350327,-0.09790039,-0.9841919,0.15203857,-0.34375,0.484375,-0.140625
1664896350387,-0.10888672,-0.99005127,0.15887451,0.0625,0.34375,-0.015625
1664896350402,-0.1105957,-0.9819946,0.15130615,1.25,0.984375,0.34375
1664896350448,-0.11279297,-0.9939575,0.15887451,0.828125,1.109375,0.21875
1664896350492,-0.09863281,-0.9932251,0.15911865,0.328125,0.203125,0.578125
1664896350522,-0.10620117,-0.97491455,0.1383667,0.140625,1.390625,0.21875
1664896350568,-0.11425781,-0.9961548,0.16278076,3.265625,1.71875,0.546875
1664896350610,-0.080078125,-0.991272,0.13885498,-1.9375,0.296875,0.703125
1664896350641,-0.11425781,-0.9793091,0.16619873,3.046875,1.875,0.15625
1664896350688,-0.107421875,-0.98883057,0.1630249,-0.234375,0.515625,0.265625
1664896350718,-0.1159668,-0.9859009,0.14984131,1.25,1.328125,0.1875
1664896350761,-0.09399414,-0.9963989,0.15863037,0.984375,0.53125,0.1875
1664896350807,-0.1027832,-0.99224854,0.15618896,0.53125,0.46875,0.140625
1664896350839,-0.111572266,-0.98272705,0.14959717,0.265625,0.53125,-0.09375
1664896350883,-0.100097656,-0.98760986,0.15032959,1.03125,0.59375,-0.25
1664896350927,-0.09667969,-0.9902954,0.14324951,0.53125,0.484375,-0.15625
1664896350957,-0.107910156,-0.98443604,0.15301514,0.578125,0.78125,-0.15625
1664896351001,-0.10424805,-0.99468994,0.1515503,0.078125,0.78125,-0.375
1664896351050,-0.1015625,-0.98931885,0.15032959,-0.359375,-0.046875,-0.484375
1664896351077,-0.10131836,-0.9927368,0.15032959,-0.40625,-0.28125,-0.359375
1664896351121,-0.11645508,-0.98760986,0.14715576,-0.640625,-0.625,-0.46875
1664896351153,-0.11230469,-0.9973755,0.15887451,0.84375,-0.890625,-0.171875
1664896351197,-0.091308594,-0.98394775,0.15472412,-0.296875,-0.953125,-0.375
1664896351240,-0.12158203,-0.99053955,0.1593628,1.171875,-1.03125,0.140625
1664896351288,-0.09838867,-0.98760986,0.13128662,-2.59375,-2.1875,-1.0
1664896351317,-0.11230469,-0.99713135,0.16351318,3.015625,-0.6875,0.296875
1664896351362,-0.10424805,-0.9771118,0.14544678,0.203125,-0.5,-0.15625
1664896351391,-0.114990234,-0.9859009,0.14813232,0.734375,-0.5,-0.03125
1664896351438,-0.11791992,-0.9932251,0.15106201,0.8125,-0.421875,-0.109375
1664896351467,-0.10083008,-0.986145,0.1539917,-0.046875,-0.53125,-0.015625
1664896351513,-0.10180664,-0.9846802,0.1461792,1.03125,-0.4375,0.078125
1664896351557,-0.107421875,-0.9932251,0.14447021,1.8125,-0.171875,0.015625
1664896351587,-0.11328125,-0.99102783,0.14007568,1.28125,0.578125,0.234375
1664896351633,-0.107910156,-0.9776001,0.14642334,1.078125,0.46875,0.09375
1664896351677,-0.111083984,-0.989563,0.14837646,1.578125,0.5,0.03125
1664896351706,-0.107177734,-0.9927368,0.14324951,1.8125,0.03125,0.171875
1664896351753,-0.09814453,-0.9854126,0.14300537,0.953125,0.4375,0.203125
1664896351781,-0.10546875,-0.9993286,0.137146,0.09375,-0.3125,0.0
1664896351827,-0.1015625,-0.9902954,0.1437378,0.921875,0.25,-0.078125
1664896351873,-0.10571289,-0.9859009,0.1515503,0.1875,-0.625,-0.328125
1664896351903,-0.103515625,-0.9873657,0.13739014,-0.53125,0.0625,0.421875
1664896351947,-0.103271484,-0.9990845,0.1305542,-0.34375,-0.515625,-0.828125
1664896351992,-0.09667969,-0.9961548,0.14764404,0.984375,0.484375,0.375
1664896352020,-0.111328125,-0.9746704,0.1395874,-0.265625,0.734375,-0.109375
1664896352067,-0.10498047,-1.0007935,0.14471436,0.078125,0.09375,0.09375
1664896352111,-0.11206055,-0.9944458,0.14691162,-0.078125,0.609375,0.078125
1664896352142,-0.09643555,-0.98321533,0.15081787,0.25,0.734375,-0.21875
1664896352187,-0.099121094,-0.9890747,0.14349365,0.265625,-0.0625,-0.125
1664896352216,-0.10522461,-0.99176025,0.15423584,0.015625,0.5625,-0.1875
1664896352264,-0.10961914,-0.9898071,0.14715576,0.1875,1.0625,-0.015625
1664896352308,-0.095947266,-0.99102783,0.14007568,-0.390625,0.296875,-0.21875
1664896352337,-0.10961914,-0.9932251,0.15032959,0.171875,0.8125,-0.40625
1664896352384,-0.106933594,-0.98931885,0.14886475,0.40625,1.21875,-0.140625
1664896352427,-0.09667969,-0.98687744,0.14544678,-0.140625,0.828125,-0.078125
1664896352458,-0.107177734,-0.99346924,0.14959717,-1.5,0.671875,-0.171875
1664896352501,-0.10473633,-0.9866333,0.15789795,0.421875,1.171875,-0.078125
1664896352533,-0.11230469,-0.9927368,0.15692139,1.828125,1.390625,-0.296875
1664896352579,-0.10839844,-0.987854,0.15008545,0.078125,1.484375,0.625
1664896352621,-0.11206055,-0.98931885,0.14544678,-1.046875,0.46875,-1.390625
1664896352652,-0.103271484,-1.0015259,0.16668701,1.625,1.203125,0.234375
1664896352697,-0.110839844,-0.9795532,0.14813232,0.875,1.40625,-0.21875
1664896352742,-0.111328125,-0.987854,0.15301514,0.09375,1.140625,-0.125
1664896352771,-0.11669922,-0.9885864,0.15057373,0.984375,1.125,-0.015625
1664896352816,-0.096191406,-0.99224854,0.14642334,1.546875,1.078125,0.125
1664896352860,-0.10449219,-0.986145,0.14886475,1.171875,1.28125,-0.09375
1664896352892,-0.11352539,-0.98516846,0.14715576,1.53125,1.390625,-0.0625
1664896352940,-0.10668945,-0.9885864,0.15081787,0.875,1.453125,0.0625
1664896352967,-0.10131836,-0.9932251,0.14276123,0.875,1.296875,-0.125
1664896353013,-0.11694336,-0.98760986,0.14349365,0.640625,0.953125,0.0625
1664896353056,-0.103271484,-0.98638916,0.15081787,0.703125,1.6875,-0.015625
1664896353087,-0.10229492,-0.9973755,0.15032959,0.234375,1.15625,-0.03125
1664896353130,-0.111083984,-0.9866333,0.14813232,-0.296875,0.890625,-0.03125
1664896353176,-0.09838867,-0.99468994,0.14910889,0.125,0.796875,0.171875
1664896353207,-0.09887695,-0.9951782,0.15301514,0.40625,0.25,-0.421875
1664896353252,-0.1184082,-0.99005127,0.1593628,1.03125,0.25,0.78125
1664896353297,-0.092285156,-0.9866333,0.137146,-2.515625,-1.0,-0.875
1664896353328,-0.10180664,-1.0064087,0.16204834,1.171875,-0.171875,0.125
1664896353373,-0.115234375,-0.9859009,0.14715576,-0.1875,0.171875,-0.359375
1664896353404,-0.10424805,-0.99053955,0.15350342,0.078125,-1.125,0.046875
1664896353448,-0.10107422,-0.9951782,0.16033936,0.65625,-0.4375,0.046875
1664896353491,-0.10253906,-0.98931885,0.14471436,0.171875,-0.375,0.0
1664896353521,-0.11279297,-0.9920044,0.14886475,0.828125,-0.375,0.046875
1664896353566,-0.09741211,-0.99102783,0.15228271,-0.046875,-0.71875,-0.03125
1664896353612,-0.106933594,-0.9854126,0.1486206,0.03125,-0.1875,0.0625
1664896353641,-0.1015625,-0.9854126,0.15179443,-0.40625,0.015625,0.109375
1664896353688,-0.095458984,-0.9939575,0.14788818,-0.609375,-0.328125,0.265625
1664896353718,-0.10913086,-0.991272,0.15228271,0.421875,-0.625,0.09375
1664896353760,-0.110839844,-0.9907837,0.15472412,1.6875,0.265625,0.40625
1664896353807,-0.106933594,-0.9824829,0.14935303,1.328125,0.21875,0.421875
1664896353837,-0.09741211,-0.98394775,0.15252686,0.265625,-0.171875,0.078125
1664896353880,-0.09643555,-0.9898071,0.14276123,-1.203125,-0.625,-0.125
1664896353926,-0.12060547,-0.99005127,0.1696167,0.875,-1.046875,-0.03125
1664896353957,-0.08666992,-0.9829712,0.12591553,-3.796875,-2.1875,-0.734375
1664896354001,-0.107666016,-0.9961548,0.1708374,3.203125,-0.421875,0.265625
1664896354032,-0.104003906,-0.97198486,0.14764404,-1.28125,-1.140625,-0.25
1664896354076,-0.09863281,-0.9885864,0.15570068,0.90625,-0.015625,-0.234375
1664896354120,-0.107421875,-0.99224854,0.15814209,1.625,-0.515625,-0.078125
1664896354152,-0.10229492,-0.989563,0.14984131,-0.234375,0.09375,0.296875
1664896354200,-0.10107422,-0.98516846,0.14788818,-0.453125,-0.46875,-0.296875
1664896354241,-0.107421875,-0.9890747,0.15667725,-0.390625,-0.453125,-0.203125
1664896354272,-0.1081543,-0.9907837,0.15863037,0.5,-0.0625,0.125
1664896354317,-0.10473633,-0.98443604,0.15106201,0.71875,0.015625,-0.015625
1664896354378,-0.107421875,-0.9866333,0.14569092,-0.125,-0.234375,0.0625
1664896354392,-0.10839844,-0.9834595,0.14764404,-0.265625,0.03125,0.015625
1664896354438,-0.11035156,-0.989563,0.15814209,-0.28125,0.375,0.03125
1664896354466,-0.095458984,-0.986145,0.15301514,0.015625,0.3125,0.09375
1664896354513,-0.1105957,-0.97857666,0.15496826,-1.109375,0.3125,-0.234375
1664896354557,-0.103759766,-0.9915161,0.14788818,-0.484375,1.359375,-0.046875
1664896354586,-0.111572266,-0.9871216,0.16864014,1.578125,1.046875,0.0
1664896354632,-0.0925293,-0.98638916,0.13763428,-2.640625,1.390625,0.15625
1664896354681,-0.114746094,-0.9927368,0.15985107,0.578125,0.984375,-0.640625
1664896354707,-0.10620117,-0.991272,0.16888428,0.703125,1.578125,0.21875
1664896354752,-0.10058594,-0.98443604,0.14715576,0.59375,1.328125,-0.34375
1664896354783,-0.10449219,-0.9937134,0.16278076,0.484375,1.75,0.359375
1664896354825,-0.1081543,-0.99468994,0.15911865,0.03125,1.171875,-0.1875
1664896354872,-0.091308594,-0.98272705,0.15179443,0.21875,0.6875,-0.09375
1664896354903,-0.103515625,-0.98809814,0.15423584,0.84375,1.28125,-0.03125
1664896354947,-0.10864258,-0.99346924,0.15887451,0.5625,0.859375,-0.09375
1664896355009,-0.09423828,-0.987854,0.15325928,0.6875,0.8125,0.15625
1664896355021,-0.10058594,-0.99102783,0.15496826,1.078125,0.484375,-0.0625
1664896355069,-0.09643555,-0.9898071,0.1593628,1.0,0.53125,0.28125
1664896355112,-0.09301758,-0.9859009,0.15716553,0.5625,0.78125,-0.21875
1664896355143,-0.10961914,-0.99176025,0.16375732,0.609375,0.796875,0.046875
1664896355186,-0.095703125,-0.99224854,0.14837646,1.171875,0.84375,0.28125
1664896355218,-0.10668945,-0.989563,0.16033936,0.75,0.6875,-0.078125
1664896355262,-0.100097656,-0.9907837,0.14300537,-0.5625,0.953125,-0.125
1664896355307,-0.110839844,-0.9898071,0.1671753,2.328125,1.125,0.375
1664896355337,-0.08642578,-0.9907837,0.13201904,-3.03125,-0.53125,-0.625
1664896355385,-0.10839844,-0.9937134,0.17156982,3.421875,1.921875,0.390625
1664896355427,-0.100097656,-0.9800415,0.1552124,0.140625,0.90625,-0.140625
1664896355455,-0.10473633,-0.99176025,0.15081787,0.609375,1.0625,-0.203125
1664896355500,-0.10058594,-0.9993286,0.15570068,0.171875,0.421875,-0.078125
1664896355531,-0.095703125,-0.9866333,0.15130615,0.5625,0.71875,0.265625
1664896355577,-0.09838867,-0.98809814,0.15106201,0.234375,0.765625,-0.171875
1664896355652,-0.10473633,-0.98931885,0.15496826,-0.078125,0.46875,-0.359375
1664896355656,-0.095947266,-0.9981079,0.15447998,0.703125,0.75,-0.015625
1664896355696,-0.10668945,-0.98516846,0.16009521,0.28125,0.28125,-0.34375
1664896355743,-0.10913086,-0.9902954,0.15350342,0.515625,0.59375,-0.140625
1664896355775,-0.10058594,-0.9890747,0.15765381,-0.21875,0.640625,-0.265625
1664896355818,-0.10131836,-0.9883423,0.15301514,0.140625,0.40625,-0.28125
1664896355906,-0.107666016,-0.987854,0.15692139,0.375,0.328125,-0.265625
1664896355910,-0.10083008,-0.99102783,0.15838623,-0.78125,0.203125,-0.53125
1664896355938,-0.099609375,-0.9866333,0.15179443,0.03125,0.046875,-0.359375
1664896355966,-0.099853516,-0.9885864,0.16400146,0.46875,-0.453125,-0.5
1664896356011,-0.10571289,-0.99176025,0.16522217,-0.8125,-0.46875,0.5625
1664896356057,-0.1159668,-0.9873657,0.1473999,-1.75,-0.84375,-0.84375
1664896356086,-0.103759766,-0.9993286,0.17279053,0.34375,-0.546875,0.171875
1664896356133,-0.11206055,-0.986145,0.15374756,1.140625,0.390625,-0.140625
1664896356177,-0.099853516,-0.99224854,0.16693115,0.625,-0.109375,0.0625
1664896356207,-0.10522461,-0.9956665,0.15618896,1.84375,0.15625,0.21875
1664896356253,-0.091308594,-0.9841919,0.16229248,0.90625,-0.90625,0.328125
1664896356281,-0.10644531,-0.98272705,0.14666748,2.359375,0.6875,0.125
1664896356327,-0.11645508,-0.9951782,0.15765381,2.03125,0.734375,0.328125
1664896356370,-0.09423828,-0.9907837,0.15130615,1.5,0.59375,0.34375
1664896356402,-0.09667969,-0.9788208,0.14569092,2.828125,0.640625,0.203125
1664896356447,-0.10620117,-0.9993286,0.14642334,1.328125,0.71875,0.03125
1664896356492,-0.10864258,-0.989563,0.1461792,1.25,0.25,0.328125
1664896356522,-0.09667969,-0.9866333,0.14447021,1.921875,0.28125,0.234375
1664896356569,-0.09887695,-0.9937134,0.14642334,1.140625,-0.421875,-0.125
1664896356642,-0.104003906,-0.9871216,0.137146,0.59375,-0.1875,0.0625
1664896356645,-0.092285156,-0.9968872,0.13470459,0.390625,-0.609375,-0.3125
1664896356688,-0.1003418,-0.9924927,0.15301514,2.25,-0.9375,-0.1875
1664896356718,-0.091552734,-0.98565674,0.12371826,-2.421875,-1.046875,-0.4375
1664896356761,-0.11767578,-1.00177,0.14471436,1.4375,-0.828125,-0.1875
1664896356806,-0.0769043,-0.99224854,0.12908936,-0.359375,0.1875,-0.109375
1664896356837,-0.10424805,-0.99468994,0.13397217,-0.34375,0.359375,-0.5
1664896356881,-0.1027832,-0.99713135,0.14471436,-0.84375,0.265625,0.015625
1664896356942,-0.09814453,-0.98809814,0.13641357,-0.875,0.3125,-0.15625
1664896356958,-0.107910156,-0.98760986,0.1305542,-0.515625,0.453125,-0.21875
1664896357001,-0.10131836,-0.99786377,0.1408081,-0.09375,0.40625,-0.28125
1664896357032,-0.10961914,-0.991272,0.14349365,-0.28125,0.578125,-0.078125
1664896357077,-0.095458984,-0.991272,0.1408081,-0.0625,0.6875,0.09375
1664896357122,-0.10180664,-0.99542236,0.152771,-0.453125,0.859375,-0.25
1664896357152,-0.10620117,-0.9871216,0.14813232,-0.765625,0.65625,-0.140625
1664896357198,-0.099365234,-0.9837036,0.14984131,0.3125,1.1875,-0.09375
1664896357241,-0.107421875,-0.98760986,0.14886475,-0.203125,0.828125,-0.109375
1664896357272,-0.106933594,-0.9920044,0.13421631,-1.28125,0.859375,-0.171875
1664896357317,-0.095214844,-0.9854126,0.14984131,0.15625,1.453125,0.046875
1664896357377,-0.106933594,-0.986145,0.16204834,0.609375,0.484375,-0.390625
1664896357408,-0.10961914,-0.989563,0.1437378,0.515625,0.609375,0.640625
1664896357436,-0.09448242,-0.98101807,0.14422607,-0.828125,0.359375,-1.0
1664896357466,-0.110839844,-0.9963989,0.1708374,1.390625,1.171875,0.1875
1664896357513,-0.11206055,-0.9890747,0.14715576,-0.203125,0.609375,-0.515625
1664896357557,-0.10107422,-0.98931885,0.15423584,1.171875,0.4375,0.109375
1664896357587,-0.11694336,-0.99176025,0.15570068,0.28125,1.109375,-0.4375
1664896357633,-0.10839844,-0.98687744,0.1515503,0.421875,1.28125,-0.171875
1664896357680,-0.09716797,-0.9871216,0.14520264,1.453125,0.84375,-0.3125
1664896357708,-0.1003418,-0.99713135,0.1515503,0.8125,0.765625,-0.21875
1664896357753,-0.103759766,-0.9841919,0.14349365,0.625,0.28125,-0.171875
1664896357782,-0.09277344,-0.99053955,0.13909912,1.109375,-0.421875,0.125
1664896357827,-0.104003906,-0.9990845,0.15203857,0.65625,-0.25,0.140625
1664896357872,-0.10498047,-0.99591064,0.15325928,0.203125,0.109375,0.5625
1664896357902,-0.09790039,-0.99005127,0.15301514,0.9375,0.265625,0.21875
1664896357947,-0.09863281,-0.98760986,0.14178467,-0.046875,0.3125,0.46875
1664896357992,-0.109375,-0.98321533,0.15887451,-0.03125,0.125,0.109375
1664896358021,-0.099365234,-0.98565674,0.15203857,-0.421875,0.640625,0.015625
1664896358067,-0.11035156,-0.99420166,0.16400146,1.890625,0.796875,0.5
1664896358113,-0.07788086,-0.98516846,0.13201904,-2.59375,-0.75,-0.359375
1664896358142,-0.12036133,-0.98638916,0.16912842,2.21875,1.140625,0.0625
1664896358218,-0.11010742,-0.9819946,0.15570068,-0.796875,0.890625,-0.328125
1664896358224,-0.1003418,-0.98516846,0.15252686,0.0,1.328125,-0.28125
1664896358261,-0.10522461,-0.9956665,0.1552124,0.203125,0.78125,-0.390625
1664896358306,-0.10253906,-0.9898071,0.16156006,0.859375,1.75,0.109375
1664896358337,-0.10571289,-0.991272,0.15081787,0.203125,0.9375,-0.609375
1664896358384,-0.1003418,-0.99005127,0.15570068,0.21875,0.8125,-0.296875
1664896358428,-0.10229492,-0.99053955,0.1515503,0.15625,0.75,-0.328125
1664896358457,-0.103027344,-0.9932251,0.15692139,0.046875,0.421875,-0.5
1664896358502,-0.107666016,-0.9902954,0.15472412,0.03125,-0.125,-0.09375
1664896358532,-0.1015625,-0.9841919,0.15374756,0.1875,-0.140625,-0.109375
1664896358577,-0.099121094,-0.98687744,0.15179443,0.625,0.0,-0.078125
1664896358620,-0.11010742,-0.9846802,0.15374756,0.21875,-0.09375,-0.03125
1664896358652,-0.099853516,-0.99298096,0.14544678,0.984375,0.03125,0.28125
1664896358697,-0.109375,-0.9859009,0.16278076,0.9375,-0.15625,-0.03125
1664896358743,-0.09887695,-0.99298096,0.1539917,-0.140625,0.0,-0.296875
1664896358772,-0.106933594,-0.987854,0.16229248,1.609375,0.03125,0.390625
1664896358817,-0.08642578,-0.989563,0.13690186,-2.421875,-1.4375,-0.78125
1664896358862,-0.111816406,-1.0010376,0.16790771,2.953125,0.265625,0.53125
1664896358891,-0.10839844,-0.97540283,0.1449585,-0.03125,0.171875,0.09375
1664896358937,-0.095214844,-0.98687744,0.15887451,-0.203125,-0.328125,-0.1875
1664896358968,-0.099853516,-0.9944458,0.15570068,1.03125,0.03125,0.171875
1664896359013,-0.09277344,-0.986145,0.15618896,-0.453125,-0.140625,0.15625
1664896359057,-0.104003906,-0.98883057,0.15008545,0.484375,-0.453125,-0.109375
1664896359088,-0.10058594,-0.9927368,0.15423584,0.453125,-0.234375,0.03125
1664896359132,-0.10058594,-0.987854,0.1552124,0.53125,-0.0625,0.15625
1664896359176,-0.096191406,-0.989563,0.15203857,0.25,-0.671875,-0.21875
1664896359208,-0.1027832,-0.98638916,0.15130615,-0.265625,-1.09375,0.109375
1664896359253,-0.10229492,-0.987854,0.1515503,-0.5,-0.734375,-0.109375
1664896359280,-0.10595703,-0.99346924,0.15325928,-0.09375,0.171875,-0.09375
1664896359329,-0.09887695,-0.9871216,0.15985107,-0.109375,0.125,0.09375
1664896359372,-0.1081543,-0.99053955,0.15472412,-1.328125,0.15625,-0.28125
1664896359403,-0.10083008,-0.99420166,0.15667725,-0.671875,0.53125,-0.078125
1664896359447,-0.10595703,-0.9834595,0.17279053,0.984375,0.46875,-0.265625
1664896359507,-0.10571289,-0.9873657,0.14422607,-1.609375,0.84375,-0.03125
1664896359523,-0.1159668,-0.99298096,0.16864014,0.328125,0.65625,-0.890625
1664896359568,-0.09667969,-0.9817505,0.1642456,1.796875,1.1875,0.4375
1664896359612,-0.104003906,-0.97198486,0.15887451,0.453125,1.15625,-0.625
1664896359642,-0.119384766,-0.9981079,0.16082764,0.59375,0.546875,-0.28125
1664896359688,-0.10498047,-1.0046997,0.15472412,1.3125,1.40625,0.078125
1664896359717,-0.091308594,-0.9817505,0.15106201,1.03125,1.296875,-0.390625
1664896359761,-0.11035156,-0.9915161,0.16546631,0.40625,0.875,-0.21875
1664896359806,-0.10058594,-0.9968872,0.16107178,0.296875,0.734375,-0.109375
1664896359837,-0.1105957,-0.9849243,0.16204834,0.0,1.0625,-0.28125
1664896359880,-0.111328125,-0.98321533,0.16448975,0.609375,1.0,-0.125
1664896359927,-0.11010742,-0.99664307,0.15423584,0.765625,0.828125,-0.28125
1664896359958,-0.100097656,-0.9951782,0.1642456,0.21875,1.03125,-0.125
1664896360002,-0.11010742,-0.99224854,0.15179443,0.34375,1.34375,-0.09375
1664896360032,-0.10668945,-0.98516846,0.15765381,0.859375,0.71875,-0.015625
1664896360077,-0.099121094,-0.9898071,0.15692139,-0.109375,1.03125,-0.203125
1664896360121,-0.09765625,-0.9920044,0.14593506,-0.0625,1.625,-0.0625
1664896360169,-0.103515625,-0.991272,0.1720581,2.28125,1.015625,0.0625
1664896360199,-0.095703125,-0.98565674,0.1408081,-2.046875,0.28125,-0.015625
1664896360241,-0.10644531,-0.9846802,0.15667725,1.109375,1.1875,-0.359375
1664896360272,-0.10253906,-0.99102783,0.16375732,0.828125,0.78125,0.0625
1664896360317,-0.110839844,-0.9841919,0.14788818,0.421875,1.0625,-0.1875
1664896360362,-0.099609375,-0.9854126,0.15692139,0.28125,0.921875,-0.015625
1664896360392,-0.10961914,-0.9990845,0.15081787,0.40625,0.75,0.078125
1664896360436,-0.09765625,-0.98028564,0.1486206,0.609375,0.5,-0.046875
1664896360466,-0.10473633,-0.9949341,0.152771,1.328125,0.890625,-0.15625
1664896360512,-0.10131836,-0.99420166,0.15887451,1.203125,1.171875,0.21875
1664896360558,-0.10424805,-0.98443604,0.15057373,0.5,0.5,0.078125
1664896360587,-0.10107422,-1.000061,0.15325928,0.859375,0.765625,0.140625
1664896360632,-0.10180664,-0.991272,0.15203857,0.296875,0.734375,-0.140625
1664896360677,-0.09790039,-0.989563,0.15374756,0.15625,0.59375,-0.09375
1664896360722,-0.10180664,-0.9871216,0.15570068,0.671875,0.890625,0.0625
1664896360753,-0.10620117,-0.987854,0.15496826,0.40625,0.6875,-0.078125
1664896360782,-0.10839844,-0.98565674,0.152771,-0.421875,-0.140625,-0.109375
1664896360826,-0.087890625,-0.9915161,0.14666748,-1.21875,0.265625,0.0
1664896360872,-0.10888672,-0.98883057,0.1618042,0.828125,-0.3125,-0.140625
1664896360902,-0.092041016,-0.9849243,0.14105225,-1.328125,-0.046875,0.546875
1664896360947,-0.11425781,-0.98565674,0.1630249,0.125,-0.25,-0.671875
1664896360994,-0.103027344,-0.9973755,0.16595459,-0.1875,-0.6875,-0.125
1664896361022,-0.10131836,-0.98443604,0.152771,0.015625,-0.359375,-0.3125
1664896361067,-0.099609375,-0.98394775,0.15765381,0.625,-0.421875,0.0625
1664896361113,-0.1027832,-0.99835205,0.15228271,-0.15625,-0.671875,-0.171875
1664896361141,-0.099121094,-0.9819946,0.15765381,-0.671875,-1.46875,-0.28125
1664896361188,-0.111572266,-0.9800415,0.16009521,0.984375,-0.921875,-0.3125
1664896361216,-0.10107422,-0.98883057,0.16204834,0.015625,-1.171875,-0.0625
1664896361262,-0.1003418,-0.9927368,0.15374756,-1.046875,-1.078125,-0.203125
1664896361306,-0.10961914,-0.9824829,0.16082764,-0.171875,-1.078125,-0.15625
1664896361337,-0.110839844,-0.99005127,0.15838623,0.421875,-0.125,-0.09375
1664896361382,-0.10449219,-0.9871216,0.16131592,0.71875,-0.5,-0.171875
1664896361427,-0.103027344,-0.98394775,0.16619873,0.234375,-0.546875,-0.234375
1664896361457,-0.11010742,-0.9837036,0.15863037,0.15625,-0.296875,-0.28125
1664896361501,-0.11328125,-0.9854126,0.17108154,-0.0625,-0.484375,-0.359375
1664896361531,-0.111328125,-0.9846802,0.14910889,-1.640625,-0.828125,-0.46875
1664896361577,-0.118896484,-0.99176025,0.17254639,-0.203125,-0.0625,-0.140625
1664896361622,-0.09790039,-0.9819946,0.16522217,-4.640625,-0.96875,-0.890625
1664896361652,-0.10961914,-0.9859009,0.17840576,0.078125,-0.875,0.0625
1664896361697,-0.11303711,-0.97369385,0.17108154,-3.125,-0.828125,-0.5625
1664896361742,-0.10839844,-0.9819946,0.17718506,0.875,0.328125,-0.3125
1664896361772,-0.12402344,-0.9985962,0.18133545,1.109375,0.109375,-0.390625
1664896361817,-0.10620117,-0.97540283,0.16888428,0.515625,0.609375,0.03125
1664896361890,-0.11303711,-0.9800415,0.1708374,0.453125,0.625,-0.390625
1664896361893,-0.11425781,-0.9890747,0.17425537,-0.25,0.484375,-0.0625
1664896361937,-0.107666016,-0.98809814,0.17913818,0.78125,1.15625,0.03125
1664896361968,-0.11254883,-0.986145,0.17352295,0.46875,0.390625,-0.21875
1664896362013,-0.11352539,-0.98394775,0.1720581,0.40625,0.8125,0.28125
1664896362072,-0.11230469,-0.9841919,0.17181396,0.515625,1.015625,0.09375
1664896362087,-0.11816406,-0.9819946,0.17669678,0.5625,1.546875,0.125
1664896362131,-0.111328125,-0.9846802,0.17303467,1.109375,1.421875,0.15625
1664896362177,-0.11230469,-0.9871216,0.17840576,1.484375,1.171875,-0.03125
1664896362207,-0.107910156,-0.9793091,0.16375732,-0.96875,1.0625,-0.328125
1664896362253,-0.12011719,-0.9885864,0.1864624,3.34375,1.640625,0.5625
1664896362282,-0.092041016,-0.97442627,0.15985107,-3.078125,0.453125,-0.671875
1664896362329,-0.12988281,-0.9885864,0.18475342,2.5,1.640625,0.5
1664896362374,-0.103759766,-0.98443604,0.17645264,0.390625,1.828125,-0.296875
1664896362402,-0.114746094,-0.9793091,0.17523193,0.734375,1.671875,-0.5
1664896362449,-0.1184082,-0.9985962,0.1708374,0.0625,0.796875,-0.21875
1664896362492,-0.11206055,-0.9883423,0.17010498,0.234375,1.15625,-0.28125
1664896362523,-0.11645508,-0.9829712,0.16033936,-0.046875,1.390625,-0.53125
1664896362568,-0.11206055,-0.98565674,0.16986084,0.140625,1.84375,-0.515625
1664896362611,-0.111572266,-0.9841919,0.1671753,1.234375,1.296875,0.015625
1664896362641,-0.10668945,-0.9871216,0.17694092,0.484375,0.390625,-0.25
1664896362687,-0.11694336,-0.97857666,0.17791748,0.015625,0.78125,-0.046875
1664896362717,-0.100097656,-0.9817505,0.16986084,-0.046875,0.296875,-0.25
1664896362761,-0.115722656,-0.991272,0.17156982,0.46875,0.78125,-0.1875
1664896362808,-0.10961914,-0.97906494,0.17108154,0.375,0.96875,0.15625
1664896362853,-0.10473633,-0.9751587,0.17230225,0.453125,0.78125,0.078125
1664896362880,-0.1003418,-0.98223877,0.16912842,-0.015625,1.34375,0.109375
1664896362929,-0.12548828,-0.9963989,0.18084717,1.6875,0.609375,0.328125
1664896362958,-0.091552734,-0.9812622,0.1539917,-2.1875,0.53125,0.09375
1664896363001,-0.11694336,-0.9873657,0.17669678,2.296875,1.078125,0.0625
1664896363047,-0.11254883,-0.986145,0.17913818,0.703125,0.765625,0.3125
1664896363078,-0.111083984,-0.98150635,0.16888428,0.1875,1.0,0.234375
1664896363122,-0.1081543,-0.9873657,0.17938232,0.359375,0.75,0.203125
1664896363152,-0.107421875,-0.9961548,0.17352295,-0.0625,0.34375,0.3125
1664896363197,-0.1081543,-0.9788208,0.17181396,-0.53125,-0.1875,-0.015625
1664896363241,-0.09887695,-0.9985962,0.168396,0.40625,-0.421875,0.078125
1664896363275,-0.099609375,-0.98321533,0.17401123,-0.21875,-0.796875,0.125
1664896363331,-0.10864258,-0.9824829,0.17913818,-0.046875,-1.609375,0.0625
1664896363363,-0.104003906,-0.9990845,0.1774292,-0.375,-2.203125,0.078125
1664896363392,-0.111083984,-0.98516846,0.17156982,-1.0625,-2.15625,0.015625
1664896363436,-0.10620117,-0.9920044,0.17181396,-1.125,-2.078125,0.15625
1664896363469,-0.10571289,-0.98394775,0.1762085,-0.078125,-2.0,-0.140625
1664896363513,-0.11254883,-0.9849243,0.17645264,-1.671875,-2.203125,-0.25
1664896363557,-0.1027832,-0.9800415,0.1696167,-0.921875,-0.96875,0.078125
1664896363587,-0.12158203,-0.98809814,0.18743896,0.671875,-0.84375,0.09375
1664896363632,-0.09863281,-0.9771118,0.16375732,-3.734375,-0.921875,-0.21875
1664896363691,-0.12939453,-0.987854,0.20111084,0.546875,-0.125,-0.046875
1664896363707,-0.10839844,-0.9854126,0.1876831,-1.3125,-0.21875,-0.0625
1664896363753,-0.10571289,-0.9729614,0.18328857,-2.25,0.140625,-0.65625
1664896363781,-0.103027344,-0.99176025,0.19134521,1.234375,-0.03125,-0.296875
1664896363827,-0.10644531,-0.9800415,0.1930542,1.046875,-0.078125,0.21875
1664896363872,-0.11376953,-0.9780884,0.17889404,-0.171875,-0.65625,-0.46875
1664896363902,-0.10864258,-0.9837036,0.18499756,-0.296875,-0.875,-0.359375
1664896363960,-0.1105957,-0.9885864,0.18475342,-0.203125,-0.734375,-0.34375
1664896363992,-0.11352539,-0.97369385,0.19378662,-0.828125,-0.515625,-0.328125
1664896364020,-0.10668945,-0.987854,0.18621826,-0.53125,-0.1875,-0.4375
1664896364067,-0.1159668,-0.9795532,0.1828003,-0.234375,-0.0625,-0.171875
1664896364114,-0.1105957,-0.98101807,0.19647217,1.1875,0.5625,-0.171875
1664896364142,-0.11450195,-0.9783325,0.18670654,-0.046875,0.765625,-0.46875
1664896364188,-0.11645508,-0.973938,0.20062256,0.8125,1.0,-0.203125
1664896364217,-0.11425781,-0.9805298,0.19281006,-0.9375,0.890625,-0.6875
1664896364262,-0.13012695,-0.98687744,0.20770264,2.609375,0.75,0.171875
1664896364308,-0.092285156,-0.973938,0.17230225,-2.421875,0.234375,-0.9375
1664896364337,-0.12817383,-0.9812622,0.20892334,2.40625,1.5625,0.015625
1664896364382,-0.114746094,-0.97613525,0.20379639,0.609375,0.859375,-0.3125
1664896364427,-0.11791992,-0.98687744,0.17938232,1.234375,1.03125,-0.28125
1664896364457,-0.11206055,-0.9788208,0.18865967,2.453125,1.515625,-0.171875
1664896364504,-0.1081543,-0.9920044,0.1942749,0.875,1.453125,-0.09375
1664896364534,-0.111572266,-0.97491455,0.17718506,-0.09375,0.75,0.203125
1664896364577,-0.11401367,-0.9841919,0.19036865,0.875,1.34375,-0.046875
1664896364638,-0.1237793,-0.9890747,0.18133545,1.09375,1.125,0.0
1664896364652,-0.10888672,-0.98028564,0.18792725,1.09375,0.84375,0.046875
1664896364697,-0.114746094,-0.98272705,0.18621826,0.75,1.265625,-0.09375
1664896364743,-0.1171875,-0.989563,0.17108154,1.390625,1.546875,0.1875
1664896364788,-0.11206055,-0.9758911,0.18475342,0.78125,1.875,-0.515625
1664896364818,-0.10986328,-0.98565674,0.18328857,0.140625,1.453125,-0.484375
1664896364861,-0.11376953,-0.9846802,0.18621826,0.09375,1.3125,-0.546875
1664896364891,-0.11010742,-0.986145,0.17547607,0.15625,1.53125,-0.859375
1664896364937,-0.12573242,-0.9807739,0.1984253,2.421875,0.984375,0.09375
1664896364968,-0.10131836,-0.98272705,0.16229248,-3.0625,0.15625,-1.515625
1664896365012,-0.12182617,-0.99176025,0.19256592,3.953125,2.265625,-0.09375
1664896365057,-0.10864258,-0.97906494,0.184021,2.546875,1.625,0.09375
1664896365088,-0.12573242,-0.9829712,0.18182373,1.453125,1.4375,0.0625
1664896365132,-0.123535156,-0.99005127,0.17181396,2.71875,1.609375,0.0
1664896365178,-0.115234375,-0.9873657,0.18011475,0.921875,1.53125,0.3125
1664896365206,-0.119384766,-0.9817505,0.1762085,1.5,1.515625,0.015625
1664896365252,-0.111083984,-0.9849243,0.17669678,0.890625,1.296875,0.140625
1664896365281,-0.11694336,-0.98394775,0.17572021,1.421875,1.3125,-0.09375
1664896365326,-0.11987305,-0.98443604,0.17401123,0.390625,1.0625,-0.15625
1664896365372,-0.10986328,-0.9866333,0.16937256,0.71875,0.84375,-0.5625
1664896365401,-0.11303711,-0.9932251,0.17156982,-0.015625,0.828125,-0.40625
1664896365447,-0.11279297,-0.9841919,0.17010498,0.5625,1.640625,-0.671875
1664896365493,-0.12182617,-0.9819946,0.16473389,-0.140625,1.21875,-0.390625
1664896365522,-0.11816406,-0.9907837,0.17010498,0.640625,0.71875,-0.4375
1664896365567,-0.11303711,-0.98394775,0.17889404,0.859375,0.34375,-0.65625
1664896365611,-0.12548828,-0.9883423,0.17523193,2.375,0.96875,0.28125
1664896365641,-0.11352539,-0.989563,0.15106201,-1.671875,-1.5,-1.359375
1664896365688,-0.123535156,-0.99298096,0.18206787,1.71875,-0.6875,-0.78125
1664896365719,-0.13549805,-0.98150635,0.16522217,-0.84375,-1.09375,-1.328125
1664896365761,-0.11401367,-0.9746704,0.18109131,-0.9375,1.34375,-0.09375
1664896365808,-0.1237793,-0.991272,0.1749878,-0.40625,1.1875,-1.25
1664896365837,-0.13110352,-0.9824829,0.17254639,0.265625,1.625,-0.5
1664896365897,-0.12841797,-0.98516846,0.17449951,1.015625,1.9375,-0.515625
1664896365927,-0.10839844,-0.9849243,0.18109131,-0.796875,1.046875,-0.71875
1664896365956,-0.1171875,-0.9793091,0.17230225,-0.546875,0.28125,-0.53125
1664896366002,-0.10449219,-0.98760986,0.17767334,0.46875,-0.171875,-0.484375
1664896366032,-0.114990234,-0.9819946,0.17279053,-0.390625,-0.703125,-0.9375
1664896366078,-0.12792969,-0.9871216,0.18157959,-0.671875,-0.703125,-0.78125
1664896366122,-0.123291016,-0.98028564,0.17816162,-0.328125,-0.546875,-0.546875
1664896366151,-0.14111328,-0.97906494,0.17376709,-0.546875,0.4375,-1.0
1664896366196,-0.14208984,-0.98565674,0.18157959,0.796875,1.765625,-1.03125
1664896366243,-0.13378906,-0.9729614,0.18695068,-0.390625,2.484375,-1.265625
1664896366271,-0.13769531,-0.987854,0.17718506,0.9375,2.59375,-0.6875
1664896366317,-0.1184082,-0.97857666,0.17449951,-2.546875,2.234375,-2.140625
1664896366360,-0.13354492,-0.98272705,0.19354248,1.34375,2.03125,-0.671875
1664896366393,-0.13574219,-0.97662354,0.1852417,-1.46875,2.5625,-1.265625
1664896366437,-0.14233398,-0.9824829,0.17913818,-0.921875,2.359375,-1.984375
1664896366514,-0.13745117,-0.9837036,0.18255615,1.8125,2.046875,-0.859375
1664896366516,-0.099853516,-0.98150635,0.17230225,3.640625,3.828125,-0.15625
1664896366557,-0.15356445,-0.9807739,0.18109131,1.0625,2.46875,-1.40625
1664896366587,-0.13574219,-0.97979736,0.17669678,1.125,2.046875,0.453125
1664896366634,-0.12573242,-0.9776001,0.18914795,0.109375,1.875,-0.09375
1664896366676,-0.13110352,-0.9793091,0.18157959,0.90625,2.03125,0.328125
1664896366707,-0.12084961,-0.99468994,0.17645264,2.03125,1.328125,0.875
1664896366752,-0.11401367,-0.9829712,0.1828003,0.5625,1.40625,0.6875
1664896366782,-0.14013672,-0.97198486,0.1749878,2.84375,2.203125,0.484375
1664896366828,-0.14941406,-0.98565674,0.17596436,0.40625,1.0,-0.109375
1664896366872,-0.13208008,-0.9783325,0.15960693,1.265625,1.828125,0.015625
1664896366902,-0.15356445,-0.98809814,0.18450928,2.375,2.359375,-0.375
1664896366947,-0.14160156,-0.9849243,0.16033936,0.9375,3.203125,0.375
1664896366993,-0.14111328,-0.975647,0.16595459,-0.453125,3.203125,-1.671875
1664896367022,-0.119384766,-0.9846802,0.19525146,4.25,4.453125,0.0
1664896367067,-0.13110352,-0.9837036,0.16693115,0.625,2.953125,-0.484375
1664896367113,-0.10839844,-0.98321533,0.17352295,-0.234375,1.53125,0.1875
