# Sensor type: Respeck
# Activity type: Sitting bent backward
# Activity code: 5
# Subject id: s1912575
# Notes: 
timestamp,accel_x,accel_y,accel_z,gyro_x,gyro_y,gyro_z
1664934241092,-0.2758789,-0.5120239,0.8395386,-0.015625,0.609375,-0.234375
1664934241142,-0.27441406,-0.5203247,0.83148193,0.546875,-0.125,-0.0625
1664934241194,-0.28735352,-0.51568604,0.8283081,-1.890625,-0.375,0.28125
1664934241217,-0.2841797,-0.5171509,0.83221436,-1.90625,-1.265625,-0.03125
1664934241251,-0.29174805,-0.51519775,0.838562,0.265625,-0.984375,0.0625
1664934241296,-0.2927246,-0.51568604,0.840271,-0.5625,-0.84375,0.265625
1664934241329,-0.29248047,-0.51275635,0.83709717,-1.390625,0.234375,0.328125
1664934241375,-0.2866211,-0.5088501,0.84295654,0.140625,-0.15625,-0.1875
1664934241408,-0.29370117,-0.5125122,0.83099365,-0.421875,-0.375,0.0
1664934241453,-0.28808594,-0.50445557,0.83099365,-1.625,-0.546875,0.203125
1664934241486,-0.29418945,-0.50567627,0.83807373,0.046875,-0.1875,-0.0625
1664934241531,-0.28686523,-0.50738525,0.8444214,0.421875,0.34375,-0.046875
1664934241566,-0.28515625,-0.50616455,0.8366089,-0.734375,0.28125,0.296875
1664934241611,-0.29516602,-0.50372314,0.84246826,0.40625,0.125,0.0625
1664934241644,-0.29174805,-0.5071411,0.83270264,0.34375,-0.015625,0.265625
1664934241701,-0.29589844,-0.5010376,0.83807373,-0.125,0.21875,-0.171875
1664934241726,-0.28686523,-0.50445557,0.8329468,0.484375,1.046875,-0.453125
1664934241768,-0.29077148,-0.5093384,0.8456421,3.25,0.890625,0.40625
1664934241805,-0.2915039,-0.517395,0.8307495,-3.078125,-0.078125,0.234375
1664934241846,-0.29516602,-0.48809814,0.83880615,-2.078125,0.015625,-0.65625
1664934241881,-0.2841797,-0.50494385,0.83587646,2.015625,1.3125,0.28125
1664934241927,-0.29785156,-0.51031494,0.821228,-3.078125,-0.84375,0.34375
1664934241959,-0.28710938,-0.49713135,0.8395386,-1.953125,-0.09375,0.25
1664934242005,-0.28198242,-0.4961548,0.85150146,1.34375,0.84375,0.0
1664934242084,-0.2915039,-0.4985962,0.84588623,-0.25,0.765625,0.265625
1664934242090,-0.2841797,-0.4981079,0.84368896,1.09375,1.125,0.203125
1664934242116,-0.2854004,-0.4998169,0.8373413,0.96875,1.125,0.328125
1664934242162,-0.28125,-0.5010376,0.8500366,1.25,1.109375,-0.078125
1664934242219,-0.28295898,-0.4973755,0.8468628,0.3125,0.9375,0.359375
1664934242244,-0.2861328,-0.49761963,0.8390503,-0.046875,0.53125,0.296875
1664934242277,-0.28881836,-0.50445557,0.8348999,-0.15625,0.46875,0.265625
1664934242322,-0.28393555,-0.49639893,0.8439331,-0.25,0.265625,0.328125
1664934242355,-0.28735352,-0.4981079,0.8500366,0.375,0.6875,0.21875
1664934242400,-0.2824707,-0.50177,0.8395386,0.40625,1.046875,0.40625
1664934242433,-0.2841797,-0.5029907,0.84490967,0.15625,1.171875,0.234375
1664934242479,-0.28271484,-0.5022583,0.84539795,0.484375,0.8125,-0.046875
1664934242526,-0.27807617,-0.4981079,0.8463745,0.15625,0.75,-0.25
1664934242557,-0.28735352,-0.4956665,0.8500366,2.921875,0.71875,0.359375
1664934242592,-0.27490234,-0.51153564,0.83709717,-0.546875,0.03125,-0.109375
1664934242636,-0.28637695,-0.49224854,0.85076904,0.640625,0.296875,-0.9375
1664934242681,-0.2788086,-0.506897,0.84710693,3.15625,0.265625,-0.46875
1664934242727,-0.2763672,-0.50372314,0.8395386,0.671875,-0.5,-0.171875
1664934242761,-0.28735352,-0.51568604,0.8373413,0.03125,-1.3125,-0.171875
1664934242793,-0.2854004,-0.49591064,0.8456421,0.609375,-1.21875,-0.390625
1664934242838,-0.28710938,-0.49908447,0.84661865,2.46875,-0.171875,-0.046875
1664934242872,-0.30151367,-0.5117798,0.8312378,0.6875,-1.078125,0.140625
1664934242952,-0.28686523,-0.50738525,0.8319702,0.3125,-0.53125,-0.21875
1664934242955,-0.28857422,-0.5076294,0.8422241,1.890625,-0.296875,-0.21875
1664934242996,-0.29223633,-0.506897,0.8353882,-0.03125,-0.828125,0.1875
1664934243030,-0.28710938,-0.5112915,0.8390503,0.4375,-0.359375,-0.21875
1664934243075,-0.29248047,-0.5095825,0.836853,0.59375,-0.4375,-0.046875
1664934243110,-0.29638672,-0.50323486,0.83270264,0.65625,-0.390625,-0.0625
1664934243155,-0.29101562,-0.505188,0.8317261,1.078125,0.15625,-0.09375
1664934243198,-0.29711914,-0.5059204,0.840271,0.875,0.09375,0.09375
1664934243244,-0.29516602,-0.5137329,0.8356323,0.75,0.21875,0.203125
1664934243266,-0.2956543,-0.5088501,0.8329468,-1.25,-0.625,-0.09375
1664934243311,-0.28857422,-0.50860596,0.8156128,1.015625,0.03125,-0.375
1664934243344,-0.29492188,-0.5130005,0.83929443,4.6875,1.390625,0.453125
1664934243389,-0.28979492,-0.5322876,0.8139038,-0.28125,0.84375,0.328125
1664934243423,-0.29711914,-0.5083618,0.8344116,-0.875,-0.234375,-0.546875
1664934243468,-0.2944336,-0.5149536,0.8361206,2.390625,1.03125,-0.40625
1664934243524,-0.29614258,-0.5147095,0.83221436,0.03125,0.421875,0.109375
1664934243547,-0.30029297,-0.51763916,0.83465576,0.46875,0.421875,0.0
1664934243580,-0.29370117,-0.5149536,0.836853,1.640625,0.34375,-0.1875
1664934243625,-0.28881836,-0.51885986,0.838562,1.640625,0.09375,0.1875
1664934243660,-0.29077148,-0.51226807,0.82147217,1.015625,-0.234375,0.40625
1664934243706,-0.2944336,-0.520813,0.82928467,0.21875,-0.671875,0.109375
1664934243751,-0.2890625,-0.5244751,0.8283081,1.21875,-0.1875,-0.109375
1664934243782,-0.29345703,-0.5100708,0.8295288,0.0625,-0.125,0.0
1664934243818,-0.296875,-0.5178833,0.822937,-0.34375,-0.59375,0.125
1664934243865,-0.30004883,-0.5239868,0.821228,-0.40625,-0.421875,0.140625
1664934243896,-0.29516602,-0.5183716,0.8241577,-0.359375,0.0625,0.125
1664934243954,-0.296875,-0.51641846,0.82733154,0.09375,-0.015625,0.046875
1664934243976,-0.3005371,-0.5154419,0.83148193,-0.125,-0.265625,0.234375
1664934244019,-0.29760742,-0.52301025,0.8234253,-1.15625,-0.140625,-0.125
1664934244055,-0.30078125,-0.51568604,0.83807373,0.109375,0.03125,-0.234375
1664934244099,-0.29516602,-0.50665283,0.8336792,-0.703125,-0.109375,-0.234375
1664934244132,-0.30371094,-0.5237427,0.822937,0.671875,0.15625,0.1875
1664934244178,-0.29370117,-0.5210571,0.8200073,-4.546875,-0.90625,-0.3125
1664934244213,-0.29614258,-0.49591064,0.8395386,0.046875,0.546875,-0.1875
1664934244273,-0.29956055,-0.5142212,0.8317261,1.03125,0.375,-0.03125
1664934244292,-0.30615234,-0.5083618,0.8378296,-1.75,0.65625,0.09375
1664934244335,-0.29956055,-0.5083618,0.8295288,-0.234375,0.140625,0.0
1664934244368,-0.29833984,-0.5076294,0.83880615,0.890625,-0.0625,-0.046875
1664934244413,-0.29858398,-0.50250244,0.8378296,0.609375,0.53125,0.296875
1664934244449,-0.296875,-0.5105591,0.82684326,-0.078125,0.125,0.0625
1664934244491,-0.29492188,-0.5083618,0.8366089,-0.3125,0.5625,-0.078125
1664934244527,-0.30200195,-0.5081177,0.83636475,1.0625,0.671875,-0.078125
1664934244571,-0.3017578,-0.503479,0.8312378,-0.59375,0.125,-0.140625
1664934244605,-0.30004883,-0.50250244,0.83465576,-1.125,0.15625,-0.03125
1664934244648,-0.29833984,-0.5054321,0.83758545,-0.078125,0.25,-0.140625
1664934244683,-0.2993164,-0.5039673,0.8390503,0.34375,0.421875,0.0625
1664934244730,-0.29248047,-0.50323486,0.8356323,0.546875,0.53125,-0.125
1664934244785,-0.29516602,-0.5108032,0.8317261,0.078125,0.421875,0.09375
1664934244808,-0.29467773,-0.50982666,0.8324585,0.6875,0.5625,-0.234375
1664934244840,-0.30029297,-0.50128174,0.84173584,0.375,0.234375,-0.125
1664934244886,-0.29223633,-0.5029907,0.8336792,-1.0,0.21875,-0.34375
1664934244920,-0.3022461,-0.5054321,0.8397827,1.890625,0.84375,0.203125
1664934244980,-0.29516602,-0.5046997,0.8287964,-2.0625,0.375,-0.328125
1664934244998,-0.29956055,-0.49176025,0.8427124,-0.671875,0.328125,-0.625
1664934245042,-0.29858398,-0.5088501,0.8397827,2.4375,1.40625,-0.125
1664934245077,-0.2993164,-0.5027466,0.8356323,0.140625,0.953125,0.078125
1664934245128,-0.29833984,-0.50445557,0.8341675,-0.046875,0.453125,-0.125
1664934245192,-0.30322266,-0.49786377,0.8485718,1.28125,0.671875,-0.359375
1664934245201,-0.29077148,-0.5042114,0.84198,1.46875,0.40625,-0.0625
1664934245290,-0.30029297,-0.50665283,0.8361206,0.15625,1.359375,0.0625
1664934245292,-0.29711914,-0.5059204,0.84661865,0.3125,0.5625,-0.15625
1664934245325,-0.2932129,-0.50323486,0.8422241,1.53125,0.84375,-0.203125
1664934245361,-0.28857422,-0.49908447,0.8410034,0.296875,0.875,0.078125
1664934245405,-0.29614258,-0.50787354,0.84490967,0.65625,0.78125,-0.0625
1664934245437,-0.29174805,-0.5015259,0.83807373,1.171875,0.71875,-0.15625
1664934245483,-0.28979492,-0.5071411,0.8329468,1.453125,0.65625,-0.140625
1664934245517,-0.29882812,-0.50909424,0.83636475,1.3125,0.75,0.046875
1664934245561,-0.29882812,-0.5093384,0.8397827,1.0625,0.390625,-0.203125
1664934245596,-0.29638672,-0.5117798,0.8344116,1.484375,0.234375,-0.21875
1664934245642,-0.2890625,-0.51348877,0.83270264,1.609375,0.53125,-0.015625
1664934245678,-0.29418945,-0.51348877,0.840271,0.609375,-0.15625,0.0
1664934245718,-0.28979492,-0.51568604,0.8317261,1.375,0.234375,-0.203125
1664934245752,-0.29223633,-0.5010376,0.8451538,2.171875,-0.515625,-0.1875
1664934245800,-0.28686523,-0.52227783,0.8258667,-0.015625,-0.140625,-0.078125
1664934245831,-0.29833984,-0.5088501,0.826355,-3.296875,-1.3125,-0.671875
1664934245876,-0.29101562,-0.5132446,0.84246826,2.265625,0.828125,-0.375
1664934245909,-0.3005371,-0.5095825,0.83514404,1.015625,0.203125,0.015625
1664934245964,-0.3046875,-0.50860596,0.8290405,0.515625,-0.046875,0.03125
1664934245988,-0.2998047,-0.51031494,0.83148193,1.0,-0.046875,-0.28125
1664934246046,-0.30004883,-0.5171509,0.8341675,2.015625,0.09375,-0.03125
1664934246068,-0.29541016,-0.5149536,0.82733154,1.6875,0.734375,0.265625
1664934246112,-0.29492188,-0.519104,0.8258667,0.390625,-0.078125,0.1875
1664934246146,-0.2956543,-0.5137329,0.83392334,1.953125,0.171875,-0.234375
1664934246191,-0.29174805,-0.5137329,0.83026123,1.71875,0.3125,-0.171875
1664934246222,-0.3034668,-0.51885986,0.8253784,0.484375,0.109375,0.046875
1664934246269,-0.3022461,-0.52349854,0.8278198,0.265625,0.0,-0.0625
1664934246302,-0.2993164,-0.522522,0.8278198,1.453125,0.234375,-0.125
1664934246348,-0.2956543,-0.5195923,0.8192749,1.421875,0.296875,0.0625
1664934246415,-0.29736328,-0.5215454,0.8251343,0.328125,0.390625,-0.1875
1664934246427,-0.29516602,-0.52349854,0.82073975,1.609375,0.859375,-0.234375
1664934246460,-0.29418945,-0.5244751,0.8253784,1.828125,0.328125,0.046875
1664934246518,-0.29541016,-0.5256958,0.8187866,1.03125,0.28125,0.171875
1664934246542,-0.29125977,-0.5220337,0.8287964,0.328125,-0.46875,-0.078125
1664934246586,-0.29418945,-0.52716064,0.82366943,0.046875,-0.359375,-0.078125
1664934246618,-0.3034668,-0.5276489,0.8185425,1.8125,-0.4375,0.328125
1664934246664,-0.29541016,-0.5317993,0.8126831,-3.375,-0.796875,-0.171875
1664934246697,-0.30151367,-0.51641846,0.826355,-0.640625,-0.359375,-0.203125
1664934246742,-0.29248047,-0.53009033,0.8251343,1.078125,0.09375,-0.09375
1664934246775,-0.30273438,-0.5227661,0.81829834,-1.1875,0.0,0.015625
1664934246822,-0.30078125,-0.52960205,0.8209839,-0.828125,-0.1875,-0.015625
1664934246855,-0.3022461,-0.5220337,0.83514404,0.8125,0.21875,-0.265625
1664934246901,-0.29907227,-0.51812744,0.826355,0.21875,-0.078125,0.015625
1664934246934,-0.29589844,-0.5220337,0.8187866,-0.15625,-0.125,0.0625
1664934246978,-0.30688477,-0.5186157,0.8300171,-1.078125,-0.109375,0.109375
1664934247025,-0.30249023,-0.51519775,0.82489014,0.4375,-0.078125,-0.28125
1664934247059,-0.2932129,-0.51934814,0.83026123,-0.234375,-0.03125,-0.109375
1664934247090,-0.30297852,-0.52301025,0.82440186,-1.21875,-0.125,0.015625
1664934247136,-0.30078125,-0.51446533,0.8312378,-0.546875,0.03125,-0.1875
1664934247170,-0.3017578,-0.5112915,0.8275757,0.015625,0.328125,-0.109375
1664934247239,-0.2998047,-0.5154419,0.82244873,-0.78125,0.1875,-0.03125
1664934247248,-0.3083496,-0.5130005,0.8319702,-0.640625,0.4375,-0.09375
1664934247292,-0.3017578,-0.5130005,0.8317261,0.15625,0.671875,-0.296875
1664934247350,-0.3017578,-0.51104736,0.8275757,0.125,0.6875,-0.1875
1664934247373,-0.30615234,-0.5083618,0.8356323,-0.578125,-0.09375,-0.09375
1664934247405,-0.30322266,-0.5117798,0.82855225,-0.921875,0.421875,-0.34375
1664934247450,-0.30273438,-0.50616455,0.83807373,2.078125,0.65625,0.09375
1664934247485,-0.30078125,-0.51763916,0.8239136,-3.140625,0.171875,-0.234375
1664934247544,-0.31152344,-0.49591064,0.83807373,-2.140625,-0.421875,-0.5
1664934247574,-0.29907227,-0.5108032,0.8407593,1.828125,1.421875,-0.28125
1664934247609,-0.30322266,-0.5029907,0.8353882,-0.890625,0.6875,0.125
1664934247652,-0.30541992,-0.49591064,0.8383179,-0.46875,0.6875,-0.125
1664934247689,-0.3059082,-0.50201416,0.84246826,1.265625,0.859375,-0.171875
1664934247745,-0.29956055,-0.506897,0.840271,1.1875,0.421875,0.046875
1664934247769,-0.2993164,-0.5064087,0.822937,-0.8125,0.65625,0.21875
1664934247813,-0.30126953,-0.5071411,0.8373413,0.375,0.78125,0.15625
1664934247845,-0.30273438,-0.50079346,0.8427124,1.25,0.9375,-0.25
1664934247891,-0.29760742,-0.5029907,0.8329468,0.46875,1.078125,-0.0625
1664934247923,-0.29370117,-0.5039673,0.8336792,0.125,0.90625,0.015625
1664934247968,-0.30444336,-0.49957275,0.84173584,0.40625,0.609375,0.046875
1664934248002,-0.29882812,-0.5064087,0.8305054,-0.0625,-0.359375,0.25
1664934248048,-0.2956543,-0.50006104,0.8344116,-1.015625,-0.546875,-0.15625
1664934248080,-0.29785156,-0.49957275,0.83758545,-1.15625,0.28125,-0.265625
1664934248126,-0.29907227,-0.50372314,0.8361206,-0.078125,0.84375,-0.140625
1664934248162,-0.3095703,-0.50128174,0.8366089,0.140625,0.859375,-0.078125
1664934248205,-0.30126953,-0.5027466,0.83465576,0.515625,0.546875,-0.015625
1664934248260,-0.3017578,-0.49835205,0.84051514,0.53125,0.84375,-0.1875
1664934248283,-0.29223633,-0.50323486,0.838562,-0.5,1.140625,-0.1875
1664934248320,-0.30517578,-0.4956665,0.84539795,2.09375,0.640625,0.453125
1664934248363,-0.28955078,-0.50323486,0.82733154,-1.96875,0.390625,-0.265625
1664934248396,-0.29516602,-0.4932251,0.8432007,-1.4375,0.625,-1.0
1664934248442,-0.29467773,-0.49957275,0.8493042,2.375,1.53125,-0.1875
1664934248474,-0.30078125,-0.49224854,0.8434448,0.625,1.375,-0.015625
1664934248521,-0.2944336,-0.50201416,0.84002686,1.359375,0.640625,0.265625
1664934248567,-0.29492188,-0.50665283,0.84588623,0.875,-0.015625,-0.21875
1664934248622,-0.29760742,-0.5015259,0.84490967,2.015625,0.109375,-0.25
1664934248631,-0.29736328,-0.4973755,0.82928467,0.75,-0.03125,0.40625
1664934248680,-0.29541016,-0.50445557,0.8366089,0.03125,-0.625,0.109375
1664934248712,-0.29882812,-0.50665283,0.84124756,1.75,-0.390625,-0.21875
1664934248766,-0.2956543,-0.5005493,0.8278198,0.375,-0.421875,0.078125
1664934248790,-0.2993164,-0.5005493,0.8383179,0.09375,-0.546875,0.0
1664934248835,-0.29711914,-0.5010376,0.83636475,1.328125,-0.265625,0.0625
1664934248868,-0.3017578,-0.50494385,0.83465576,0.984375,-0.3125,0.125
1664934248914,-0.30200195,-0.5029907,0.8319702,0.5625,-0.03125,-0.03125
1664934248948,-0.30566406,-0.5064087,0.8331909,1.328125,0.1875,0.359375
1664934248992,-0.30151367,-0.5112915,0.83099365,-0.375,-0.59375,0.296875
1664934249029,-0.30004883,-0.50445557,0.8348999,0.40625,-1.140625,-0.046875
1664934249071,-0.30737305,-0.50860596,0.8290405,-0.546875,-1.109375,-0.09375
1664934249105,-0.30566406,-0.505188,0.83148193,-1.0,-0.890625,-0.1875
1664934249150,-0.30151367,-0.5010376,0.84124756,0.578125,0.109375,-0.015625
1664934249183,-0.3046875,-0.49884033,0.83465576,0.25,-0.046875,-0.09375
1664934249228,-0.30932617,-0.5076294,0.824646,1.78125,0.078125,0.40625
1664934249264,-0.3017578,-0.5093384,0.8226929,-2.578125,-0.546875,-0.21875
1664934249308,-0.30859375,-0.5005493,0.83465576,0.53125,0.21875,-0.390625
1664934249340,-0.3022461,-0.50738525,0.8390503,1.8125,0.71875,0.0625
1664934249386,-0.31323242,-0.50250244,0.8366089,-0.703125,-0.09375,0.0625
1664934249420,-0.31396484,-0.50323486,0.8319702,-0.296875,-0.4375,0.03125
1664934249464,-0.30541992,-0.5022583,0.8336792,0.546875,-0.609375,-0.171875
1664934249498,-0.30664062,-0.50006104,0.8307495,0.953125,-0.421875,0.1875
1664934249546,-0.3095703,-0.5064087,0.82147217,-0.3125,-0.375,0.328125
1664934249591,-0.31347656,-0.505188,0.8329468,0.265625,0.015625,-0.015625
1664934249622,-0.3112793,-0.5022583,0.8283081,0.984375,0.265625,-0.125
1664934249656,-0.30493164,-0.49786377,0.83026123,0.234375,0.203125,0.046875
1664934249700,-0.31640625,-0.5027466,0.82684326,-0.546875,0.140625,-0.015625
1664934249734,-0.30395508,-0.5003052,0.8305054,0.25,0.609375,-0.15625
1664934249791,-0.3125,-0.50494385,0.8344116,0.75,0.640625,-0.140625
1664934249812,-0.31030273,-0.50372314,0.83343506,-0.046875,0.34375,-0.0625
1664934249857,-0.31469727,-0.5042114,0.83221436,-0.09375,0.625,-0.125
1664934249893,-0.3161621,-0.4968872,0.83465576,0.015625,0.515625,-0.234375
1664934249938,-0.31152344,-0.5046997,0.8378296,0.796875,0.859375,-0.1875
1664934249994,-0.31689453,-0.50445557,0.83343506,-0.46875,0.78125,-0.234375
1664934250015,-0.31103516,-0.50128174,0.836853,0.78125,0.953125,-0.140625
1664934250060,-0.30859375,-0.4915161,0.83709717,-0.421875,0.609375,-0.1875
1664934250095,-0.31103516,-0.51348877,0.824646,1.421875,1.125,0.140625
1664934250141,-0.30981445,-0.49957275,0.8275757,-2.734375,0.09375,-0.71875
1664934250173,-0.31201172,-0.49835205,0.83880615,0.65625,0.953125,-0.71875
1664934250253,-0.3083496,-0.4993286,0.84539795,1.03125,1.46875,0.0625
1664934250255,-0.31396484,-0.50006104,0.8344116,-0.5,0.984375,-0.125
1664934250311,-0.30639648,-0.5015259,0.8331909,0.515625,1.21875,-0.046875
1664934250331,-0.30664062,-0.49005127,0.8461304,1.671875,0.90625,-0.5
1664934250375,-0.30932617,-0.49517822,0.8444214,1.1875,1.09375,0.03125
1664934250412,-0.30664062,-0.50079346,0.8312378,0.453125,0.828125,0.15625
1664934250455,-0.3071289,-0.5046997,0.8373413,-0.09375,1.015625,-0.21875
1664934250489,-0.3088379,-0.5054321,0.83221436,0.765625,0.84375,-0.375
1664934250533,-0.30004883,-0.5027466,0.83026123,0.296875,0.828125,0.203125
1664934250567,-0.30273438,-0.4985962,0.8329468,0.171875,0.984375,0.078125
1664934250619,-0.31054688,-0.50177,0.8373413,1.0,0.796875,-0.0625
1664934250649,-0.2980957,-0.50201416,0.836853,0.453125,1.140625,-0.296875
1664934250690,-0.3046875,-0.49468994,0.84002686,0.125,0.765625,0.0625
1664934250725,-0.29760742,-0.50079346,0.8373413,0.34375,0.96875,0.0
1664934250770,-0.29858398,-0.4998169,0.8373413,0.59375,1.34375,-0.234375
1664934250815,-0.30151367,-0.5029907,0.84173584,1.03125,1.109375,-0.203125
1664934250847,-0.29614258,-0.5005493,0.83709717,0.078125,0.671875,0.203125
1664934250884,-0.29418945,-0.5010376,0.8434448,0.578125,0.875,0.078125
1664934250929,-0.29785156,-0.5010376,0.838562,0.296875,1.078125,-0.203125
1664934250960,-0.29370117,-0.5083618,0.8366089,1.0,1.015625,0.03125
1664934251019,-0.30029297,-0.49664307,0.85565186,0.625,0.890625,-0.171875
1664934251040,-0.29614258,-0.5186157,0.8329468,0.03125,1.046875,0.171875
1664934251086,-0.29248047,-0.5015259,0.8312378,-2.75,0.109375,-0.59375
1664934251122,-0.28955078,-0.49298096,0.84124756,1.15625,1.5,-0.453125
1664934251186,-0.2956543,-0.49664307,0.84368896,0.796875,1.234375,-0.171875
1664934251196,-0.29711914,-0.49346924,0.84246826,0.53125,1.25,-0.140625
1664934251245,-0.29589844,-0.505188,0.83807373,0.65625,0.859375,-0.25
1664934251278,-0.28759766,-0.49517822,0.84832764,0.6875,0.203125,-0.34375
1664934251335,-0.28930664,-0.5027466,0.84368896,1.609375,0.96875,0.03125
1664934251355,-0.2932129,-0.49908447,0.8410034,0.546875,0.65625,0.171875
1664934251406,-0.2932129,-0.50372314,0.8407593,1.109375,0.390625,-0.09375
1664934251433,-0.2915039,-0.506897,0.8348999,1.671875,0.0625,-0.0625
1664934251479,-0.28735352,-0.5010376,0.8378296,0.625,0.15625,-0.0625
1664934251512,-0.29541016,-0.50982666,0.8397827,0.4375,2.234375,-0.25
1664934251558,-0.2902832,-0.51690674,0.8475952,0.03125,3.453125,-0.46875
1664934251591,-0.2824707,-0.5029907,0.83929443,-0.265625,2.8125,-0.5625
1664934251636,-0.28833008,-0.4961548,0.8446655,0.390625,0.578125,0.109375
1664934251671,-0.2788086,-0.5088501,0.8480835,0.359375,0.390625,-0.03125
1664934251727,-0.27783203,-0.50372314,0.84002686,0.671875,0.546875,-0.296875
1664934251750,-0.28833008,-0.49591064,0.8463745,1.140625,0.46875,-0.265625
1664934251793,-0.2783203,-0.5088501,0.84954834,4.546875,2.0625,-0.28125
1664934251840,-0.27807617,-0.5161743,0.83221436,4.375,2.640625,-0.234375
1664934251872,-0.28393555,-0.517395,0.83270264,4.390625,2.234375,0.203125
1664934251911,-0.27929688,-0.51812744,0.836853,3.921875,2.3125,0.140625
1664934251950,-0.2626953,-0.5178833,0.8446655,2.59375,1.984375,-0.25
1664934251984,-0.27685547,-0.5305786,0.8204956,1.90625,0.921875,0.03125
1664934252042,-0.27246094,-0.52423096,0.826355,-2.21875,-0.515625,-0.53125
1664934252062,-0.27026367,-0.52471924,0.8444214,1.6875,0.78125,-0.375
1664934252108,-0.27148438,-0.5269165,0.82855225,1.15625,0.578125,-0.1875
1664934252142,-0.26831055,-0.5239868,0.8319702,0.78125,0.875,-0.296875
1664934252187,-0.27734375,-0.5274048,0.82611084,1.609375,0.515625,-0.25
1664934252220,-0.27807617,-0.52178955,0.83343506,2.53125,0.21875,-0.265625
1664934252266,-0.27539062,-0.5315552,0.82977295,2.828125,0.3125,0.078125
1664934252299,-0.27392578,-0.538147,0.82318115,0.65625,-0.21875,0.0625
1664934252357,-0.2734375,-0.5269165,0.82806396,0.34375,-0.84375,-0.09375
1664934252390,-0.27612305,-0.53375244,0.8305054,1.640625,-1.3125,0.15625
1664934252424,-0.27148438,-0.53863525,0.8204956,1.21875,-1.859375,0.15625
1664934252480,-0.27368164,-0.53619385,0.82733154,-0.0625,-1.3125,0.25
1664934252503,-0.27563477,-0.5437622,0.8185425,0.453125,-1.0625,0.171875
1664934252559,-0.28271484,-0.5371704,0.81781006,-0.0625,-1.421875,0.125
1664934252580,-0.2824707,-0.5352173,0.8209839,-0.21875,-1.328125,0.15625
1664934252661,-0.29125977,-0.53619385,0.82366943,-0.53125,-0.921875,0.125
1664934252666,-0.28637695,-0.5371704,0.81903076,-0.5,-0.640625,0.046875
1664934252705,-0.2800293,-0.536438,0.822937,-0.015625,-0.640625,-0.046875
1664934252739,-0.28637695,-0.53326416,0.8251343,-0.125,-0.46875,0.078125
1664934252783,-0.28686523,-0.52716064,0.82440186,-0.453125,-0.765625,-0.078125
1664934252817,-0.29345703,-0.5276489,0.82073975,-0.765625,-1.1875,0.03125
1664934252862,-0.28637695,-0.5281372,0.8209839,-1.6875,-0.65625,-0.453125
1664934252894,-0.2932129,-0.5286255,0.8234253,0.90625,0.078125,0.140625
1664934252941,-0.29101562,-0.5288696,0.81463623,-3.453125,-0.828125,-0.28125
1664934252975,-0.29516602,-0.5132446,0.82806396,-2.296875,-0.328125,-0.421875
1664934253021,-0.29614258,-0.52471924,0.8295288,0.75,0.8125,-0.140625
1664934253065,-0.29101562,-0.5183716,0.8265991,-1.625,0.375,-0.046875
1664934253098,-0.29174805,-0.51763916,0.8307495,-0.5,0.296875,-0.0625
1664934253133,-0.29003906,-0.5195923,0.8319702,-0.359375,0.15625,-0.28125
1664934253180,-0.2944336,-0.5093384,0.8305054,0.0,-0.15625,-0.171875
1664934253209,-0.29638672,-0.5161743,0.8283081,0.390625,0.515625,0.09375
1664934253279,-0.2939453,-0.5178833,0.82684326,-1.15625,0.28125,-0.078125
1664934253289,-0.2902832,-0.51275635,0.83148193,0.703125,0.8125,-0.21875
1664934253336,-0.29296875,-0.5112915,0.836853,0.46875,0.625,-0.28125
1664934253384,-0.29370117,-0.51519775,0.83026123,-0.5625,0.609375,0.03125
1664934253415,-0.29296875,-0.51641846,0.83465576,0.1875,0.453125,-0.078125
1664934253448,-0.2866211,-0.5186157,0.8307495,0.40625,0.84375,-0.015625
1664934253494,-0.29370117,-0.5203247,0.8348999,0.421875,0.875,-0.03125
1664934253525,-0.28515625,-0.5083618,0.8356323,-0.09375,0.828125,-0.015625
1664934253584,-0.2878418,-0.5161743,0.83343506,0.125,0.640625,-0.046875
1664934253606,-0.28808594,-0.5105591,0.83636475,0.390625,0.796875,-0.171875
1664934253656,-0.29174805,-0.5108032,0.83514404,0.328125,0.5625,-0.015625
1664934253686,-0.2866211,-0.5186157,0.8341675,0.171875,0.875,-0.125
1664934253740,-0.2919922,-0.5117798,0.8324585,-0.09375,0.6875,-0.15625
1664934253763,-0.2836914,-0.5183716,0.8356323,0.203125,0.75,-0.296875
1664934253808,-0.29296875,-0.5046997,0.8432007,0.6875,0.578125,0.015625
1664934253842,-0.2890625,-0.5195923,0.82684326,-0.4375,0.65625,0.171875
1664934253887,-0.29125977,-0.51397705,0.8305054,-3.65625,-0.65625,-0.53125
1664934253923,-0.27954102,-0.50323486,0.84124756,1.078125,1.015625,-0.28125
1664934253966,-0.28857422,-0.51104736,0.8383179,0.265625,0.921875,0.109375
1664934254000,-0.29296875,-0.50250244,0.83807373,-0.21875,1.0625,0.203125
1664934254043,-0.28173828,-0.5093384,0.8427124,0.453125,0.671875,-0.0625
1664934254090,-0.28320312,-0.50616455,0.8512573,0.84375,0.625,-0.359375
1664934254123,-0.2939453,-0.5039673,0.8432007,0.6875,1.0625,0.140625
1664934254201,-0.28881836,-0.51031494,0.8344116,0.453125,0.578125,0.296875
1664934254205,-0.28173828,-0.51153564,0.8344116,0.25,0.390625,-0.03125
1664934254236,-0.28320312,-0.51226807,0.8444214,0.859375,0.453125,-0.140625
1664934254305,-0.28149414,-0.50738525,0.8356323,0.78125,0.5625,-0.15625
1664934254313,-0.28588867,-0.506897,0.84124756,0.59375,0.515625,0.0625
1664934254358,-0.2841797,-0.5198364,0.8348999,0.8125,0.5,-0.0625
1664934254403,-0.28393555,-0.50787354,0.840271,1.484375,0.34375,-0.125
1664934254439,-0.2788086,-0.506897,0.83929443,0.859375,-0.34375,-0.15625
1664934254471,-0.28393555,-0.5210571,0.8439331,0.484375,-0.5625,0.125
1664934254516,-0.28271484,-0.5147095,0.83880615,0.75,-0.640625,0.171875
1664934254550,-0.28564453,-0.5093384,0.8361206,-0.046875,-0.78125,-0.09375
1664934254608,-0.29003906,-0.5171509,0.8353882,0.5,-0.59375,0.140625
1664934254628,-0.28955078,-0.5093384,0.8373413,0.921875,-0.328125,0.03125
1664934254673,-0.2902832,-0.5108032,0.83392334,1.015625,-0.25,-0.046875
1664934254707,-0.29101562,-0.50616455,0.838562,0.90625,-0.296875,-0.09375
1664934254752,-0.2919922,-0.5154419,0.8356323,0.109375,0.0625,-0.21875
1664934254786,-0.29541016,-0.5125122,0.83099365,2.671875,0.015625,0.09375
1664934254831,-0.28515625,-0.5227661,0.8209839,-1.640625,-0.515625,-0.421875
1664934254876,-0.2998047,-0.50567627,0.83587646,-0.015625,0.390625,-0.328125
1664934254910,-0.2927246,-0.5178833,0.8324585,2.125,0.859375,-0.09375
1664934254990,-0.29467773,-0.5120239,0.8319702,0.703125,0.421875,-0.046875
1664934254993,-0.28735352,-0.5161743,0.8307495,0.640625,0.125,-0.109375
1664934255046,-0.2939453,-0.5256958,0.82928467,0.921875,-0.359375,-0.09375
1664934255068,-0.29370117,-0.5117798,0.83099365,1.75,-0.3125,0.046875
1664934255113,-0.2919922,-0.5210571,0.821228,0.984375,-0.078125,0.25
1664934255148,-0.29858398,-0.5198364,0.82806396,0.4375,-0.390625,-0.078125
1664934255192,-0.29711914,-0.5220337,0.8307495,1.9375,0.296875,-0.296875
1664934255225,-0.2939453,-0.5269165,0.82440186,1.15625,0.046875,-0.078125
1664934255271,-0.2944336,-0.5203247,0.82366943,0.171875,-0.484375,0.15625
1664934255303,-0.29589844,-0.5261841,0.82366943,0.296875,-0.328125,0.0625
1664934255350,-0.29736328,-0.52471924,0.81903076,0.1875,-0.46875,0.109375
1664934255384,-0.2993164,-0.52349854,0.824646,0.296875,-0.1875,0.03125
1664934255431,-0.29907227,-0.52056885,0.8222046,-0.140625,-0.09375,0.078125
1664934255460,-0.30078125,-0.52227783,0.8241577,0.234375,-0.578125,0.140625
1664934255507,-0.29956055,-0.51519775,0.82733154,-0.5,-0.578125,0.15625
1664934255541,-0.30078125,-0.5227661,0.82318115,-0.5,-0.578125,0.109375
1664934255585,-0.3010254,-0.520813,0.8253784,-0.796875,-0.359375,-0.09375
1664934255629,-0.30664062,-0.5166626,0.8290405,-0.9375,-0.359375,-0.1875
1664934255663,-0.2915039,-0.5244751,0.8180542,-0.09375,-0.078125,-0.140625
1664934255698,-0.3059082,-0.51031494,0.8324585,0.34375,0.0625,-0.0625
1664934255745,-0.30126953,-0.53326416,0.8139038,-1.53125,0.234375,0.125
1664934255774,-0.31176758,-0.5154419,0.8234253,-3.1875,-0.765625,-0.53125
1664934255833,-0.30297852,-0.5100708,0.8317261,1.65625,1.15625,-0.484375
1664934255856,-0.3017578,-0.51446533,0.8317261,-0.546875,0.421875,-0.125
1664934255902,-0.3095703,-0.5130005,0.8307495,-0.921875,0.84375,-0.15625
1664934255935,-0.29614258,-0.5100708,0.8329468,0.515625,0.921875,-0.1875
1664934255977,-0.30371094,-0.5059204,0.8319702,0.4375,0.359375,-0.234375
1664934256013,-0.3071289,-0.5076294,0.8312378,0.46875,1.109375,0.234375
1664934256058,-0.30200195,-0.5161743,0.8283081,0.265625,0.65625,0.125
1664934256091,-0.29882812,-0.50860596,0.8300171,0.984375,1.109375,-0.4375
1664934256136,-0.30688477,-0.50787354,0.8312378,0.8125,1.140625,-0.15625
1664934256170,-0.29736328,-0.5071411,0.8300171,0.03125,0.765625,0.0
1664934256215,-0.30297852,-0.5064087,0.8353882,0.15625,0.96875,-0.203125
1664934256248,-0.3017578,-0.5093384,0.8336792,1.0,0.703125,-0.203125
1664934256306,-0.29736328,-0.50860596,0.8336792,0.78125,1.375,-0.34375
1664934256328,-0.29614258,-0.51104736,0.8366089,0.328125,1.65625,-0.234375
1664934256373,-0.3010254,-0.5125122,0.838562,0.359375,1.203125,-0.0625
1664934256407,-0.2944336,-0.5171509,0.82611084,0.546875,0.921875,-0.09375
1664934256451,-0.29614258,-0.51519775,0.83392334,0.484375,0.828125,-0.25
1664934256489,-0.29052734,-0.50860596,0.83709717,-0.015625,1.171875,-0.09375
1664934256530,-0.29516602,-0.5095825,0.8300171,0.265625,0.953125,-0.109375
1664934256564,-0.29541016,-0.5046997,0.83465576,0.296875,0.734375,-0.109375
1664934256608,-0.29296875,-0.5130005,0.8287964,0.0625,1.328125,-0.140625
1664934256643,-0.29760742,-0.49957275,0.8444214,1.8125,1.375,0.09375
1664934256689,-0.29101562,-0.5220337,0.8265991,-0.28125,2.171875,0.234375
1664934256721,-0.28833008,-0.50567627,0.82806396,-2.296875,0.3125,-0.34375
1664934256765,-0.28857422,-0.5064087,0.8461304,1.421875,2.078125,-0.265625
1664934256800,-0.27978516,-0.50665283,0.84002686,0.953125,1.78125,0.09375
1664934256858,-0.28808594,-0.50787354,0.8361206,-0.078125,1.375,0.140625
1664934256880,-0.2824707,-0.5161743,0.83636475,0.90625,1.53125,-0.078125
1664934256924,-0.27783203,-0.5054321,0.84417725,1.109375,1.703125,-0.171875
1664934256958,-0.28320312,-0.5083618,0.8439331,1.3125,1.484375,0.171875
1664934257002,-0.27661133,-0.51031494,0.8336792,0.1875,0.6875,0.140625
1664934257038,-0.27441406,-0.5183716,0.8468628,0.9375,0.921875,-0.203125
1664934257080,-0.28027344,-0.5161743,0.83880615,0.65625,0.75,0.0625
1664934257118,-0.27783203,-0.5042114,0.836853,0.5,0.53125,-0.046875
1664934257170,-0.2770996,-0.5149536,0.84173584,0.71875,0.5,-0.03125
1664934257194,-0.28100586,-0.51104736,0.83929443,0.765625,-0.078125,-0.109375
1664934257239,-0.2783203,-0.517395,0.836853,1.109375,0.375,-0.140625
1664934257284,-0.27490234,-0.51446533,0.8407593,0.515625,-0.25,-0.03125
1664934257317,-0.2824707,-0.5130005,0.84173584,0.515625,-1.078125,-0.03125
1664934257374,-0.28100586,-0.51641846,0.82928467,0.078125,-1.359375,-0.234375
1664934257402,-0.28295898,-0.5203247,0.83929443,0.515625,-1.140625,-0.09375
1664934257440,-0.28466797,-0.5220337,0.84002686,0.046875,-1.25,-0.015625
1664934257478,-0.28198242,-0.5159302,0.8270874,0.234375,-1.09375,-0.15625
1664934257521,-0.28930664,-0.51641846,0.8378296,0.578125,-0.796875,-0.171875
1664934257577,-0.28881836,-0.51348877,0.8324585,0.1875,-0.859375,-0.234375
1664934257599,-0.29370117,-0.52130127,0.8336792,1.328125,-0.296875,-0.125
1664934257634,-0.29296875,-0.50445557,0.8407593,0.390625,-0.609375,-0.28125
1664934257678,-0.29614258,-0.52593994,0.8253784,0.6875,-0.625,0.203125
1664934257713,-0.29223633,-0.51519775,0.821228,-2.6875,-1.578125,-0.515625
1664934257755,-0.29638672,-0.5095825,0.8414917,1.09375,0.203125,-0.40625
1664934257790,-0.29223633,-0.51641846,0.83099365,0.796875,-0.015625,0.046875
1664934257835,-0.29736328,-0.5125122,0.83270264,-0.734375,-0.234375,-0.140625
1664934257882,-0.29858398,-0.5125122,0.83026123,0.46875,-0.671875,-0.203125
1664934257916,-0.3010254,-0.5132446,0.8366089,0.109375,-0.625,-0.328125
1664934257949,-0.30786133,-0.5095825,0.8348999,1.21875,-0.328125,0.125
1664934257993,-0.29223633,-0.5117798,0.81829834,0.734375,-0.484375,0.328125
1664934258027,-0.30566406,-0.51031494,0.8278198,-0.15625,-0.484375,-0.109375
1664934258083,-0.3059082,-0.5161743,0.8305054,1.21875,-0.234375,-0.09375
1664934258104,-0.30615234,-0.50860596,0.8356323,0.46875,-0.234375,-0.015625
1664934258151,-0.30639648,-0.5166626,0.8241577,-0.4375,-0.34375,-0.171875
1664934258207,-0.30541992,-0.5076294,0.83636475,-0.03125,0.28125,-0.046875
1664934258230,-0.30151367,-0.51275635,0.8222046,0.84375,-0.140625,0.109375
1664934258264,-0.2993164,-0.5117798,0.8290405,0.34375,-0.390625,-0.078125
1664934258307,-0.29663086,-0.5108032,0.8253784,-0.21875,-0.421875,0.1875
1664934258342,-0.29882812,-0.5147095,0.8258667,0.3125,-0.53125,0.0
1664934258399,-0.30395508,-0.51568604,0.82489014,0.140625,0.046875,0.0
1664934258420,-0.30810547,-0.5120239,0.82562256,0.265625,0.203125,0.21875
1664934258466,-0.30493164,-0.51031494,0.8204956,-0.046875,-0.125,0.078125
1664934258500,-0.31054688,-0.51031494,0.8319702,0.625,0.140625,-0.109375
1664934258545,-0.3059082,-0.5076294,0.8253784,-0.84375,0.203125,-0.171875
1664934258578,-0.31152344,-0.5125122,0.82244873,3.234375,2.203125,0.296875
1664934258628,-0.2980957,-0.5161743,0.8209839,2.015625,3.296875,-0.390625
1664934258656,-0.30078125,-0.5105591,0.83709717,2.484375,2.890625,-0.234375
1664934258702,-0.29858398,-0.5100708,0.82806396,3.78125,2.75,-0.140625
1664934258734,-0.29541016,-0.52789307,0.8217163,0.828125,1.75,0.046875
1664934258780,-0.29467773,-0.520813,0.8275757,0.5625,1.171875,0.046875
1664934258812,-0.2927246,-0.5264282,0.82928467,1.25,0.828125,-0.4375
1664934258871,-0.29077148,-0.52593994,0.8290405,1.171875,1.015625,-0.078125
1664934258904,-0.2919922,-0.52593994,0.8226929,0.4375,0.875,0.140625
1664934258938,-0.2919922,-0.52838135,0.82733154,-0.25,0.359375,-0.046875
1664934258971,-0.28686523,-0.5186157,0.8307495,0.390625,0.78125,-0.296875
1664934259015,-0.29248047,-0.520813,0.8251343,1.5,1.5625,-0.34375
1664934259050,-0.28833008,-0.52716064,0.82244873,1.3125,1.578125,0.03125
1664934259106,-0.28588867,-0.5237427,0.8265991,1.28125,1.375,-0.0625
1664934259128,-0.2861328,-0.5288696,0.82611084,1.765625,1.421875,-0.015625
1664934259173,-0.2836914,-0.5298462,0.82611084,0.578125,1.078125,-0.15625
1664934259220,-0.28344727,-0.5256958,0.82366943,0.1875,1.296875,-0.0625
1664934259252,-0.2836914,-0.53009033,0.8300171,1.03125,1.125,-0.1875
1664934259285,-0.28955078,-0.5354614,0.8300171,0.21875,0.875,-0.203125
1664934259329,-0.28173828,-0.5293579,0.82928467,1.0,0.984375,-0.125
1664934259367,-0.27978516,-0.52423096,0.82489014,-0.109375,1.203125,0.140625
1664934259421,-0.28833008,-0.53204346,0.8317261,1.09375,1.3125,-0.140625
1664934259441,-0.27124023,-0.5288696,0.82489014,-0.296875,1.21875,-0.21875
1664934259489,-0.2775879,-0.53253174,0.82855225,2.46875,1.578125,0.3125
1664934259523,-0.26489258,-0.5317993,0.80999756,-1.828125,0.703125,-0.234375
1664934259568,-0.27661133,-0.5210571,0.83026123,-0.78125,1.640625,-0.390625
1664934259600,-0.27490234,-0.53741455,0.82806396,2.828125,2.015625,-0.171875
1664934259645,-0.27392578,-0.52960205,0.82684326,0.4375,1.875,0.109375
1664934259691,-0.2824707,-0.5298462,0.82855225,1.21875,2.09375,-0.0625
1664934259726,-0.26538086,-0.5366821,0.8312378,1.3125,1.015625,-0.015625
1664934259770,-0.27172852,-0.53741455,0.82684326,0.671875,0.546875,0.046875
1664934259803,-0.25976562,-0.53741455,0.8300171,1.390625,1.484375,0.015625
1664934259848,-0.2697754,-0.53790283,0.82806396,0.546875,1.046875,0.046875
1664934259886,-0.27270508,-0.5276489,0.8222046,0.34375,1.328125,0.0625
1664934259930,-0.26635742,-0.53009033,0.8204956,0.359375,1.125,0.0625
1664934259961,-0.2626953,-0.53448486,0.8253784,0.71875,1.46875,0.21875
1664934260005,-0.2680664,-0.5359497,0.821228,1.046875,1.34375,0.1875
1664934260042,-0.2626953,-0.5371704,0.8258667,1.375,1.28125,0.234375
1664934260085,-0.25048828,-0.5418091,0.82684326,-0.015625,1.375,-0.140625
1664934260142,-0.2565918,-0.5359497,0.8331909,0.0625,1.078125,-0.28125
1664934260164,-0.26708984,-0.53692627,0.8366089,0.875,0.9375,-0.21875
1664934260197,-0.26171875,-0.5413208,0.8258667,0.03125,0.40625,-0.203125
1664934260245,-0.2602539,-0.53741455,0.82733154,-0.578125,-0.875,-0.109375
1664934260278,-0.26293945,-0.536438,0.83148193,-2.578125,-1.984375,-0.078125
1664934260320,-0.26611328,-0.52838135,0.8317261,0.03125,-1.328125,-0.1875
1664934260355,-0.26245117,-0.52911377,0.82977295,-1.421875,-1.078125,-0.28125
1664934260403,-0.26660156,-0.53253174,0.8353882,1.53125,-1.09375,0.078125
1664934260448,-0.26098633,-0.5376587,0.81903076,-2.421875,-1.4375,-0.265625
1664934260479,-0.27368164,-0.5112915,0.83465576,-1.234375,-0.953125,-0.46875
1664934260512,-0.26879883,-0.53375244,0.8300171,1.84375,0.328125,-0.328125
1664934260558,-0.27929688,-0.522522,0.8317261,0.625,-0.234375,0.1875
1664934260592,-0.27319336,-0.5281372,0.8305054,-0.40625,-0.484375,0.03125
1664934260650,-0.27661133,-0.5354614,0.82562256,0.15625,-0.40625,-0.140625
1664934260671,-0.27197266,-0.5310669,0.8300171,1.046875,-0.234375,-0.125
1664934260716,-0.27783203,-0.5276489,0.8270874,0.71875,0.140625,0.0625
1664934260749,-0.27734375,-0.5305786,0.8307495,-0.140625,-0.421875,0.140625
1664934260795,-0.2800293,-0.5288696,0.8312378,1.171875,-0.34375,-0.265625
1664934260827,-0.2775879,-0.534729,0.82244873,0.59375,-0.1875,-0.03125
1664934260872,-0.27905273,-0.52227783,0.83221436,0.609375,-0.375,-0.015625
1664934260907,-0.2746582,-0.5359497,0.82611084,0.734375,-0.28125,0.140625
1664934260953,-0.28051758,-0.5298462,0.8319702,0.90625,-0.8125,0.046875
1664934260987,-0.28076172,-0.5293579,0.8241577,-0.125,-1.296875,-0.015625
1664934261030,-0.28564453,-0.52960205,0.8253784,-0.609375,-1.140625,-0.0625
1664934261065,-0.2836914,-0.5315552,0.82562256,0.0,-1.0,0.046875
1664934261110,-0.28344727,-0.53131104,0.82489014,-0.375,-1.5,0.109375
1664934261165,-0.2854004,-0.52716064,0.8217163,-0.953125,-1.375,-0.109375
1664934261187,-0.28955078,-0.5171509,0.82855225,-0.9375,-1.296875,-0.046875
1664934261221,-0.29003906,-0.5305786,0.8200073,-0.53125,-0.96875,-0.046875
1664934261268,-0.2956543,-0.5081177,0.8324585,0.171875,-0.9375,0.109375
1664934261301,-0.28955078,-0.5288696,0.81170654,-1.203125,-0.796875,0.0625
1664934261345,-0.29589844,-0.52227783,0.8251343,-2.0,-1.09375,-0.328125
1664934261378,-0.2878418,-0.52227783,0.82611084,0.78125,0.578125,-0.296875
1664934261427,-0.30078125,-0.5183716,0.8222046,-0.609375,-0.5625,-0.015625
1664934261469,-0.2939453,-0.51934814,0.8258667,-0.75,0.3125,0.0625
1664934261503,-0.30029297,-0.52838135,0.8287964,-0.015625,-0.109375,-0.09375
1664934261534,-0.29785156,-0.5166626,0.83343506,0.109375,0.015625,-0.171875
1664934261580,-0.29541016,-0.5117798,0.8353882,0.234375,0.328125,0.25
1664934261615,-0.30078125,-0.52008057,0.82611084,-0.640625,-0.140625,0.15625
1664934261671,-0.30078125,-0.51348877,0.8295288,-0.15625,0.15625,-0.140625
1664934261691,-0.29882812,-0.5108032,0.82806396,0.359375,0.421875,-0.34375
1664934261739,-0.29418945,-0.5120239,0.8275757,-0.71875,0.203125,-0.078125
1664934261774,-0.3005371,-0.51348877,0.82977295,0.09375,0.625,0.125
1664934261819,-0.30078125,-0.51763916,0.8319702,0.078125,0.328125,-0.09375
1664934261850,-0.29858398,-0.5161743,0.83221436,0.4375,0.625,-0.1875
1664934261895,-0.2932129,-0.51031494,0.8319702,0.25,0.875,-0.09375
1664934261930,-0.296875,-0.5132446,0.8356323,0.078125,0.96875,-0.1875
1664934261975,-0.29833984,-0.51275635,0.826355,0.875,0.890625,-0.25
1664934262009,-0.29785156,-0.5159302,0.82806396,-0.1875,0.4375,-0.203125
1664934262054,-0.2980957,-0.5142212,0.82928467,0.5625,1.078125,-0.25
1664934262098,-0.29125977,-0.50445557,0.8407593,0.46875,0.515625,-0.203125
1664934262132,-0.2927246,-0.517395,0.8226929,0.609375,0.84375,0.046875
1664934262189,-0.29833984,-0.5100708,0.82806396,-2.5,0.171875,-0.625
1664934262212,-0.29589844,-0.51104736,0.8434448,0.515625,1.203125,-0.484375
1664934262256,-0.29370117,-0.5083618,0.8446655,0.921875,1.328125,-0.171875
1664934262291,-0.29101562,-0.50787354,0.8373413,-0.3125,1.265625,0.03125
1664934262368,-0.29541016,-0.50860596,0.83514404,0.375,1.15625,-0.28125
1664934262370,-0.2878418,-0.51226807,0.84417725,1.21875,1.03125,-0.390625
1664934262412,-0.28808594,-0.50445557,0.8373413,1.1875,1.03125,-0.078125
1664934262449,-0.28710938,-0.5147095,0.82684326,-0.4375,0.71875,0.1875
1664934262494,-0.28564453,-0.5112915,0.8353882,0.3125,1.421875,-0.265625
1664934262527,-0.2927246,-0.5093384,0.8356323,1.359375,1.265625,-0.234375
1664934262573,-0.2866211,-0.50860596,0.8341675,0.484375,1.0625,-0.03125
1664934262606,-0.2800293,-0.5088501,0.83807373,0.28125,1.015625,-0.078125
1664934262650,-0.28930664,-0.50860596,0.8378296,0.8125,0.6875,0.171875
1664934262707,-0.29052734,-0.5130005,0.8331909,0.765625,0.75,-0.0625
1664934262727,-0.28344727,-0.5093384,0.83929443,1.15625,0.828125,-0.046875
1664934262764,-0.28442383,-0.5130005,0.83880615,0.359375,0.53125,-0.0625
1664934262807,-0.2836914,-0.51031494,0.8407593,0.171875,0.265625,-0.171875
1664934262841,-0.27807617,-0.5117798,0.8439331,0.84375,0.203125,-0.140625
1664934262897,-0.2849121,-0.5130005,0.8361206,0.34375,0.234375,0.046875
1664934262920,-0.28857422,-0.51641846,0.8344116,0.28125,-0.296875,0.03125
1664934262967,-0.28222656,-0.51226807,0.8336792,0.890625,-0.5625,-0.09375
1664934263001,-0.28344727,-0.5130005,0.83807373,-0.78125,-0.6875,-0.25
1664934263042,-0.2927246,-0.5137329,0.8319702,1.703125,-0.4375,0.09375
1664934263078,-0.28857422,-0.5210571,0.82562256,-2.5625,-1.359375,-0.203125
1664934263123,-0.2927246,-0.50372314,0.8378296,-0.78125,-0.828125,-0.296875
1664934263155,-0.28149414,-0.51519775,0.84246826,1.640625,0.15625,0.015625
1664934263215,-0.28955078,-0.5095825,0.83929443,-0.109375,-0.75,0.3125
1664934263236,-0.2890625,-0.51690674,0.83587646,-0.59375,-0.28125,0.015625
1664934263281,-0.29541016,-0.5081177,0.83758545,0.484375,-0.203125,-0.09375
1664934263317,-0.30249023,-0.50616455,0.84002686,1.46875,0.0625,0.09375
1664934263358,-0.2915039,-0.51153564,0.82928467,1.0,-0.046875,0.328125
1664934263390,-0.29589844,-0.5149536,0.8312378,0.4375,-0.546875,-0.25
1664934263439,-0.2944336,-0.5159302,0.83270264,0.625,-0.25,-0.296875
1664934263472,-0.2890625,-0.5088501,0.8361206,0.6875,-0.03125,-0.015625
1664934263517,-0.29223633,-0.51519775,0.83343506,0.140625,-0.453125,0.125
1664934263549,-0.2998047,-0.51104736,0.83514404,0.21875,-0.390625,-0.171875
1664934263593,-0.2956543,-0.51568604,0.82928467,1.34375,-0.265625,-0.046875
1664934263630,-0.3005371,-0.519104,0.8265991,0.8125,0.1875,0.1875
1664934263674,-0.29248047,-0.51446533,0.8275757,0.75,0.421875,-0.140625
1664934263719,-0.29882812,-0.51568604,0.8366089,1.078125,0.453125,0.03125
1664934263753,-0.30249023,-0.5171509,0.82733154,1.125,0.140625,0.125
1664934263786,-0.29638672,-0.5195923,0.82366943,0.953125,0.3125,0.078125
1664934263831,-0.29785156,-0.52178955,0.81903076,-0.078125,-0.3125,0.0625
1664934263937,-0.29711914,-0.51226807,0.83709717,0.84375,-0.390625,-0.046875
1664934263942,-0.29907227,-0.51104736,0.82977295,-0.09375,-0.53125,0.09375
1664934263945,-0.28857422,-0.52130127,0.8307495,1.9375,0.734375,0.265625
1664934264002,-0.28808594,-0.5166626,0.8197632,-2.78125,-0.515625,-0.3125
1664934264022,-0.29418945,-0.51397705,0.83099365,0.046875,-0.203125,-0.1875
1664934264069,-0.29760742,-0.5149536,0.8307495,0.6875,0.40625,0.109375
1664934264101,-0.3071289,-0.51690674,0.8258667,-1.140625,-0.015625,-0.125
1664934264146,-0.3076172,-0.5183716,0.83221436,-0.296875,0.171875,-0.125
1664934264179,-0.3017578,-0.5137329,0.83587646,-0.25,-0.328125,-0.265625
1664934264235,-0.30786133,-0.51568604,0.8283081,0.453125,0.21875,0.0625
1664934264259,-0.30029297,-0.50982666,0.8275757,0.5,0.78125,0.078125
1664934264304,-0.29663086,-0.51519775,0.83343506,-0.59375,0.421875,-0.109375
1664934264343,-0.296875,-0.50616455,0.83636475,0.609375,0.734375,-0.328125
1664934264384,-0.29907227,-0.5076294,0.83514404,0.15625,0.390625,-0.125
1664934264415,-0.30688477,-0.51226807,0.83148193,-0.25,0.671875,-0.109375
1664934264461,-0.29418945,-0.50787354,0.8348999,0.578125,0.671875,-0.03125
1664934264507,-0.29711914,-0.5046997,0.8336792,0.5,0.953125,-0.0625
1664934264541,-0.2993164,-0.5076294,0.8353882,0.390625,1.0,0.0
1664934264584,-0.29589844,-0.5088501,0.82977295,0.015625,0.5,-0.1875
1664934264620,-0.29614258,-0.5120239,0.8287964,-0.21875,0.28125,0.15625
1664934264663,-0.2993164,-0.5108032,0.8366089,-0.046875,0.46875,-0.15625
1664934264697,-0.30078125,-0.5064087,0.8395386,-0.1875,0.6875,0.0625
1664934264743,-0.29174805,-0.5046997,0.8348999,-0.046875,0.765625,0.046875
1664934264776,-0.29882812,-0.50738525,0.8366089,0.734375,0.75,-0.25
1664934264822,-0.2932129,-0.5117798,0.82977295,0.078125,1.015625,-0.265625
1664934264856,-0.29711914,-0.5027466,0.84368896,1.859375,1.234375,0.125
1664934264899,-0.28759766,-0.5137329,0.82489014,-1.484375,1.25,-0.265625
1664934264945,-0.29589844,-0.50372314,0.83392334,-2.0,0.71875,-0.765625
1664934264979,-0.28930664,-0.5022583,0.8432007,2.953125,2.53125,-0.375
1664934265012,-0.29467773,-0.50860596,0.8348999,0.21875,1.296875,-0.078125
1664934265059,-0.28881836,-0.5064087,0.83514404,-0.171875,1.71875,0.1875
1664934265090,-0.28930664,-0.5142212,0.8397827,0.65625,1.03125,-0.09375
1664934265135,-0.28808594,-0.50445557,0.8439331,1.15625,1.359375,-0.125
1664934265170,-0.28833008,-0.49591064,0.83270264,2.390625,3.109375,0.078125
1664934265215,-0.2788086,-0.50567627,0.8353882,1.5,4.140625,0.203125
1664934265270,-0.28100586,-0.5142212,0.83758545,1.75,3.078125,0.0625
1664934265293,-0.2770996,-0.5100708,0.8324585,2.015625,2.8125,0.046875
1664934265329,-0.27294922,-0.5137329,0.83465576,1.625,2.421875,-0.015625
1664934265371,-0.2758789,-0.5120239,0.84246826,1.015625,2.203125,0.25
1664934265405,-0.27124023,-0.5183716,0.8336792,0.984375,1.953125,0.046875
1664934265449,-0.2626953,-0.51934814,0.84246826,1.296875,2.296875,0.03125
1664934265486,-0.26831055,-0.5186157,0.84124756,0.84375,1.828125,-0.078125
1664934265530,-0.26220703,-0.52178955,0.8397827,0.671875,1.4375,-0.046875
1664934265565,-0.26098633,-0.52301025,0.84124756,0.75,0.875,-0.125
1664934265608,-0.26049805,-0.52130127,0.8397827,0.40625,0.515625,-0.1875
1664934265642,-0.2619629,-0.520813,0.8422241,0.75,0.375,-0.234375
1664934265688,-0.25976562,-0.52471924,0.8427124,0.609375,0.171875,-0.140625
1664934265721,-0.26733398,-0.5178833,0.8407593,0.203125,-0.328125,-0.171875
1664934265767,-0.2619629,-0.5249634,0.83807373,0.734375,-0.640625,-0.203125
1664934265800,-0.2680664,-0.5095825,0.8500366,0.34375,-0.6875,-0.234375
1664934265845,-0.26123047,-0.5288696,0.83270264,1.34375,-0.453125,0.34375
1664934265879,-0.27246094,-0.52349854,0.8317261,-2.0625,-1.375,-0.609375
1664934265923,-0.26757812,-0.5147095,0.8407593,0.609375,-0.703125,-0.640625
1664934265970,-0.26879883,-0.5198364,0.83880615,0.796875,-0.65625,-0.1875
1664934266002,-0.2763672,-0.51519775,0.84051514,-0.546875,-0.625,-0.015625
1664934266036,-0.27319336,-0.52130127,0.83709717,-0.0625,-0.53125,-0.203125
1664934266080,-0.27172852,-0.5178833,0.83392334,0.046875,-0.703125,-0.140625
1664934266114,-0.28125,-0.51641846,0.84246826,1.828125,-0.65625,0.140625
1664934266184,-0.26733398,-0.5154419,0.83148193,0.625,-0.578125,0.21875
1664934266192,-0.2770996,-0.52178955,0.8300171,0.0,-0.578125,-0.078125
1664934266239,-0.27514648,-0.52008057,0.8331909,0.71875,-0.96875,-0.484375
1664934266319,-0.28149414,-0.51690674,0.8361206,0.546875,-0.828125,-0.15625
1664934266322,-0.2775879,-0.5220337,0.8290405,-0.296875,-1.203125,-0.015625
1664934266351,-0.28393555,-0.5244751,0.8312378,-0.5,-1.015625,0.171875
1664934266396,-0.27978516,-0.51885986,0.82806396,0.875,-1.015625,-0.0625
1664934266430,-0.28710938,-0.51934814,0.82806396,0.875,-0.65625,0.0625
1664934266474,-0.28173828,-0.5198364,0.8283081,0.46875,-0.5625,0.0
1664934266509,-0.28857422,-0.5215454,0.82977295,0.40625,0.078125,0.125
1664934266566,-0.28393555,-0.51690674,0.8239136,0.34375,-0.59375,-0.078125
1664934266601,-0.28979492,-0.5195923,0.82196045,0.21875,-0.5,0.015625
1664934266633,-0.28808594,-0.5183716,0.82684326,0.0625,-0.765625,-0.046875
1664934266668,-0.28930664,-0.5137329,0.8307495,-0.46875,-1.484375,0.03125
1664934266712,-0.2915039,-0.52130127,0.82318115,0.40625,-1.140625,-0.03125
1664934266744,-0.29370117,-0.5105591,0.8348999,0.828125,0.125,0.046875
1664934266793,-0.29467773,-0.5303345,0.8139038,-0.5,0.203125,0.265625
1664934266823,-0.296875,-0.5149536,0.82684326,-2.09375,-1.0625,-0.4375
1664934266869,-0.28955078,-0.5147095,0.8348999,0.625,0.5,-0.3125
1664934266902,-0.29125977,-0.5137329,0.82440186,-0.265625,0.265625,-0.125
1664934266947,-0.29833984,-0.5095825,0.8275757,-0.984375,0.3125,-0.03125
1664934266994,-0.29541016,-0.51446533,0.8341675,0.234375,0.40625,0.015625
1664934267025,-0.2919922,-0.51275635,0.8390503,0.84375,0.265625,-0.203125
1664934267071,-0.28881836,-0.5130005,0.8278198,0.03125,0.609375,0.140625
1664934267106,-0.2939453,-0.51446533,0.824646,-0.046875,0.28125,0.046875
1664934267184,-0.29223633,-0.520813,0.83514404,-0.203125,0.40625,0.046875
1664934267189,-0.2956543,-0.51934814,0.8317261,-0.453125,-0.09375,-0.140625
1664934267229,-0.2902832,-0.50982666,0.8344116,-0.859375,0.015625,-0.0625
1664934267261,-0.29296875,-0.5112915,0.8361206,-0.40625,0.5,-0.203125
1664934267309,-0.29663086,-0.5100708,0.8344116,0.078125,0.296875,-0.109375
1664934267342,-0.2956543,-0.5095825,0.8348999,0.34375,0.859375,-0.140625
1664934267387,-0.29760742,-0.50909424,0.8317261,0.0625,0.84375,-0.046875
1664934267421,-0.29516602,-0.5076294,0.83636475,0.359375,0.71875,-0.09375
1664934267466,-0.2932129,-0.51104736,0.8341675,0.1875,0.796875,-0.125
1664934267498,-0.2915039,-0.506897,0.8283081,0.703125,0.734375,-0.015625
1664934267542,-0.29052734,-0.5071411,0.8356323,0.640625,1.28125,0.0
1664934267577,-0.28955078,-0.505188,0.84051514,0.0,0.671875,-0.03125
1664934267622,-0.28686523,-0.50787354,0.8290405,-0.171875,0.921875,-0.03125
1664934267655,-0.29736328,-0.50665283,0.84198,2.46875,1.203125,0.0625
1664934267700,-0.28955078,-0.5147095,0.82562256,-1.453125,0.75,0.0625
1664934267735,-0.28930664,-0.50616455,0.83807373,-2.25,0.0625,-0.4375
1664934267780,-0.28564453,-0.51226807,0.84368896,2.140625,1.640625,-0.171875
1664934267814,-0.2861328,-0.5027466,0.838562,0.078125,1.046875,0.125
1664934267859,-0.2915039,-0.50982666,0.8353882,-0.359375,1.1875,-0.046875
1664934267893,-0.28125,-0.5093384,0.8410034,1.421875,1.265625,-0.046875
1664934267938,-0.28320312,-0.506897,0.84368896,0.9375,0.90625,-0.015625
1664934267969,-0.28588867,-0.49908447,0.84002686,0.828125,1.046875,0.125
1664934268017,-0.28076172,-0.51153564,0.83709717,0.015625,0.515625,-0.03125
1664934268050,-0.28076172,-0.5095825,0.84539795,0.40625,1.125,-0.28125
1664934268096,-0.27563477,-0.51226807,0.84295654,0.53125,0.828125,0.0
1664934268129,-0.2788086,-0.50665283,0.83929443,0.515625,1.03125,-0.0625
1664934268172,-0.2841797,-0.503479,0.8397827,0.296875,0.96875,0.03125
1664934268230,-0.28344727,-0.5003052,0.840271,0.609375,0.921875,0.015625
1664934268253,-0.27612305,-0.50738525,0.83587646,0.40625,1.1875,-0.140625
1664934268286,-0.2861328,-0.5059204,0.84198,0.546875,0.71875,0.0625
1664934268330,-0.27514648,-0.5095825,0.8395386,0.46875,1.21875,-0.03125
1664934268366,-0.28173828,-0.5117798,0.8422241,0.75,0.9375,-0.0625
1664934268412,-0.27661133,-0.5132446,0.8444214,0.828125,1.546875,-0.15625
1664934268443,-0.2705078,-0.51275635,0.84051514,1.296875,1.046875,0.0625
1664934268488,-0.27856445,-0.51275635,0.8373413,0.296875,0.5625,-0.078125
1664934268535,-0.27197266,-0.51153564,0.8414917,0.296875,0.4375,0.0
1664934268568,-0.27539062,-0.50616455,0.84368896,0.75,0.453125,-0.171875
1664934268601,-0.27514648,-0.4973755,0.8488159,0.671875,0.359375,-0.28125
1664934268645,-0.28051758,-0.519104,0.83807373,1.359375,0.0,0.234375
1664934268683,-0.27734375,-0.51348877,0.8317261,-1.6875,-1.15625,-0.46875
1664934268737,-0.2734375,-0.50665283,0.8475952,0.921875,-0.46875,-0.515625
1664934268758,-0.2775879,-0.5108032,0.84002686,0.515625,-0.171875,-0.09375
1664934268803,-0.28393555,-0.5095825,0.8407593,0.234375,-0.5,-0.03125
1664934268839,-0.28125,-0.50909424,0.83758545,-0.078125,-0.84375,-0.140625
1664934268883,-0.27783203,-0.5105591,0.8414917,1.03125,-0.34375,-0.296875
1664934268916,-0.28881836,-0.51641846,0.8407593,1.015625,-0.5,0.046875
1664934268960,-0.28637695,-0.5137329,0.8341675,0.9375,-0.34375,0.09375
1664934268996,-0.28881836,-0.50494385,0.83929443,0.359375,-0.78125,-0.25
1664934269040,-0.29345703,-0.5093384,0.8390503,0.859375,-0.21875,-0.203125
1664934269085,-0.28051758,-0.51275635,0.83465576,0.875,-0.25,-0.046875
1664934269118,-0.28930664,-0.5149536,0.8329468,0.15625,-0.765625,-0.046875
1664934269150,-0.28759766,-0.50909424,0.82806396,0.375,-0.984375,0.078125
1664934269199,-0.28979492,-0.5142212,0.83465576,0.328125,-0.71875,-0.09375
1664934269253,-0.2866211,-0.5137329,0.8329468,0.28125,-0.71875,-0.171875
1664934269274,-0.28955078,-0.51226807,0.8341675,-0.140625,-0.9375,-0.078125
1664934269312,-0.29956055,-0.5112915,0.83392334,0.34375,-0.578125,-0.046875
1664934269355,-0.2932129,-0.51348877,0.82611084,0.296875,-0.640625,0.078125
1664934269400,-0.29101562,-0.51275635,0.83148193,0.0,-0.484375,0.078125
1664934269434,-0.29174805,-0.5083618,0.8324585,1.046875,-0.171875,0.046875
1664934269514,-0.296875,-0.5161743,0.8275757,0.328125,-0.328125,0.15625
1664934269517,-0.2956543,-0.5095825,0.8278198,-0.328125,-0.53125,-0.15625
1664934269560,-0.29516602,-0.5132446,0.8305054,1.0625,-0.078125,-0.21875
1664934269591,-0.29833984,-0.50909424,0.83587646,0.75,-0.46875,0.0
1664934269637,-0.30126953,-0.5108032,0.82318115,0.078125,-0.140625,0.234375
1664934269670,-0.30419922,-0.5130005,0.82440186,-2.171875,-1.53125,-0.140625
1664934269717,-0.29711914,-0.50665283,0.8324585,0.90625,0.109375,-0.0625
1664934269762,-0.30126953,-0.5117798,0.8307495,-0.15625,-0.109375,-0.015625
1664934269792,-0.30493164,-0.50372314,0.8278198,-0.859375,-0.03125,0.046875
1664934269829,-0.3017578,-0.51519775,0.83709717,0.515625,-0.28125,-0.078125
1664934269873,-0.30444336,-0.5064087,0.8390503,0.71875,0.234375,-0.1875
1664934269906,-0.30859375,-0.50494385,0.826355,-0.09375,0.375,0.140625
1664934269965,-0.29907227,-0.5076294,0.82440186,0.28125,0.1875,0.125
1664934269986,-0.30444336,-0.5071411,0.8356323,0.046875,0.328125,-0.09375
1664934270033,-0.30249023,-0.51397705,0.82928467,0.375,0.171875,-0.203125
1664934270065,-0.30737305,-0.5042114,0.8348999,0.25,0.4375,-0.140625
1664934270109,-0.3017578,-0.5083618,0.8300171,-0.234375,0.5,0.140625
1664934270145,-0.3022461,-0.506897,0.83465576,0.234375,0.5,-0.234375
1664934270190,-0.30371094,-0.50860596,0.82977295,0.953125,0.796875,-0.015625
1664934270222,-0.2998047,-0.51763916,0.83026123,0.015625,0.515625,0.0
1664934270282,-0.3034668,-0.50860596,0.8331909,0.25,0.90625,-0.046875
1664934270301,-0.3046875,-0.5039673,0.8287964,0.203125,0.75,-0.21875
1664934270346,-0.29833984,-0.50787354,0.8305054,-0.015625,0.65625,-0.140625
1664934270378,-0.3010254,-0.5076294,0.84246826,0.671875,1.234375,-0.078125
1664934270423,-0.29785156,-0.50787354,0.8324585,0.6875,1.09375,-0.09375
1664934270456,-0.29077148,-0.49957275,0.83514404,0.0625,0.59375,-0.125
1664934270500,-0.29711914,-0.51031494,0.8324585,0.171875,0.71875,-0.234375
1664934270534,-0.29785156,-0.5042114,0.83636475,2.015625,1.25,0.0
1664934270602,-0.29077148,-0.517395,0.8270874,-1.25,1.078125,-0.125
1664934270612,-0.30029297,-0.49786377,0.8305054,-2.046875,0.0,-0.46875
1664934270658,-0.29663086,-0.5095825,0.83880615,1.78125,1.328125,-0.25
1664934270692,-0.30029297,-0.5022583,0.8397827,-0.109375,0.828125,-0.171875
1664934270737,-0.29907227,-0.50665283,0.83807373,-0.078125,1.28125,-0.15625
1664934270782,-0.29833984,-0.51348877,0.8378296,0.734375,0.5625,-0.15625
1664934270816,-0.2932129,-0.5005493,0.8317261,0.46875,0.953125,-0.296875
1664934270849,-0.28955078,-0.50665283,0.83514404,1.203125,1.453125,0.078125
1664934270895,-0.28955078,-0.5112915,0.8348999,0.21875,0.453125,0.0625
1664934270928,-0.2927246,-0.50616455,0.84124756,0.65625,1.125,-0.171875
1664934270986,-0.28955078,-0.5064087,0.8395386,0.4375,1.046875,-0.078125
1664934271007,-0.2915039,-0.5005493,0.84002686,0.703125,1.21875,0.015625
1664934271054,-0.2939453,-0.5105591,0.83929443,0.421875,0.75,-0.109375
1664934271088,-0.2919922,-0.50909424,0.8378296,0.609375,0.609375,-0.09375
1664934271133,-0.28881836,-0.5112915,0.8397827,0.859375,1.21875,-0.171875
1664934271165,-0.28271484,-0.51031494,0.84417725,0.28125,0.8125,-0.09375
1664934271211,-0.28588867,-0.50909424,0.84051514,-0.140625,0.625,-0.015625
1664934271246,-0.2854004,-0.50982666,0.83880615,1.109375,0.8125,-0.21875
1664934271302,-0.27905273,-0.506897,0.8356323,0.140625,0.71875,-0.046875
1664934271324,-0.28930664,-0.51153564,0.8397827,0.390625,0.796875,0.03125
1664934271368,-0.2788086,-0.50982666,0.8366089,0.84375,0.65625,-0.03125
1664934271401,-0.29003906,-0.5093384,0.84051514,0.796875,1.234375,0.03125
1664934271447,-0.27929688,-0.5117798,0.83465576,0.578125,0.75,-0.09375
1664934271480,-0.2841797,-0.5095825,0.84124756,1.03125,0.375,-0.0625
1664934271526,-0.27783203,-0.5088501,0.8353882,-0.3125,0.53125,-0.171875
1664934271560,-0.28833008,-0.51397705,0.8410034,1.890625,0.515625,0.171875
1664934271606,-0.2854004,-0.51446533,0.83758545,-1.1875,0.40625,-0.296875
1664934271662,-0.27929688,-0.50738525,0.8414917,-0.1875,0.109375,-0.484375
1664934271683,-0.27929688,-0.51031494,0.8451538,1.46875,0.640625,-0.15625
1664934271719,-0.28295898,-0.505188,0.84710693,0.703125,0.40625,0.015625
1664934271763,-0.2841797,-0.51690674,0.8422241,0.515625,-0.78125,-0.03125
1664934271809,-0.28515625,-0.5198364,0.83880615,0.234375,-1.328125,-0.265625
1664934271840,-0.2861328,-0.5083618,0.83636475,0.625,-1.484375,-0.078125
1664934271887,-0.28637695,-0.5108032,0.8390503,0.9375,-0.71875,0.390625
1664934271921,-0.29125977,-0.50494385,0.8356323,-0.453125,-1.15625,-0.015625
1664934271966,-0.2902832,-0.50982666,0.8397827,0.671875,-0.21875,-0.109375
1664934272011,-0.28930664,-0.51104736,0.83709717,1.1875,-0.453125,-0.015625
1664934272042,-0.29541016,-0.51104736,0.83148193,-0.4375,-0.78125,0.15625
1664934272077,-0.29614258,-0.50323486,0.8305054,0.328125,-0.671875,0.0625
1664934272123,-0.28979492,-0.5108032,0.8366089,1.109375,-0.375,0.046875
1664934272156,-0.29467773,-0.5149536,0.8395386,0.515625,-0.328125,0.09375
1664934272225,-0.29345703,-0.5112915,0.83270264,0.640625,-0.140625,-0.03125
1664934272236,-0.29052734,-0.50982666,0.8307495,0.765625,-0.125,-0.046875
1664934272282,-0.2980957,-0.5220337,0.83343506,0.140625,-0.4375,0.0
1664934272326,-0.2944336,-0.5100708,0.82977295,0.828125,-0.515625,-0.125
1664934272358,-0.29589844,-0.5108032,0.8307495,0.5,-0.46875,0.078125
1664934272393,-0.29882812,-0.5112915,0.83807373,0.953125,-0.09375,0.140625
1664934272439,-0.30273438,-0.51397705,0.8287964,0.46875,-0.09375,0.03125
1664934272471,-0.3005371,-0.5088501,0.83392334,0.625,-0.375,-0.015625
1664934272533,-0.29541016,-0.52056885,0.8192749,0.515625,-0.015625,0.015625
1664934272549,-0.30444336,-0.51226807,0.8336792,2.0625,0.359375,0.125
1664934272596,-0.29882812,-0.5264282,0.81585693,-1.328125,-0.359375,-0.109375
1664934272629,-0.3005371,-0.5064087,0.8307495,-1.609375,-0.828125,-0.375
1664934272673,-0.2915039,-0.5183716,0.836853,1.5625,0.484375,-0.09375
1664934272710,-0.30981445,-0.50372314,0.82684326,-0.640625,-0.046875,-0.0625
1664934272753,-0.30151367,-0.50787354,0.82318115,-0.484375,0.09375,0.0625
1664934272788,-0.29956055,-0.5117798,0.83636475,0.453125,0.03125,-0.015625
1664934272831,-0.2998047,-0.51226807,0.8295288,0.484375,-0.265625,0.0
1664934272865,-0.2993164,-0.50445557,0.82562256,0.5,0.5,0.046875
1664934272912,-0.30078125,-0.51226807,0.83514404,-0.015625,0.203125,0.015625
1664934272945,-0.30688477,-0.5100708,0.8361206,0.265625,0.359375,-0.109375
1664934272989,-0.30078125,-0.5137329,0.83758545,0.296875,0.484375,-0.265625
1664934273035,-0.30151367,-0.51031494,0.83221436,0.0625,0.375,-0.21875
1664934273072,-0.3017578,-0.51226807,0.8278198,-0.3125,0.609375,-0.078125
1664934273101,-0.30249023,-0.51397705,0.83148193,0.859375,1.015625,-0.203125
1664934273148,-0.29882812,-0.5117798,0.82806396,0.40625,0.953125,-0.09375
1664934273182,-0.29907227,-0.51226807,0.8353882,0.546875,0.90625,-0.0625
1664934273249,-0.296875,-0.5108032,0.8270874,0.828125,0.984375,-0.046875
1664934273257,-0.2993164,-0.51031494,0.8295288,0.609375,1.109375,-0.234375
1664934273304,-0.29736328,-0.50494385,0.83343506,0.46875,0.78125,-0.09375
1664934273350,-0.29833984,-0.5132446,0.8353882,0.609375,0.703125,-0.078125
1664934273383,-0.29858398,-0.50787354,0.8331909,0.9375,1.03125,-0.09375
1664934273417,-0.2927246,-0.5142212,0.83099365,0.125,0.515625,0.0625
1664934273460,-0.29785156,-0.51226807,0.8353882,0.671875,0.984375,-0.171875
1664934273496,-0.29223633,-0.5042114,0.8361206,-0.03125,0.734375,-0.390625
1664934273552,-0.30126953,-0.51690674,0.8265991,1.234375,0.90625,0.265625
1664934273574,-0.296875,-0.517395,0.8253784,-2.375,0.046875,-0.421875
1664934273619,-0.29833984,-0.5015259,0.83587646,-0.703125,0.484375,-0.671875
1664934273654,-0.2944336,-0.5083618,0.8444214,1.46875,1.546875,-0.28125
1664934273698,-0.30297852,-0.5027466,0.82928467,-0.84375,0.984375,0.125
1664934273729,-0.29077148,-0.51153564,0.84051514,-0.46875,2.609375,-0.5625
1664934273775,-0.2841797,-0.5161743,0.838562,0.640625,1.578125,-0.390625
1664934273810,-0.29248047,-0.5039673,0.8422241,0.71875,1.015625,-0.203125
1664934273854,-0.2915039,-0.506897,0.8434448,0.234375,1.390625,0.171875
1664934273887,-0.28271484,-0.49957275,0.8356323,-0.0625,0.734375,-0.171875
1664934273934,-0.2902832,-0.50445557,0.8397827,0.84375,1.125,-0.0625
1664934273969,-0.28930664,-0.5149536,0.83807373,0.46875,0.734375,0.0
1664934274014,-0.28637695,-0.5076294,0.836853,0.0625,0.53125,-0.015625
1664934274057,-0.28833008,-0.50787354,0.8366089,0.234375,1.171875,-0.125
1664934274089,-0.2824707,-0.50860596,0.8378296,0.34375,0.703125,0.0
1664934274126,-0.2841797,-0.50323486,0.83636475,0.390625,0.796875,-0.15625
1664934274171,-0.28515625,-0.50567627,0.8373413,0.3125,0.921875,-0.046875
1664934274227,-0.28320312,-0.50860596,0.838562,0.375,0.921875,-0.03125
1664934274273,-0.28466797,-0.5088501,0.8410034,0.5625,0.640625,-0.125
1664934274293,-0.28320312,-0.5022583,0.83514404,0.65625,0.515625,-0.046875
1664934274329,-0.28100586,-0.5071411,0.84198,0.875,0.609375,0.03125
1664934274373,-0.28466797,-0.50616455,0.84490967,0.671875,0.78125,-0.109375
1664934274405,-0.28808594,-0.50616455,0.83880615,1.21875,0.421875,0.015625
1664934274450,-0.28100586,-0.5076294,0.84417725,1.0625,0.1875,-0.0625
1664934274485,-0.28222656,-0.50909424,0.8397827,0.671875,0.03125,-0.125
1664934274530,-0.28710938,-0.50860596,0.8383179,1.21875,-0.46875,-0.21875
1664934274578,-0.2878418,-0.50128174,0.8485718,0.59375,-0.546875,-0.3125
1664934274609,-0.2878418,-0.51934814,0.8300171,1.0625,-0.65625,0.359375
1664934274643,-0.28710938,-0.5147095,0.8283081,-1.453125,-1.359375,-0.453125
1664934274690,-0.2890625,-0.50494385,0.8427124,1.40625,-0.265625,-0.46875
1664934274720,-0.29052734,-0.51031494,0.838562,0.9375,0.0,-0.09375
1664934274777,-0.2919922,-0.506897,0.8373413,0.859375,0.28125,-0.234375
1664934274799,-0.2861328,-0.5076294,0.83514404,0.75,0.0625,0.078125
1664934274845,-0.29541016,-0.51275635,0.8378296,0.515625,-0.5625,-0.328125
1664934274877,-0.29296875,-0.5120239,0.84124756,1.828125,-0.3125,-0.09375
1664934274921,-0.28735352,-0.51519775,0.83221436,1.734375,0.09375,0.421875
1664934274957,-0.29492188,-0.517395,0.8324585,0.0,-0.8125,-0.09375
1664934275001,-0.29296875,-0.51641846,0.836853,1.453125,0.171875,-0.234375
1664934275035,-0.28833008,-0.51397705,0.83709717,1.515625,0.203125,-0.171875
1664934275079,-0.2919922,-0.5195923,0.8317261,0.8125,0.171875,-0.046875
1664934275114,-0.29614258,-0.5183716,0.82684326,0.9375,0.203125,-0.046875
1664934275159,-0.2944336,-0.5154419,0.83270264,1.1875,-0.09375,-0.109375
1664934275192,-0.29492188,-0.5161743,0.8251343,1.0625,-0.171875,-0.140625
1664934275237,-0.29516602,-0.5159302,0.82855225,0.828125,0.21875,-0.03125
1664934275272,-0.296875,-0.5210571,0.82977295,0.6875,0.0625,0.015625
1664934275318,-0.29101562,-0.5215454,0.8307495,0.96875,-0.015625,-0.015625
1664934275361,-0.2927246,-0.52008057,0.8275757,0.53125,-0.015625,-0.109375
1664934275394,-0.2890625,-0.5186157,0.82977295,0.546875,-0.046875,0.0
1664934275429,-0.29345703,-0.522522,0.82684326,0.5625,-0.296875,0.015625
1664934275496,-0.29296875,-0.52056885,0.8283081,0.625,-0.40625,0.0625
1664934275508,-0.296875,-0.52056885,0.81951904,-0.375,-0.765625,0.046875
1664934275552,-0.29638672,-0.52301025,0.8192749,0.1875,-0.15625,-0.046875
1664934275587,-0.29858398,-0.50445557,0.83587646,0.578125,-0.234375,-0.0625
1664934275631,-0.2998047,-0.52178955,0.81781006,-1.0,-0.359375,0.015625
1664934275664,-0.30029297,-0.5198364,0.8222046,-1.78125,-0.796875,-0.25
1664934275711,-0.29711914,-0.5108032,0.8307495,0.015625,0.53125,-0.1875
1664934275744,-0.29760742,-0.5166626,0.824646,-0.375,-0.03125,-0.125
1664934275791,-0.30371094,-0.5117798,0.8319702,-0.984375,0.078125,0.078125
1664934275822,-0.30615234,-0.50982666,0.83709717,-0.015625,0.171875,-0.0625
1664934275868,-0.29467773,-0.50567627,0.83758545,-0.28125,0.078125,-0.328125
1664934275903,-0.30517578,-0.51348877,0.82440186,0.484375,0.28125,0.046875
1664934275948,-0.30004883,-0.5125122,0.82977295,0.25,0.25,0.125
1664934275979,-0.3017578,-0.5095825,0.82977295,-0.34375,0.546875,-0.15625
1664934276025,-0.30029297,-0.51397705,0.82733154,0.359375,0.265625,-0.21875
1664934276059,-0.2998047,-0.50665283,0.8258667,-0.078125,0.375,-0.109375
1664934276105,-0.29589844,-0.5117798,0.8295288,-0.0625,0.53125,-0.125
1664934276137,-0.30200195,-0.5100708,0.8312378,0.6875,0.734375,-0.125
1664934276183,-0.2980957,-0.5154419,0.8275757,0.359375,0.734375,-0.21875
1664934276216,-0.29736328,-0.5100708,0.8265991,0.359375,0.53125,-0.125
1664934276262,-0.29516602,-0.5117798,0.83636475,0.734375,0.734375,-0.125
1664934276298,-0.3010254,-0.5142212,0.8295288,-0.171875,0.453125,-0.125
1664934276341,-0.30297852,-0.5076294,0.8336792,0.375,0.796875,-0.40625
1664934276373,-0.2944336,-0.5130005,0.8319702,0.40625,0.703125,-0.03125
1664934276419,-0.30029297,-0.51226807,0.82806396,-0.171875,0.703125,-0.0625
1664934276453,-0.2998047,-0.5095825,0.83270264,0.75,0.859375,-0.109375
1664934276498,-0.30126953,-0.506897,0.83099365,0.203125,0.3125,-0.171875
1664934276532,-0.2919922,-0.520813,0.8295288,1.09375,0.9375,-0.25
1664934276578,-0.29858398,-0.5005493,0.8439331,1.28125,0.609375,0.0625
1664934276621,-0.3005371,-0.5108032,0.824646,-0.6875,0.703125,0.0625
1664934276656,-0.29760742,-0.51519775,0.82562256,-2.1875,-0.125,-0.515625
1664934276701,-0.28466797,-0.505188,0.84295654,1.328125,1.359375,-0.328125
1664934276735,-0.296875,-0.50860596,0.836853,0.40625,1.03125,0.0625
1664934276793,-0.29760742,-0.503479,0.8378296,-0.21875,1.28125,0.015625
1664934276826,-0.2939453,-0.5137329,0.836853,0.546875,0.375,-0.125
1664934276858,-0.29467773,-0.5083618,0.8414917,0.03125,0.65625,-0.3125
1664934276892,-0.28979492,-0.5095825,0.83148193,1.015625,0.90625,-0.0625
1664934276940,-0.29077148,-0.5059204,0.83392334,-0.078125,0.78125,-0.078125
1664934276972,-0.296875,-0.5005493,0.84124756,-0.03125,0.71875,-0.1875
1664934277028,-0.2915039,-0.5076294,0.8410034,1.015625,0.96875,0.0
1664934277051,-0.28515625,-0.5064087,0.83392334,0.375,0.90625,-0.171875
1664934277095,-0.28051758,-0.5081177,0.8319702,0.359375,1.28125,-0.125
1664934277130,-0.29077148,-0.5081177,0.83392334,0.21875,0.5625,0.09375
1664934277174,-0.2919922,-0.50909424,0.8397827,0.609375,0.984375,-0.015625
1664934277207,-0.29003906,-0.50567627,0.840271,0.5,1.078125,-0.265625
1664934277253,-0.29052734,-0.5081177,0.8383179,0.4375,1.3125,-0.1875
1664934277286,-0.2861328,-0.50860596,0.8410034,0.6875,0.796875,0.09375
1664934277344,-0.28442383,-0.5071411,0.83465576,0.75,0.671875,0.03125
1664934277366,-0.2783203,-0.5132446,0.8373413,0.71875,0.6875,-0.109375
1664934277411,-0.2902832,-0.50445557,0.840271,0.546875,0.5,-0.171875
1664934277444,-0.28833008,-0.5093384,0.836853,0.953125,0.265625,-0.140625
1664934277488,-0.28149414,-0.5105591,0.8407593,1.109375,0.46875,-0.109375
1664934277523,-0.2854004,-0.51885986,0.83514404,0.734375,0.046875,-0.109375
1664934277567,-0.28442383,-0.50860596,0.8410034,1.1875,-0.078125,-0.140625
1664934277599,-0.27612305,-0.5095825,0.8366089,-0.078125,-0.5,-0.234375
1664934277647,-0.29589844,-0.5100708,0.8410034,2.109375,-0.03125,0.21875
1664934277681,-0.2861328,-0.517395,0.8270874,-0.65625,-0.84375,-0.015625
1664934277724,-0.29125977,-0.5081177,0.83343506,-0.859375,-0.984375,-0.4375
1664934277759,-0.2841797,-0.519104,0.8378296,1.203125,0.609375,-0.046875
1664934277803,-0.29077148,-0.50616455,0.83099365,-0.375,-0.09375,0.015625
1664934277850,-0.29467773,-0.51519775,0.8348999,0.03125,0.125,-0.09375
1664934277883,-0.29077148,-0.5195923,0.8331909,1.0,-0.25,-0.140625
1664934277917,-0.2932129,-0.5059204,0.8383179,0.65625,-0.390625,-0.0625
1664934277961,-0.2890625,-0.5137329,0.8290405,1.375,0.03125,0.234375
1664934277996,-0.2915039,-0.51348877,0.8324585,0.453125,-0.40625,0.09375
1664934278069,-0.29296875,-0.5137329,0.83758545,0.59375,0.015625,0.03125
1664934278075,-0.2919922,-0.51226807,0.83026123,1.40625,-0.203125,0.03125
1664934278119,-0.2944336,-0.51446533,0.8239136,-0.15625,-0.53125,-0.15625
1664934278155,-0.29589844,-0.5132446,0.8361206,0.203125,-0.4375,0.015625
1664934278198,-0.2939453,-0.51104736,0.83099365,0.40625,-0.1875,-0.078125
1664934278233,-0.29345703,-0.5142212,0.8287964,0.8125,-0.375,-0.15625
1664934278275,-0.29760742,-0.517395,0.8307495,0.3125,0.0,-0.0625
1664934278312,-0.29907227,-0.5186157,0.82440186,-0.15625,-0.171875,-0.015625
1664934278365,-0.29736328,-0.51568604,0.8287964,0.515625,-0.09375,-0.25
1664934278390,-0.30444336,-0.5130005,0.8270874,0.546875,0.078125,-0.21875
1664934278435,-0.29663086,-0.51519775,0.8290405,0.0625,-0.09375,-0.28125
1664934278470,-0.29833984,-0.5093384,0.82806396,1.125,-0.171875,0.125
1664934278512,-0.30249023,-0.51934814,0.8283081,0.09375,-0.34375,0.09375
1664934278545,-0.3005371,-0.5130005,0.822937,-0.203125,-0.390625,-0.15625
