# Sensor type: Thingy
# Activity type: Standing
# Activity code: 100
# Subject id: s1912575
# Notes: 
timestamp,accel_x,accel_y,accel_z,gyro_x,gyro_y,gyro_z,mag_x,mag_y,mag_z
1664934788461,-0.984375,0.12597656,0.15136719,-0.375,-1.09375,0.1875,0.0,0.0,0.0
1664934788478,-0.9794922,0.13476562,0.1484375,0.8125,0.0625,-0.28125,0.0,0.0,0.0
1664934788521,-0.9863281,0.13574219,0.15527344,-0.71875,-1.03125,-0.21875,0.0,0.0,0.0
1664934788568,-0.97558594,0.12988281,0.14746094,-0.59375,0.0625,-0.15625,-77.875,14.5625,-144.5
1664934788614,-0.9716797,0.13574219,0.13183594,-0.125,-0.59375,0.125,0.0,0.0,0.0
1664934788636,-0.98535156,0.13574219,0.16015625,-0.0625,0.5625,-0.09375,0.0,0.0,0.0
1664934788681,-0.97753906,0.125,0.14257812,0.5,-0.34375,-0.40625,0.0,0.0,0.0
1664934788726,-0.9863281,0.13085938,0.16308594,-0.3125,-0.125,-0.46875,0.0,0.0,0.0
1664934788771,-0.9814453,0.12792969,0.15527344,0.5625,-0.34375,0.03125,0.0,0.0,0.0
1664934788838,-0.9814453,0.13476562,0.15917969,0.625,-0.125,-0.40625,0.0,0.0,0.0
1664934788840,-0.9814453,0.13671875,0.15527344,-0.125,0.0625,-0.15625,0.0,0.0,0.0
1664934788885,-0.9873047,0.13085938,0.16601562,0.90625,-0.125,-0.40625,0.0,0.0,0.0
1664934788930,-0.9824219,0.13574219,0.15625,0.375,0.3125,0.125,0.0,0.0,0.0
1664934788971,-0.97753906,0.14550781,0.15332031,-0.53125,0.125,-0.40625,0.0,0.0,0.0
1664934788994,-0.98339844,0.12890625,0.15917969,-0.5,0.4375,0.375,0.0,0.0,0.0
1664934789040,-0.9873047,0.13476562,0.15234375,-0.0625,-0.3125,-0.15625,-77.125,13.8125,-144.9375
1664934789086,-0.9746094,0.13378906,0.15429688,-0.0625,-0.125,0.03125,0.0,0.0,0.0
1664934789130,-0.98535156,0.13183594,0.14941406,0.75,0.0625,-0.09375,0.0,0.0,0.0
1664934789173,-0.9814453,0.13671875,0.14648438,0.1875,-0.125,-0.03125,0.0,0.0,0.0
1664934789197,-0.984375,0.13476562,0.15039062,-0.90625,-0.125,-0.09375,0.0,0.0,0.0
1664934789243,-0.9785156,0.1328125,0.15625,-0.0625,0.1875,-0.40625,0.0,0.0,0.0
1664934789287,-0.9863281,0.13183594,0.14746094,0.25,-0.46875,-0.15625,0.0,0.0,0.0
1664934789332,-0.9824219,0.13476562,0.15722656,-0.5,-0.125,-0.03125,0.0,0.0,0.0
1664934789355,-0.98046875,0.13378906,0.14746094,-0.375,-0.125,0.0625,0.0,0.0,0.0
1664934789399,-0.9824219,0.13183594,0.16210938,0.0625,0.625,0.0625,0.0,0.0,0.0
1664934789445,-0.9824219,0.13183594,0.14160156,0.0625,-0.1875,0.03125,0.0,0.0,0.0
1664934789488,-0.984375,0.13085938,0.14453125,0.125,0.1875,-0.09375,0.0,0.0,0.0
1664934789534,-0.9746094,0.13769531,0.15136719,0.125,-0.53125,-0.09375,0.0,0.0,0.0
1664934789557,-0.9814453,0.12695312,0.15136719,-1.15625,0.5,0.375,-76.9375,14.4375,-146.4375
1664934789600,-0.9873047,0.13085938,0.15527344,0.1875,1.09375,0.125,0.0,0.0,0.0
1664934789649,-0.96875,0.12890625,0.15527344,-0.59375,-0.71875,-0.03125,0.0,0.0,0.0
1664934789692,-0.98828125,0.13671875,0.16015625,-0.1875,0.1875,-0.03125,0.0,0.0,0.0
1664934789715,-0.9824219,0.13183594,0.15429688,-0.375,-0.25,-0.03125,0.0,0.0,0.0
1664934789760,-0.97265625,0.13476562,0.15332031,-0.375,0.25,0.25,0.0,0.0,0.0
1664934789804,-0.98828125,0.123046875,0.14746094,-0.78125,-0.0625,0.0625,0.0,0.0,0.0
1664934789848,-0.98535156,0.13085938,0.1484375,0.4375,0.125,-0.34375,0.0,0.0,0.0
1664934789894,-0.97265625,0.1328125,0.14160156,-0.25,-0.34375,-0.09375,0.0,0.0,0.0
1664934789916,-0.97558594,0.13769531,0.16015625,-0.53125,-0.46875,0.125,0.0,0.0,0.0
1664934789963,-0.98046875,0.12890625,0.15429688,-1.875,1.65625,0.875,0.0,0.0,0.0
1664934790007,-0.9902344,0.123046875,0.1484375,-0.25,0.1875,0.125,0.0,0.0,0.0
1664934790052,-0.97265625,0.1328125,0.14941406,0.25,-1.15625,-0.40625,-76.5,15.1875,-145.125
1664934790076,-0.9824219,0.12597656,0.15234375,-1.28125,0.9375,0.25,0.0,0.0,0.0
1664934790119,-0.9824219,0.12988281,0.15625,-0.125,0.25,0.1875,0.0,0.0,0.0
1664934790165,-0.9794922,0.13378906,0.15625,0.375,-0.1875,0.0625,0.0,0.0,0.0
1664934790210,-0.97558594,0.12988281,0.13574219,-0.25,0.4375,0.0625,0.0,0.0,0.0
1664934790255,-0.9892578,0.13476562,0.14550781,-0.1875,-0.40625,-0.15625,0.0,0.0,0.0
1664934790278,-0.984375,0.13476562,0.140625,-0.375,0.0,0.0625,0.0,0.0,0.0
1664934790332,-0.98339844,0.13574219,0.13964844,0.0,0.8125,0.0625,0.0,0.0,0.0
1664934790365,-0.9824219,0.12792969,0.15136719,-0.5,0.0625,0.03125,0.0,0.0,0.0
1664934790411,-0.98339844,0.125,0.15429688,0.1875,-0.34375,0.0625,0.0,0.0,0.0
1664934790434,-0.9873047,0.12695312,0.14453125,0.3125,-0.3125,0.03125,0.0,0.0,0.0
1664934790479,-0.9873047,0.13769531,0.13964844,0.4375,-0.3125,-0.21875,0.0,0.0,0.0
1664934790524,-0.98535156,0.13183594,0.16015625,0.125,0.4375,0.25,0.0,0.0,0.0
1664934790570,-0.98046875,0.13085938,0.15039062,-0.25,0.0,-0.03125,-78.3125,15.5,-144.625
1664934790615,-0.9746094,0.13964844,0.15136719,-0.0625,-0.0625,0.125,0.0,0.0,0.0
1664934790637,-0.9794922,0.140625,0.15917969,0.6875,-0.25,-0.21875,0.0,0.0,0.0
1664934790682,-0.9794922,0.13671875,0.15722656,-0.125,-0.125,-0.15625,0.0,0.0,0.0
1664934790727,-0.9824219,0.13574219,0.15039062,-0.65625,-0.3125,-0.09375,0.0,0.0,0.0
1664934790773,-0.9814453,0.13867188,0.15136719,0.5625,0.0625,-0.09375,0.0,0.0,0.0
1664934790793,-0.98339844,0.12695312,0.15332031,0.3125,0.125,0.125,0.0,0.0,0.0
1664934790840,-0.98828125,0.14257812,0.13574219,-0.125,-0.46875,-0.09375,0.0,0.0,0.0
1664934790883,-0.9667969,0.12890625,0.16699219,0.375,-0.34375,-0.09375,0.0,0.0,0.0
1664934790930,-0.9785156,0.13183594,0.140625,-0.5,-0.0625,0.125,0.0,0.0,0.0
1664934790974,-0.9824219,0.13964844,0.16699219,-0.0625,0.375,0.0625,0.0,0.0,0.0
1664934790997,-0.9794922,0.13476562,0.14257812,-0.90625,-0.25,-0.03125,0.0,0.0,0.0
1664934791042,-0.9785156,0.13574219,0.15820312,-0.4375,0.3125,0.125,-77.375,13.25,-145.5625
1664934791087,-0.9794922,0.12988281,0.14550781,-0.125,-0.46875,-0.40625,0.0,0.0,0.0
1664934791133,-0.98828125,0.13769531,0.15332031,0.1875,0.125,-0.15625,0.0,0.0,0.0
1664934791153,-0.98535156,0.13378906,0.15820312,0.375,-0.0625,-0.21875,0.0,0.0,0.0
1664934791203,-0.98535156,0.12695312,0.15820312,-0.3125,-0.125,-0.40625,0.0,0.0,0.0
1664934791245,-0.97265625,0.14550781,0.14160156,-0.125,0.0625,-0.65625,0.0,0.0,0.0
1664934791290,-0.9863281,0.12792969,0.16210938,-0.0625,0.5,0.125,0.0,0.0,0.0
1664934791312,-0.98339844,0.13085938,0.14941406,-0.0625,-0.53125,-0.15625,0.0,0.0,0.0
1664934791357,-0.9746094,0.12695312,0.15527344,-0.3125,0.25,-0.15625,0.0,0.0,0.0
1664934791403,-0.98046875,0.13085938,0.14648438,0.625,-0.46875,-0.28125,0.0,0.0,0.0
1664934791450,-0.9765625,0.12011719,0.16113281,-0.0625,0.0625,-0.09375,0.0,0.0,0.0
1664934791492,-0.9736328,0.12890625,0.14160156,0.25,0.4375,-0.34375,0.0,0.0,0.0
1664934791514,-0.98339844,0.13769531,0.15234375,0.625,-0.46875,-0.28125,0.0,0.0,0.0
1664934791560,-0.9746094,0.13183594,0.16699219,0.125,-0.0625,-0.03125,-77.875,14.5625,-144.5
1664934791604,-0.98535156,0.13769531,0.15332031,0.3125,0.0,-0.15625,0.0,0.0,0.0
1664934791652,-0.9824219,0.13183594,0.1484375,-0.1875,0.0625,-0.21875,0.0,0.0,0.0
1664934791671,-0.9794922,0.13085938,0.15722656,-0.375,0.75,0.125,0.0,0.0,0.0
1664934791716,-0.98046875,0.119140625,0.1484375,-0.3125,-0.1875,-0.34375,0.0,0.0,0.0
1664934791762,-0.9873047,0.14355469,0.14941406,-0.0625,0.375,-0.03125,0.0,0.0,0.0
1664934791807,-0.9794922,0.13476562,0.15625,-0.25,-0.40625,-0.15625,0.0,0.0,0.0
1664934791852,-0.9765625,0.12207031,0.13769531,-0.125,-0.25,0.03125,0.0,0.0,0.0
1664934791874,-0.9824219,0.13183594,0.14257812,-0.0625,0.5625,0.03125,0.0,0.0,0.0
1664934791920,-0.97753906,0.13085938,0.13574219,-0.0625,0.625,-0.09375,0.0,0.0,0.0
1664934791968,-0.98535156,0.13085938,0.15136719,-0.25,0.0,0.03125,0.0,0.0,0.0
1664934792008,-0.98828125,0.125,0.14941406,0.0625,-0.40625,-0.09375,0.0,0.0,0.0
1664934792054,-0.98828125,0.12792969,0.14941406,-0.125,0.3125,-0.03125,-76.5,14.4375,-145.125
1664934792076,-0.9814453,0.13574219,0.15332031,0.375,-0.3125,-0.28125,0.0,0.0,0.0
1664934792122,-0.9814453,0.12988281,0.15722656,0.125,-0.1875,0.1875,0.0,0.0,0.0
1664934792167,-0.9785156,0.12890625,0.15332031,0.25,0.8125,0.25,0.0,0.0,0.0
1664934792215,-0.98339844,0.12597656,0.14453125,0.125,-0.71875,-0.46875,0.0,0.0,0.0
1664934792236,-0.9794922,0.13867188,0.15332031,0.5625,0.9375,-0.15625,0.0,0.0,0.0
1664934792280,-0.98046875,0.13378906,0.14453125,-0.5,-0.25,0.25,0.0,0.0,0.0
1664934792324,-0.9873047,0.1328125,0.15136719,-0.3125,-0.1875,-0.21875,0.0,0.0,0.0
1664934792371,-0.9814453,0.13085938,0.15429688,-0.1875,-0.1875,0.0625,0.0,0.0,0.0
1664934792391,-0.98535156,0.140625,0.15136719,-0.1875,0.3125,0.125,0.0,0.0,0.0
1664934792460,-0.9863281,0.13574219,0.16308594,-0.90625,-0.0625,0.03125,0.0,0.0,0.0
1664934792483,-0.98046875,0.13183594,0.16601562,0.25,0.3125,0.03125,0.0,0.0,0.0
1664934792528,-0.9746094,0.13378906,0.14648438,-0.125,-0.0625,0.25,0.0,0.0,0.0
1664934792572,-0.9814453,0.13183594,0.140625,-0.53125,-0.125,0.3125,-78.0,13.6875,-144.0625
1664934792598,-0.9794922,0.12597656,0.13769531,0.25,0.1875,0.03125,0.0,0.0,0.0
1664934792640,-0.984375,0.13671875,0.15234375,-0.0625,-0.40625,0.03125,0.0,0.0,0.0
1664934792683,-0.9863281,0.13183594,0.15917969,-0.125,0.375,-0.09375,0.0,0.0,0.0
1664934792731,-0.9794922,0.13183594,0.14355469,-0.1875,0.0625,0.03125,0.0,0.0,0.0
1664934792753,-0.9794922,0.13183594,0.14550781,0.5,-0.125,-0.15625,0.0,0.0,0.0
1664934792798,-0.9794922,0.12988281,0.14746094,-0.3125,-0.125,0.125,0.0,0.0,0.0
1664934792849,-0.9765625,0.13183594,0.1484375,-0.25,0.125,0.1875,0.0,0.0,0.0
1664934792886,-0.98339844,0.13964844,0.15136719,0.5625,-0.3125,0.125,0.0,0.0,0.0
1664934792932,-0.9707031,0.13671875,0.14453125,0.0625,0.1875,0.25,0.0,0.0,0.0
1664934792954,-0.97265625,0.12792969,0.16210938,0.125,-0.125,-0.09375,0.0,0.0,0.0
1664934793000,-0.9863281,0.12792969,0.14160156,0.25,-0.1875,0.03125,0.0,0.0,0.0
1664934793045,-0.9863281,0.13769531,0.14941406,-0.25,0.0625,-0.03125,-78.125,14.5625,-144.5
1664934793089,-0.98046875,0.13964844,0.15429688,0.25,0.1875,0.03125,0.0,0.0,0.0
1664934793111,-0.9746094,0.13574219,0.14453125,-0.125,-0.25,0.03125,0.0,0.0,0.0
1664934793160,-0.9794922,0.13183594,0.14257812,-0.125,0.25,-0.09375,0.0,0.0,0.0
1664934793201,-0.97558594,0.12890625,0.14453125,-0.1875,-0.25,0.03125,0.0,0.0,0.0
1664934793247,-0.9814453,0.12890625,0.15429688,0.0,0.1875,0.0625,0.0,0.0,0.0
1664934793292,-0.98339844,0.14160156,0.15039062,-0.25,0.0,-0.09375,0.0,0.0,0.0
1664934793315,-0.9794922,0.12695312,0.15039062,-0.71875,0.5,0.1875,0.0,0.0,0.0
1664934793362,-0.9765625,0.13085938,0.15332031,0.125,-0.46875,0.03125,0.0,0.0,0.0
1664934793404,-0.98339844,0.13671875,0.14355469,0.3125,-0.0625,0.03125,0.0,0.0,0.0
1664934793450,-0.9873047,0.12890625,0.15625,0.0625,-0.125,-0.28125,0.0,0.0,0.0
1664934793472,-0.98046875,0.13574219,0.14355469,-0.125,-0.3125,-0.28125,0.0,0.0,0.0
1664934793539,-0.9873047,0.12597656,0.15332031,0.3125,0.375,0.0625,0.0,0.0,0.0
1664934793562,-0.98828125,0.12792969,0.15917969,0.1875,0.375,-0.03125,-78.125,15.625,-145.25
1664934793609,-0.98535156,0.13769531,0.13085938,-0.125,-0.53125,-0.21875,0.0,0.0,0.0
1664934793653,-0.97265625,0.12695312,0.15625,-0.3125,-0.0625,-0.28125,0.0,0.0,0.0
1664934793675,-0.9785156,0.13085938,0.1484375,-0.3125,0.375,0.1875,0.0,0.0,0.0
1664934793741,-0.9736328,0.13085938,0.15136719,-0.65625,0.875,0.03125,0.0,0.0,0.0
1664934793765,-0.98046875,0.12695312,0.15136719,-0.1875,-0.46875,-0.40625,0.0,0.0,0.0
1664934793810,-0.9824219,0.140625,0.13964844,0.84375,0.125,-0.21875,0.0,0.0,0.0
1664934793854,-0.97753906,0.14648438,0.14257812,-0.25,-0.78125,-0.09375,0.0,0.0,0.0
1664934793883,-0.9892578,0.12890625,0.15039062,0.25,0.4375,-0.09375,0.0,0.0,0.0
1664934793925,-0.9814453,0.13378906,0.13769531,0.4375,-0.34375,-0.15625,0.0,0.0,0.0
1664934793968,-0.98339844,0.13378906,0.14941406,-0.125,0.5,0.03125,0.0,0.0,0.0
1664934794012,-0.9785156,0.1328125,0.14550781,-0.25,-0.25,-0.28125,0.0,0.0,0.0
1664934794034,-0.9824219,0.14648438,0.14746094,-0.3125,0.125,0.03125,-77.25,15.5,-144.0625
1664934794080,-0.9736328,0.13183594,0.17675781,-0.3125,0.375,-0.15625,0.0,0.0,0.0
1664934794124,-0.96972656,0.13085938,0.1484375,0.0,-0.125,-0.15625,0.0,0.0,0.0
1664934794171,-0.9794922,0.12597656,0.15527344,0.25,0.25,0.03125,0.0,0.0,0.0
1664934794191,-0.9765625,0.14257812,0.14746094,0.3125,-0.65625,-0.21875,0.0,0.0,0.0
1664934794237,-0.98828125,0.13769531,0.14941406,0.4375,-0.25,-0.28125,0.0,0.0,0.0
1664934794282,-0.9785156,0.13574219,0.16699219,0.0,0.25,0.125,0.0,0.0,0.0
1664934794327,-0.9736328,0.13183594,0.15625,0.375,-0.1875,-0.21875,0.0,0.0,0.0
1664934794395,-0.9863281,0.13378906,0.15234375,-0.1875,0.3125,-0.34375,0.0,0.0,0.0
1664934794397,-0.9892578,0.13378906,0.140625,0.0,0.0,-0.09375,0.0,0.0,0.0
1664934794462,-0.9873047,0.13183594,0.14355469,-0.0625,0.125,-0.28125,0.0,0.0,0.0
1664934794486,-0.984375,0.13183594,0.14941406,-0.3125,-0.65625,-0.28125,0.0,0.0,0.0
1664934794530,-0.9707031,0.12695312,0.16015625,0.0625,1.03125,0.125,0.0,0.0,0.0
1664934794575,-0.98046875,0.1328125,0.14648438,-0.1875,-0.96875,-0.3125,-77.25,15.1875,-144.375
1664934794604,-0.9794922,0.12792969,0.14550781,0.375,0.5625,-0.0625,0.0,0.0,0.0
1664934794643,-0.9814453,0.1328125,0.14941406,0.1875,-0.1875,0.4375,0.0,0.0,0.0
1664934794688,-0.98339844,0.13378906,0.13964844,-0.125,-0.4375,-0.125,0.0,0.0,0.0
1664934794736,-0.97753906,0.14257812,0.15429688,-0.5,-0.0625,0.1875,0.0,0.0,0.0
1664934794780,-0.9746094,0.13183594,0.13964844,0.125,0.1875,0.0625,0.0,0.0,0.0
1664934794800,-0.98339844,0.12890625,0.13964844,-0.96875,0.0,0.3125,0.0,0.0,0.0
1664934794846,-0.9863281,0.1328125,0.16601562,0.125,0.4375,0.0,0.0,0.0,0.0
1664934794889,-0.9873047,0.12792969,0.140625,0.0,-0.0625,0.125,0.0,0.0,0.0
1664934794912,-0.9824219,0.13378906,0.1484375,-0.65625,-0.625,0.0,0.0,0.0,0.0
1664934794957,-0.97558594,0.13769531,0.16796875,0.5625,0.125,-0.0625,0.0,0.0,0.0
1664934795005,-0.9863281,0.13085938,0.13671875,0.1875,0.0,0.125,0.0,0.0,0.0
1664934795049,-0.9785156,0.13671875,0.14941406,-0.125,-0.4375,0.0625,-80.125,12.9375,-144.375
1664934795117,-0.9814453,0.13867188,0.15625,0.125,0.125,-0.1875,0.0,0.0,0.0
1664934795119,-0.98046875,0.12890625,0.15625,0.0625,0.125,-0.0625,0.0,0.0,0.0
1664934795162,-0.9824219,0.13867188,0.14941406,-0.78125,-0.25,0.4375,0.0,0.0,0.0
1664934795207,-0.9863281,0.13378906,0.15039062,0.25,0.375,0.125,0.0,0.0,0.0
1664934795251,-0.9892578,0.13574219,0.14453125,-0.71875,0.25,0.3125,0.0,0.0,0.0
1664934795273,-0.984375,0.12402344,0.15722656,-0.65625,0.0625,0.25,0.0,0.0,0.0
1664934795319,-0.97558594,0.1328125,0.14160156,0.5,0.0,0.125,0.0,0.0,0.0
1664934795386,-0.97558594,0.12890625,0.15917969,0.1875,-0.3125,0.25,0.0,0.0,0.0
1664934795407,-0.96875,0.13671875,0.13769531,-0.5625,-0.0625,-0.1875,0.0,0.0,0.0
1664934795454,-0.98046875,0.13183594,0.15917969,-0.625,0.0625,0.4375,0.0,0.0,0.0
1664934795498,-0.9814453,0.13183594,0.15429688,-0.1875,-0.0625,0.0625,0.0,0.0,0.0
1664934795522,-0.98535156,0.140625,0.15429688,0.84375,-0.125,-0.1875,0.0,0.0,0.0
1664934795565,-0.9794922,0.125,0.1484375,-0.4375,-0.0625,0.25,-76.1875,14.125,-144.625
1664934795610,-0.9794922,0.13769531,0.15527344,-0.375,0.25,0.1875,0.0,0.0,0.0
1664934795633,-0.9824219,0.12695312,0.15625,-0.125,0.0625,0.1875,0.0,0.0,0.0
1664934795679,-0.9785156,0.13085938,0.15527344,-0.25,0.1875,0.3125,0.0,0.0,0.0
1664934795721,-0.984375,0.12792969,0.15136719,0.125,0.3125,0.0625,0.0,0.0,0.0
1664934795766,-0.9746094,0.14355469,0.15527344,0.0,-0.5625,-0.1875,0.0,0.0,0.0
1664934795812,-0.9785156,0.12695312,0.15625,-0.5625,0.125,0.3125,0.0,0.0,0.0
1664934795835,-0.97558594,0.13476562,0.15332031,-0.0625,0.5625,0.0,0.0,0.0,0.0
1664934795881,-0.9814453,0.14257812,0.15332031,0.125,-0.1875,0.0,0.0,0.0,0.0
1664934795925,-0.97558594,0.14160156,0.15820312,0.25,0.1875,-0.0625,0.0,0.0,0.0
1664934795971,-0.97753906,0.13183594,0.15332031,-0.3125,0.0625,0.0625,0.0,0.0,0.0
1664934795993,-0.9814453,0.12890625,0.15429688,-0.5625,0.5,0.4375,0.0,0.0,0.0
1664934796040,-0.9824219,0.13867188,0.16113281,-0.5,0.0625,0.0625,-79.375,14.4375,-144.625
1664934796084,-0.97753906,0.1328125,0.14257812,0.4375,-0.5625,-0.46875,0.0,0.0,0.0
1664934796128,-0.9863281,0.13378906,0.14160156,-0.125,-0.3125,0.0,0.0,0.0,0.0
1664934796174,-0.9716797,0.1328125,0.14941406,-0.125,-0.0625,0.0625,0.0,0.0,0.0
1664934796196,-0.9794922,0.123046875,0.14550781,0.0625,0.3125,-0.1875,0.0,0.0,0.0
1664934796241,-0.98339844,0.14355469,0.16015625,-0.3125,0.0,-0.125,0.0,0.0,0.0
1664934796309,-0.9765625,0.12597656,0.15722656,-0.78125,0.0625,0.1875,0.0,0.0,0.0
1664934796330,-0.9794922,0.13867188,0.15722656,-0.1875,0.0,-0.25,0.0,0.0,0.0
1664934796352,-0.9746094,0.13867188,0.16210938,-0.1875,0.0,0.0625,0.0,0.0,0.0
1664934796399,-0.9873047,0.13085938,0.15917969,-0.71875,0.0,0.25,0.0,0.0,0.0
1664934796445,-0.9814453,0.12988281,0.14746094,-0.1875,-0.4375,-0.25,0.0,0.0,0.0
1664934796517,-0.98339844,0.12207031,0.140625,0.1875,-0.125,0.125,0.0,0.0,0.0
1664934796531,-0.98339844,0.12988281,0.15527344,-0.125,-0.25,-0.1875,0.0,0.0,0.0
1664934796554,-0.98339844,0.12695312,0.13574219,0.0625,-0.25,-0.3125,-78.0,15.1875,-144.625
1664934796600,-0.9824219,0.12792969,0.171875,-0.0625,-0.0625,-0.1875,0.0,0.0,0.0
1664934796646,-0.97753906,0.1328125,0.14550781,-0.25,0.25,-0.125,0.0,0.0,0.0
1664934796693,-0.97753906,0.13574219,0.14257812,-0.1875,0.25,-0.1875,0.0,0.0,0.0
1664934796712,-0.984375,0.13476562,0.15722656,-0.125,-0.4375,-0.3125,0.0,0.0,0.0
1664934796757,-0.9765625,0.13671875,0.14941406,-0.3125,0.84375,0.1875,0.0,0.0,0.0
1664934796804,-0.9863281,0.13476562,0.14257812,0.125,-0.1875,-0.125,0.0,0.0,0.0
1664934796849,-0.9892578,0.13476562,0.1484375,-0.0625,0.3125,0.0625,0.0,0.0,0.0
1664934796893,-0.9746094,0.12792969,0.14648438,0.0,-0.3125,-0.46875,0.0,0.0,0.0
1664934796916,-0.98046875,0.13671875,0.15136719,0.78125,-0.4375,-0.34375,0.0,0.0,0.0
1664934796961,-0.96972656,0.1328125,0.14648438,-0.4375,0.3125,0.125,0.0,0.0,0.0
1664934797028,-0.9736328,0.12890625,0.1484375,-0.65625,-0.0625,-0.25,0.0,0.0,0.0
1664934797051,-0.97265625,0.12792969,0.14355469,0.375,0.1875,-0.125,-78.0,14.75,-145.375
1664934797073,-0.98046875,0.13867188,0.14453125,-0.5625,0.0625,0.3125,0.0,0.0,0.0
1664934797120,-0.9794922,0.14355469,0.15039062,-0.0625,0.1875,-0.0625,0.0,0.0,0.0
1664934797165,-0.97753906,0.13183594,0.14648438,-0.125,-0.25,0.0,0.0,0.0,0.0
1664934797232,-0.97753906,0.12597656,0.1484375,-0.125,0.1875,-0.0625,0.0,0.0,0.0
1664934797255,-0.98535156,0.12695312,0.13964844,-0.1875,0.0625,0.0,0.0,0.0,0.0
1664934797275,-0.98339844,0.13769531,0.14160156,0.625,0.25,0.0,0.0,0.0,0.0
1664934797321,-0.9716797,0.12890625,0.16308594,-0.71875,-0.1875,-0.0625,0.0,0.0,0.0
1664934797366,-0.9794922,0.13574219,0.15234375,-0.125,0.125,-0.0625,0.0,0.0,0.0
1664934797409,-0.9794922,0.12988281,0.15625,-0.1875,0.5,0.25,0.0,0.0,0.0
1664934797432,-0.9814453,0.12597656,0.14453125,-0.375,-0.125,0.0,0.0,0.0,0.0
1664934797477,-0.98828125,0.12792969,0.15722656,-0.125,-0.0625,0.0,0.0,0.0,0.0
1664934797522,-0.9794922,0.13671875,0.14746094,0.5625,-0.125,-0.1875,0.0,0.0,0.0
1664934797570,-0.9765625,0.13867188,0.15917969,-0.25,-0.125,0.1875,-77.5625,13.375,-145.125
1664934797614,-0.97753906,0.1328125,0.14746094,0.25,0.3125,0.0,0.0,0.0,0.0
1664934797635,-0.9863281,0.13183594,0.15136719,-0.375,-0.125,0.0625,0.0,0.0,0.0
1664934797681,-0.9765625,0.12988281,0.15332031,-0.0625,-0.125,-0.1875,0.0,0.0,0.0
1664934797727,-0.9785156,0.13867188,0.14550781,0.5,-0.1875,0.125,0.0,0.0,0.0
1664934797771,-0.9746094,0.1328125,0.16015625,-0.78125,0.3125,0.25,0.0,0.0,0.0
1664934797794,-0.97558594,0.13476562,0.15234375,-0.125,0.0,-0.0625,0.0,0.0,0.0
1664934797840,-0.9873047,0.13769531,0.14648438,0.1875,0.3125,0.0625,0.0,0.0,0.0
1664934797885,-0.9873047,0.13183594,0.15136719,0.1875,0.125,-0.0625,0.0,0.0,0.0
1664934797950,-0.9785156,0.13476562,0.13671875,0.25,-0.0625,0.0625,0.0,0.0,0.0
1664934797974,-0.98828125,0.13476562,0.15234375,-0.65625,0.0625,0.0625,0.0,0.0,0.0
1664934797996,-0.98046875,0.13769531,0.14648438,0.3125,0.0,-0.125,0.0,0.0,0.0
1664934798042,-0.9765625,0.13574219,0.14550781,-0.25,-0.4375,0.125,-77.125,13.5625,-145.25
1664934798088,-0.9785156,0.12695312,0.15722656,-0.125,0.5625,-0.0625,0.0,0.0,0.0
1664934798153,-0.9794922,0.13574219,0.15332031,0.1875,-0.25,-0.125,0.0,0.0,0.0
1664934798154,-0.9716797,0.13574219,0.15625,0.125,0.3125,0.125,0.0,0.0,0.0
1664934798198,-0.9707031,0.12792969,0.14257812,-0.65625,-0.25,0.4375,0.0,0.0,0.0
1664934798242,-0.98339844,0.125,0.15429688,-0.0625,0.0625,0.125,0.0,0.0,0.0
1664934798286,-0.9785156,0.12890625,0.14746094,0.1875,0.4375,0.125,0.0,0.0,0.0
1664934798331,-0.97265625,0.140625,0.140625,0.0,0.0,0.0625,0.0,0.0,0.0
1664934798355,-0.9716797,0.13476562,0.15332031,-0.1875,0.3125,0.25,0.0,0.0,0.0
1664934798400,-0.9765625,0.13867188,0.140625,-0.25,-0.0625,0.0625,0.0,0.0,0.0
1664934798446,-0.9794922,0.14160156,0.14453125,-0.0625,0.25,0.125,0.0,0.0,0.0
1664934798490,-0.99121094,0.1328125,0.16210938,0.125,0.15625,0.0625,0.0,0.0,0.0
1664934798514,-0.9814453,0.14453125,0.15722656,0.125,0.09375,0.0625,0.0,0.0,0.0
1664934798559,-0.97558594,0.13085938,0.16015625,0.40625,-0.5625,-0.375,-78.3125,13.6875,-145.375
1664934798602,-0.9765625,0.12988281,0.15332031,0.40625,0.40625,0.1875,0.0,0.0,0.0
1664934798647,-0.9824219,0.13183594,0.14453125,-0.375,0.03125,-0.0625,0.0,0.0,0.0
1664934798673,-0.9765625,0.14355469,0.15527344,0.1875,-0.25,0.0625,0.0,0.0,0.0
1664934798717,-0.9873047,0.140625,0.15234375,-0.125,0.03125,0.1875,0.0,0.0,0.0
1664934798761,-0.9824219,0.13574219,0.1484375,-0.5625,0.65625,0.3125,0.0,0.0,0.0
1664934798804,-0.9746094,0.13085938,0.13769531,-0.625,0.09375,0.1875,0.0,0.0,0.0
1664934798874,-0.9746094,0.12890625,0.16113281,0.84375,-0.25,-0.1875,0.0,0.0,0.0
1664934798877,-0.9814453,0.12890625,0.15332031,-0.25,0.03125,-0.1875,0.0,0.0,0.0
1664934798921,-0.9814453,0.14550781,0.14648438,-0.1875,0.21875,-0.0625,0.0,0.0,0.0
1664934798963,-0.9785156,0.13085938,0.14746094,0.1875,-0.4375,-0.1875,0.0,0.0,0.0
1664934799008,-0.9716797,0.13378906,0.15234375,-0.1875,0.21875,-0.1875,0.0,0.0,0.0
1664934799052,-0.9746094,0.1328125,0.15722656,-0.25,-0.625,-0.1875,-77.5625,13.375,-144.0625
1664934799074,-0.9814453,0.140625,0.1484375,0.71875,-0.03125,-0.3125,0.0,0.0,0.0
1664934799118,-0.97558594,0.1328125,0.15136719,-0.25,0.21875,0.375,0.0,0.0,0.0
1664934799165,-0.9794922,0.12890625,0.15136719,0.125,0.03125,0.0,0.0,0.0,0.0
1664934799211,-0.9892578,0.12402344,0.14648438,0.1875,-0.25,-0.4375,0.0,0.0,0.0
1664934799232,-0.9892578,0.13671875,0.1640625,0.125,0.03125,-0.375,0.0,0.0,0.0
1664934799279,-0.99121094,0.14550781,0.13867188,-0.3125,-0.1875,0.125,0.0,0.0,0.0
1664934799323,-0.97753906,0.13183594,0.15332031,0.0,0.03125,-0.25,0.0,0.0,0.0
1664934799368,-0.984375,0.13476562,0.13964844,-0.125,0.59375,-0.125,0.0,0.0,0.0
1664934799390,-0.9746094,0.12890625,0.15625,-0.5,-0.5625,0.0,0.0,0.0,0.0
1664934799435,-0.98535156,0.13476562,0.14648438,0.25,0.40625,-0.125,0.0,0.0,0.0
1664934799482,-0.9746094,0.13476562,0.14355469,-0.0625,-0.5,-0.1875,0.0,0.0,0.0
1664934799525,-0.9824219,0.13085938,0.15234375,-0.125,0.15625,-0.0625,0.0,0.0,0.0
1664934799594,-0.9746094,0.13085938,0.15234375,-0.4375,0.21875,-0.25,-78.3125,14.125,-145.6875
1664934799596,-0.9785156,0.13671875,0.14453125,0.40625,0.09375,-0.25,0.0,0.0,0.0
1664934799640,-0.9794922,0.14746094,0.15429688,0.125,0.03125,0.125,0.0,0.0,0.0
1664934799683,-0.9765625,0.1328125,0.14648438,0.1875,-0.15625,-0.375,0.0,0.0,0.0
1664934799730,-0.9794922,0.14453125,0.15820312,0.1875,-0.5625,-0.125,0.0,0.0,0.0
1664934799754,-0.98535156,0.14453125,0.15429688,0.34375,0.15625,-0.1875,0.0,0.0,0.0
1664934799797,-0.98339844,0.13769531,0.16113281,-0.1875,-0.25,0.0625,0.0,0.0,0.0
1664934799842,-0.9794922,0.1328125,0.14160156,0.125,0.15625,0.0,0.0,0.0,0.0
1664934799884,-0.9814453,0.12988281,0.15527344,-0.125,0.03125,0.0,0.0,0.0,0.0
1664934799929,-0.9863281,0.12890625,0.15136719,-0.3125,0.03125,-0.125,0.0,0.0,0.0
1664934799951,-0.97265625,0.13476562,0.16894531,-0.375,-0.03125,-0.3125,0.0,0.0,0.0
1664934799996,-0.97753906,0.125,0.15332031,0.34375,-0.15625,-0.1875,0.0,0.0,0.0
1664934800045,-0.9765625,0.13964844,0.15625,-0.4375,0.34375,0.3125,-77.25,14.4375,-145.125
1664934800089,-0.9824219,0.12695312,0.14941406,0.0625,-0.375,-0.1875,0.0,0.0,0.0
1664934800110,-0.9765625,0.13964844,0.16210938,0.59375,0.28125,0.1875,0.0,0.0,0.0
1664934800156,-0.9794922,0.125,0.13867188,-0.4375,0.09375,0.25,0.0,0.0,0.0
1664934800200,-0.97558594,0.13378906,0.140625,0.53125,-0.625,-0.375,0.0,0.0,0.0
1664934800245,-0.98046875,0.13867188,0.14550781,-0.0625,-0.09375,0.125,0.0,0.0,0.0
1664934800314,-0.9785156,0.12988281,0.15429688,-0.6875,0.21875,0.1875,0.0,0.0,0.0
1664934800316,-0.97753906,0.13574219,0.16601562,0.0625,-0.4375,-0.25,0.0,0.0,0.0
1664934800361,-0.9746094,0.12402344,0.14550781,0.40625,0.28125,-0.1875,0.0,0.0,0.0
1664934800404,-0.98535156,0.13574219,0.15234375,-0.4375,-0.09375,0.0,0.0,0.0,0.0
1664934800450,-0.98535156,0.13769531,0.15429688,0.0625,0.28125,-0.125,0.0,0.0,0.0
1664934800471,-0.98828125,0.13476562,0.15625,-0.0625,-0.5625,-0.1875,0.0,0.0,0.0
1664934800516,-0.98828125,0.13378906,0.15722656,0.125,-0.3125,-0.3125,0.0,0.0,0.0
1664934800561,-0.9824219,0.12792969,0.14941406,0.125,-0.03125,-0.25,-78.0,14.125,-145.125
1664934800607,-0.98339844,0.13769531,0.15332031,0.125,-0.625,-0.125,0.0,0.0,0.0
1664934800653,-0.9921875,0.13476562,0.15136719,-0.25,-0.15625,0.25,0.0,0.0,0.0
1664934800673,-0.9873047,0.12890625,0.1328125,-0.5,0.09375,0.0,0.0,0.0,0.0
1664934800718,-0.9765625,0.14648438,0.14941406,-0.125,0.03125,-0.1875,0.0,0.0,0.0
1664934800762,-0.9873047,0.13085938,0.15429688,-0.0625,-0.03125,0.1875,0.0,0.0,0.0
1664934800806,-0.9794922,0.1328125,0.13769531,-0.5625,0.53125,0.40625,0.0,0.0,0.0
1664934800830,-0.9746094,0.1328125,0.15332031,0.46875,-0.03125,-0.375,0.0,0.0,0.0
1664934800898,-0.98339844,0.13769531,0.14746094,0.25,0.03125,0.0,0.0,0.0,0.0
1664934800920,-0.9921875,0.12988281,0.15722656,-0.4375,-0.375,0.125,0.0,0.0,0.0
1664934800965,-0.9814453,0.1328125,0.15820312,0.1875,-0.3125,-0.1875,0.0,0.0,0.0
1664934801010,-0.9873047,0.13671875,0.1484375,0.25,0.34375,0.0,0.0,0.0,0.0
1664934801034,-0.97558594,0.12695312,0.1484375,-0.5625,-0.1875,0.0625,-78.125,13.8125,-144.1875
1664934801078,-0.97753906,0.14257812,0.14160156,-0.0625,-0.15625,-0.25,0.0,0.0,0.0
1664934801123,-0.9765625,0.13769531,0.1484375,-0.5,0.28125,0.0625,0.0,0.0,0.0
1664934801169,-0.9824219,0.1484375,0.13476562,-0.125,-0.15625,0.0625,0.0,0.0,0.0
1664934801193,-0.9765625,0.13183594,0.15820312,0.0,0.03125,0.0625,0.0,0.0,0.0
1664934801235,-0.984375,0.13574219,0.16308594,0.0625,0.65625,0.1875,0.0,0.0,0.0
1664934801282,-0.98535156,0.13964844,0.15917969,-0.0625,-0.625,-0.4375,0.0,0.0,0.0
1664934801327,-0.9785156,0.13476562,0.16015625,-0.25,-0.03125,-0.1875,0.0,0.0,0.0
1664934801371,-0.98535156,0.13769531,0.15136719,-0.5625,0.21875,0.0625,0.0,0.0,0.0
1664934801394,-0.97753906,0.13574219,0.15722656,-0.0625,-0.09375,-0.1875,0.0,0.0,0.0
1664934801439,-0.98535156,0.12988281,0.14355469,-0.5625,-0.1875,0.0625,0.0,0.0,0.0
1664934801484,-0.98046875,0.12890625,0.14453125,-0.25,0.28125,-0.25,0.0,0.0,0.0
1664934801527,-0.98339844,0.13574219,0.14453125,0.65625,-0.75,-0.25,0.0,0.0,0.0
1664934801552,-0.97265625,0.13671875,0.15136719,-0.375,0.40625,0.0,-77.875,14.5625,-144.9375
1664934801594,-0.9716797,0.13378906,0.15136719,-0.1875,-0.5,-0.25,0.0,0.0,0.0
1664934801640,-0.98535156,0.12890625,0.15234375,0.71875,0.59375,-0.0625,0.0,0.0,0.0
1664934801687,-0.9785156,0.1484375,0.15917969,-0.0625,-0.3125,-0.1875,0.0,0.0,0.0
1664934801754,-0.9736328,0.13671875,0.14746094,-0.375,-0.3125,-0.125,0.0,0.0,0.0
1664934801756,-0.9814453,0.125,0.15527344,0.0625,0.46875,-0.125,0.0,0.0,0.0
1664934801799,-0.98535156,0.13964844,0.14648438,0.125,-0.3125,0.0,0.0,0.0,0.0
1664934801841,-0.98339844,0.13378906,0.140625,-0.375,-0.03125,-0.0625,0.0,0.0,0.0
1664934801886,-0.9794922,0.14648438,0.15039062,0.125,-0.25,-0.1875,0.0,0.0,0.0
1664934801909,-0.98046875,0.13476562,0.15429688,-0.375,0.59375,0.125,0.0,0.0,0.0
1664934801954,-0.9814453,0.12597656,0.13769531,-0.1875,-0.4375,-0.0625,0.0,0.0,0.0
1664934801999,-0.9824219,0.12890625,0.14648438,0.25,-0.15625,-0.0625,0.0,0.0,0.0
1664934802045,-0.98046875,0.1328125,0.14746094,0.3125,-0.1875,-0.4375,-77.5625,12.625,-145.375
1664934802113,-0.9765625,0.12890625,0.15820312,-0.5625,0.15625,0.0625,0.0,0.0,0.0
1664934802115,-0.98339844,0.13476562,0.1484375,0.53125,-0.3125,-0.125,0.0,0.0,0.0
1664934802158,-0.9863281,0.12988281,0.1640625,0.25,0.09375,-0.0625,0.0,0.0,0.0
1664934802203,-0.97558594,0.12597656,0.15039062,-0.3125,-0.25,-0.125,0.0,0.0,0.0
1664934802250,-0.97753906,0.13671875,0.14648438,0.1875,-0.1875,-0.25,0.0,0.0,0.0
1664934802271,-0.9785156,0.13867188,0.1640625,0.25,0.53125,0.25,0.0,0.0,0.0
1664934802318,-0.9873047,0.12792969,0.15332031,0.0,-0.4375,-0.0625,0.0,0.0,0.0
1664934802361,-0.98339844,0.13671875,0.15722656,0.46875,0.03125,-0.3125,0.0,0.0,0.0
1664934802406,-0.98339844,0.12792969,0.1484375,-0.0625,-0.375,-0.0625,0.0,0.0,0.0
1664934802452,-0.9863281,0.13183594,0.15332031,0.53125,-0.15625,-0.0625,0.0,0.0,0.0
1664934802475,-0.9794922,0.13867188,0.15820312,0.0,-0.375,-0.25,0.0,0.0,0.0
1664934802518,-0.984375,0.13085938,0.1484375,-0.6875,0.15625,0.0625,0.0,0.0,0.0
1664934802563,-0.9794922,0.13183594,0.14941406,-0.0625,-0.1875,-0.125,-78.0,14.75,-144.0625
1664934802609,-0.98046875,0.12792969,0.14941406,-0.0625,0.09375,0.125,0.0,0.0,0.0
1664934802632,-0.9716797,0.13085938,0.15527344,0.0,-0.5,-0.25,0.0,0.0,0.0
1664934802676,-0.98535156,0.12792969,0.13769531,0.25,0.34375,-0.25,0.0,0.0,0.0
1664934802719,-0.984375,0.1328125,0.13867188,0.3125,-0.5625,-0.1875,0.0,0.0,0.0
1664934802764,-0.97558594,0.13378906,0.1484375,0.3125,-0.375,-0.5,0.0,0.0,0.0
1664934802809,-0.97753906,0.12890625,0.15820312,-0.6875,-0.15625,-0.0625,0.0,0.0,0.0
1664934802831,-0.98339844,0.13183594,0.14355469,0.0625,0.21875,-0.0625,0.0,0.0,0.0
1664934802876,-0.9785156,0.14160156,0.14746094,0.53125,-0.15625,-0.0625,0.0,0.0,0.0
1664934802924,-0.98828125,0.14160156,0.15429688,0.34375,-0.15625,-0.125,0.0,0.0,0.0
1664934802968,-0.97558594,0.12988281,0.1484375,-0.5,-0.25,-0.0625,0.0,0.0,0.0
1664934802989,-0.98046875,0.12792969,0.15820312,0.1875,-0.09375,-0.1875,0.0,0.0,0.0
1664934803035,-0.9824219,0.1328125,0.1484375,0.0,0.90625,0.125,-80.125,15.1875,-144.625
1664934803084,-0.9746094,0.12890625,0.15625,-0.3125,-0.625,0.0,0.0,0.0,0.0
1664934803125,-0.98046875,0.1328125,0.15722656,0.46875,0.15625,-0.375,0.0,0.0,0.0
1664934803171,-0.9814453,0.13476562,0.15917969,0.40625,-0.375,0.0,0.0,0.0,0.0
1664934803194,-0.9794922,0.1328125,0.1484375,0.71875,-0.03125,-0.1875,0.0,0.0,0.0
1664934803239,-0.984375,0.13964844,0.15625,0.125,-0.75,-0.3125,0.0,0.0,0.0
1664934803282,-0.9814453,0.125,0.15625,-0.25,0.28125,0.0625,0.0,0.0,0.0
1664934803328,-0.97558594,0.13378906,0.15527344,-0.25,-0.03125,0.3125,0.0,0.0,0.0
1664934803374,-0.9785156,0.140625,0.15820312,-0.25,0.21875,0.125,0.0,0.0,0.0
1664934803396,-0.9794922,0.13183594,0.16113281,-0.125,0.03125,-0.0625,0.0,0.0,0.0
1664934803441,-0.97265625,0.140625,0.140625,-0.4375,0.15625,0.3125,0.0,0.0,0.0
1664934803485,-0.9765625,0.13867188,0.16015625,-0.375,0.59375,0.1875,0.0,0.0,0.0
1664934803532,-0.9716797,0.13769531,0.1640625,0.125,-0.25,-0.125,0.0,0.0,0.0
1664934803576,-0.98339844,0.12402344,0.14746094,-0.3125,-0.03125,0.0625,-77.875,14.3125,-145.875
1664934803599,-0.9794922,0.13867188,0.15625,0.3125,0.15625,0.0625,0.0,0.0,0.0
1664934803644,-0.98046875,0.1328125,0.14160156,-0.25,0.03125,0.125,0.0,0.0,0.0
1664934803690,-0.984375,0.13085938,0.15136719,-0.5625,-0.03125,0.15625,0.0,0.0,0.0
1664934803711,-0.98046875,0.13085938,0.16015625,-0.125,0.03125,-0.15625,0.0,0.0,0.0
1664934803755,-0.97558594,0.13769531,0.15625,0.0,-0.21875,0.03125,0.0,0.0,0.0
1664934803799,-0.98339844,0.12792969,0.15332031,-0.8125,1.125,0.34375,0.0,0.0,0.0
1664934803844,-0.984375,0.13085938,0.15625,-0.4375,-0.59375,-0.21875,0.0,0.0,0.0
1664934803890,-0.9863281,0.13867188,0.16699219,0.3125,0.5,-0.03125,0.0,0.0,0.0
1664934803934,-0.9824219,0.1328125,0.15332031,-0.5625,0.03125,0.21875,0.0,0.0,0.0
1664934803959,-0.9824219,0.13574219,0.14941406,0.1875,0.1875,-0.15625,0.0,0.0,0.0
1664934804004,-0.984375,0.13671875,0.14941406,0.0625,0.03125,-0.15625,0.0,0.0,0.0
1664934804049,-0.9765625,0.14160156,0.15234375,-0.3125,-0.09375,-0.03125,-77.875,15.0625,-145.25
1664934804070,-0.9658203,0.14160156,0.14648438,0.25,0.375,-0.15625,0.0,0.0,0.0
1664934804117,-0.9794922,0.13671875,0.14746094,-0.3125,0.09375,0.28125,0.0,0.0,0.0
1664934804161,-0.97753906,0.13183594,0.14648438,-0.5,0.15625,-0.09375,0.0,0.0,0.0
1664934804206,-0.9785156,0.13574219,0.15039062,-0.25,-0.03125,0.09375,0.0,0.0,0.0
1664934804251,-0.9746094,0.13085938,0.15332031,-0.6875,0.03125,0.15625,0.0,0.0,0.0
1664934804297,-0.9814453,0.1328125,0.15039062,-0.25,-0.03125,-0.03125,0.0,0.0,0.0
1664934804320,-0.9814453,0.13183594,0.14257812,0.0625,-0.03125,-0.03125,0.0,0.0,0.0
1664934804364,-0.9746094,0.13867188,0.15820312,0.1875,0.09375,0.09375,0.0,0.0,0.0
1664934804409,-0.98046875,0.13671875,0.14648438,-0.3125,0.4375,0.15625,0.0,0.0,0.0
1664934804433,-0.98339844,0.13378906,0.15722656,-0.75,-0.53125,-0.09375,0.0,0.0,0.0
1664934804498,-0.9785156,0.1328125,0.15039062,0.3125,0.5625,0.03125,0.0,0.0,0.0
1664934804521,-0.9824219,0.13867188,0.15039062,-0.125,0.3125,0.28125,0.0,0.0,0.0
1664934804567,-0.9746094,0.12695312,0.14648438,0.1875,-0.03125,-0.03125,-78.125,13.8125,-145.5625
1664934804610,-0.97753906,0.13085938,0.14550781,-0.5,0.1875,0.03125,0.0,0.0,0.0
1664934804633,-0.9863281,0.12890625,0.1328125,-0.0625,0.03125,0.09375,0.0,0.0,0.0
1664934804680,-0.96875,0.13085938,0.14355469,0.0625,-0.21875,-0.09375,0.0,0.0,0.0
1664934804721,-0.9794922,0.13085938,0.15039062,-0.125,0.09375,-0.03125,0.0,0.0,0.0
1664934804766,-0.98046875,0.1328125,0.14941406,-0.5625,0.09375,0.21875,0.0,0.0,0.0
1664934804790,-0.98535156,0.12890625,0.16015625,0.125,0.3125,0.09375,0.0,0.0,0.0
1664934804859,-0.97558594,0.12792969,0.14550781,-0.3125,0.03125,0.03125,0.0,0.0,0.0
1664934804883,-0.9814453,0.1328125,0.1484375,-0.25,0.03125,0.09375,0.0,0.0,0.0
1664934804925,-0.98535156,0.13671875,0.15429688,-0.4375,0.375,0.03125,0.0,0.0,0.0
1664934804972,-0.9794922,0.13671875,0.1484375,-0.25,-0.21875,0.03125,0.0,0.0,0.0
1664934804993,-0.9814453,0.125,0.15332031,0.0,0.15625,0.03125,0.0,0.0,0.0
1664934805038,-0.9921875,0.14257812,0.14746094,0.0625,0.1875,-0.15625,-78.3125,13.6875,-145.6875
1664934805084,-0.97753906,0.13574219,0.15039062,0.1875,-0.28125,-0.09375,0.0,0.0,0.0
1664934805128,-0.97265625,0.13964844,0.14257812,-0.3125,0.03125,0.03125,0.0,0.0,0.0
1664934805151,-0.9873047,0.12890625,0.14648438,-0.625,0.25,0.21875,0.0,0.0,0.0
1664934805220,-0.9785156,0.13964844,0.15039062,0.125,0.5,-0.15625,0.0,0.0,0.0
1664934805241,-0.9785156,0.12792969,0.14746094,-0.3125,-0.34375,-0.15625,0.0,0.0,0.0
1664934805286,-0.98535156,0.13964844,0.15039062,-0.0625,0.625,0.34375,0.0,0.0,0.0
1664934805332,-0.9863281,0.13671875,0.15527344,-0.0625,-0.09375,-0.09375,0.0,0.0,0.0
1664934805352,-0.9716797,0.12597656,0.15429688,0.0,0.03125,-0.09375,0.0,0.0,0.0
1664934805427,-0.9824219,0.13574219,0.15039062,-0.8125,0.375,0.21875,0.0,0.0,0.0
1664934805443,-0.9824219,0.12890625,0.15039062,0.0,0.03125,-0.15625,0.0,0.0,0.0
1664934805488,-0.9863281,0.12597656,0.14550781,-0.3125,-0.40625,0.15625,0.0,0.0,0.0
1664934805510,-0.98339844,0.13867188,0.15820312,-0.5625,0.6875,0.09375,0.0,0.0,0.0
1664934805553,-0.9785156,0.13574219,0.15332031,-0.625,-0.09375,0.09375,-77.5625,15.9375,-145.375
1664934805599,-0.97753906,0.13378906,0.14941406,0.0,0.15625,0.09375,0.0,0.0,0.0
1664934805669,-0.9736328,0.12695312,0.15625,-0.125,0.15625,-0.09375,0.0,0.0,0.0
1664934805692,-0.9824219,0.13085938,0.14453125,0.3125,0.25,0.09375,0.0,0.0,0.0
1664934805713,-0.97558594,0.13769531,0.14257812,0.0,-0.15625,0.15625,0.0,0.0,0.0
1664934805758,-0.98046875,0.13671875,0.16210938,-0.0625,0.03125,0.15625,0.0,0.0,0.0
1664934805803,-0.9873047,0.13867188,0.15820312,-0.0625,0.15625,0.34375,0.0,0.0,0.0
1664934805848,-0.97265625,0.12597656,0.15332031,0.125,0.09375,0.28125,0.0,0.0,0.0
1664934805870,-0.9794922,0.13574219,0.140625,-0.0625,-0.03125,0.15625,0.0,0.0,0.0
1664934805916,-0.98535156,0.13085938,0.14160156,-0.1875,0.25,0.21875,0.0,0.0,0.0
1664934805964,-0.98339844,0.13378906,0.13574219,0.0,0.1875,0.09375,0.0,0.0,0.0
1664934806008,-0.9794922,0.13476562,0.16308594,0.0,0.1875,0.15625,0.0,0.0,0.0
1664934806051,-0.9746094,0.12988281,0.16308594,-0.375,0.5,0.15625,-76.1875,13.6875,-143.625
1664934806073,-0.98535156,0.12597656,0.14746094,0.53125,-0.53125,-0.46875,0.0,0.0,0.0
1664934806142,-0.9863281,0.1328125,0.14550781,0.1875,0.625,0.15625,0.0,0.0,0.0
1664934806165,-0.9765625,0.13671875,0.15625,-0.6875,-0.09375,0.15625,0.0,0.0,0.0
1664934806209,-0.9765625,0.13574219,0.16113281,0.125,-0.09375,-0.09375,0.0,0.0,0.0
1664934806232,-0.9824219,0.12988281,0.14746094,-0.0625,-0.09375,0.09375,0.0,0.0,0.0
1664934806276,-0.9785156,0.12792969,0.15332031,-0.375,0.3125,-0.03125,0.0,0.0,0.0
1664934806369,-0.98046875,0.1328125,0.140625,-0.0625,-0.09375,-0.09375,0.0,0.0,0.0
1664934806371,-0.9824219,0.13476562,0.16015625,0.1875,0.1875,-0.03125,0.0,0.0,0.0
1664934806388,-0.97753906,0.12597656,0.14453125,-0.3125,0.09375,0.15625,0.0,0.0,0.0
1664934806433,-0.9765625,0.13769531,0.15625,-0.0625,-0.15625,-0.09375,0.0,0.0,0.0
1664934806480,-0.9892578,0.14355469,0.1484375,0.40625,-0.03125,-0.03125,0.0,0.0,0.0
1664934806545,-0.9873047,0.14257812,0.14746094,-0.1875,-0.03125,0.03125,0.0,0.0,0.0
1664934806573,-0.9902344,0.13476562,0.15917969,-0.1875,0.15625,-0.09375,-79.0625,12.9375,-145.375
1664934806589,-0.98046875,0.13671875,0.15136719,-0.1875,0.03125,0.15625,0.0,0.0,0.0
1664934806635,-0.98046875,0.13671875,0.14453125,-0.125,0.03125,0.03125,0.0,0.0,0.0
1664934806680,-0.97558594,0.13867188,0.15234375,-0.3125,-0.21875,-0.21875,0.0,0.0,0.0
1664934806725,-0.984375,0.13183594,0.16015625,-0.0625,-0.03125,-0.15625,0.0,0.0,0.0
1664934806748,-0.98339844,0.13183594,0.14746094,-0.1875,0.5,0.34375,0.0,0.0,0.0
1664934806791,-0.98339844,0.12890625,0.15429688,-0.0625,-0.28125,-0.15625,0.0,0.0,0.0
1664934806862,-0.9794922,0.13769531,0.14648438,0.34375,-0.03125,-0.53125,0.0,0.0,0.0
1664934806883,-0.9785156,0.13671875,0.15136719,-0.25,-0.15625,-0.15625,0.0,0.0,0.0
1664934806929,-0.97558594,0.13867188,0.15625,-0.125,-0.09375,-0.09375,0.0,0.0,0.0
1664934806950,-0.9892578,0.13476562,0.15917969,0.125,0.15625,0.09375,0.0,0.0,0.0
1664934806996,-0.9824219,0.13867188,0.16308594,-0.25,0.15625,0.15625,0.0,0.0,0.0
1664934807041,-0.98535156,0.13476562,0.140625,-0.1875,-0.03125,-0.03125,-78.0,15.1875,-146.4375
1664934807086,-0.9814453,0.13476562,0.15722656,0.0625,-0.03125,-0.03125,0.0,0.0,0.0
1664934807108,-0.97753906,0.13476562,0.15917969,0.0625,0.25,-0.03125,0.0,0.0,0.0
1664934807154,-0.98535156,0.13867188,0.14550781,-0.25,-0.03125,-0.09375,0.0,0.0,0.0
1664934807200,-0.97558594,0.14257812,0.15820312,0.125,-0.40625,0.09375,0.0,0.0,0.0
1664934807267,-0.9814453,0.12597656,0.15234375,0.34375,0.4375,0.03125,0.0,0.0,0.0
1664934807289,-0.98046875,0.13769531,0.14746094,-0.4375,-0.28125,-0.15625,0.0,0.0,0.0
1664934807313,-0.97753906,0.13085938,0.16210938,-0.5,0.4375,0.09375,0.0,0.0,0.0
1664934807356,-0.9794922,0.1328125,0.14648438,-0.3125,0.15625,0.21875,0.0,0.0,0.0
1664934807402,-0.97558594,0.13378906,0.16308594,-0.3125,0.3125,-0.15625,0.0,0.0,0.0
1664934807468,-0.9814453,0.1328125,0.15527344,-0.0625,-0.21875,-0.28125,0.0,0.0,0.0
1664934807471,-0.97753906,0.13867188,0.15136719,0.125,0.25,0.21875,0.0,0.0,0.0
1664934807513,-0.9785156,0.12890625,0.15527344,-0.0625,-0.21875,-0.09375,0.0,0.0,0.0
1664934807583,-0.9863281,0.125,0.15136719,-0.0625,-0.03125,-0.40625,-78.75,13.6875,-145.375
1664934807609,-0.9824219,0.13574219,0.15332031,-0.0625,-0.03125,-0.09375,0.0,0.0,0.0
1664934807646,-0.9824219,0.12890625,0.14257812,0.0625,-0.34375,-0.03125,0.0,0.0,0.0
1664934807669,-0.9824219,0.13671875,0.15429688,0.0,0.25,-0.09375,0.0,0.0,0.0
1664934807715,-0.9824219,0.13671875,0.14453125,-0.25,-0.21875,0.03125,0.0,0.0,0.0
1664934807758,-0.9863281,0.13964844,0.1484375,-0.375,0.09375,0.21875,0.0,0.0,0.0
1664934807803,-0.9863281,0.12597656,0.16113281,0.1875,0.25,-0.09375,0.0,0.0,0.0
1664934807828,-0.97753906,0.12890625,0.15429688,-0.375,0.03125,-0.09375,0.0,0.0,0.0
1664934807874,-0.9863281,0.13183594,0.15136719,-0.375,0.03125,-0.09375,0.0,0.0,0.0
1664934807919,-0.9824219,0.12890625,0.15625,-0.0625,0.1875,-0.15625,0.0,0.0,0.0
1664934807965,-0.97558594,0.12890625,0.15429688,-0.0625,-0.28125,-0.21875,0.0,0.0,0.0
1664934808008,-0.9765625,0.1328125,0.15527344,0.125,0.15625,-0.09375,0.0,0.0,0.0
1664934808031,-0.9794922,0.12890625,0.14355469,-0.125,0.09375,0.15625,-78.875,14.3125,-144.5
1664934808075,-0.99121094,0.13574219,0.14648438,0.1875,-0.34375,0.03125,0.0,0.0,0.0
1664934808122,-0.9765625,0.13183594,0.14257812,0.0,0.09375,0.09375,0.0,0.0,0.0
1664934808190,-0.9824219,0.12890625,0.15332031,-0.1875,0.3125,0.03125,0.0,0.0,0.0
1664934808193,-0.98339844,0.13476562,0.13769531,-0.25,0.1875,0.21875,0.0,0.0,0.0
1664934808234,-0.97753906,0.1328125,0.15039062,-0.375,-0.15625,0.21875,0.0,0.0,0.0
1664934808279,-0.9785156,0.12792969,0.13378906,0.40625,0.375,-0.03125,0.0,0.0,0.0
1664934808323,-0.98339844,0.13085938,0.15332031,-0.5625,0.375,0.34375,0.0,0.0,0.0
1664934808392,-0.9873047,0.11816406,0.1484375,-0.75,-0.28125,0.03125,0.0,0.0,0.0
1664934808395,-0.98535156,0.13867188,0.140625,0.65625,0.1875,-0.09375,0.0,0.0,0.0
1664934808436,-0.98828125,0.13378906,0.13574219,0.0,0.875,0.53125,0.0,0.0,0.0
1664934808504,-0.9765625,0.12792969,0.14746094,-0.625,-0.53125,0.28125,0.0,0.0,0.0
1664934808525,-0.97558594,0.1328125,0.15527344,-0.5625,0.5625,0.09375,0.0,0.0,0.0
1664934808549,-0.9765625,0.13867188,0.16503906,-0.1875,-0.09375,0.21875,-78.0,14.4375,-144.375
1664934808592,-0.97558594,0.13378906,0.14550781,-0.125,0.25,0.40625,0.0,0.0,0.0
1664934808638,-0.9794922,0.12988281,0.15722656,-0.1875,0.3125,0.46875,0.0,0.0,0.0
1664934808682,-0.9863281,0.13183594,0.15136719,0.25,-0.34375,-0.21875,0.0,0.0,0.0
1664934808728,-0.96875,0.13085938,0.15136719,-0.25,0.25,0.28125,0.0,0.0,0.0
1664934808748,-0.9785156,0.13378906,0.1484375,0.125,0.1875,0.21875,0.0,0.0,0.0
1664934808794,-0.98339844,0.13867188,0.14160156,0.46875,0.09375,0.03125,0.0,0.0,0.0
1664934808840,-0.9863281,0.13964844,0.13769531,-0.25,0.1875,0.21875,0.0,0.0,0.0
1664934808908,-0.99316406,0.12695312,0.15234375,-0.3125,-0.15625,0.15625,0.0,0.0,0.0
1664934808910,-0.9707031,0.13671875,0.14746094,0.34375,0.40625,0.15625,0.0,0.0,0.0
1664934808953,-0.98046875,0.13574219,0.14355469,0.15625,-0.5,-0.21875,0.0,0.0,0.0
1664934808998,-0.9765625,0.14257812,0.14941406,0.28125,0.34375,0.15625,0.0,0.0,0.0
1664934809044,-0.98046875,0.13964844,0.15722656,-0.25,0.09375,0.03125,-77.875,14.3125,-144.5
1664934809110,-0.97265625,0.13769531,0.15332031,-0.21875,-0.15625,-0.09375,0.0,0.0,0.0
1664934809112,-0.98046875,0.1328125,0.15136719,-0.09375,0.21875,0.03125,0.0,0.0,0.0
1664934809157,-0.98046875,0.13671875,0.14648438,0.03125,-0.15625,-0.15625,0.0,0.0,0.0
1664934809203,-0.9785156,0.14355469,0.14648438,0.03125,-0.09375,-0.21875,0.0,0.0,0.0
1664934809247,-0.9785156,0.13476562,0.15429688,-0.03125,-0.25,0.03125,0.0,0.0,0.0
1664934809269,-0.9736328,0.13183594,0.14746094,0.09375,-0.03125,-0.03125,0.0,0.0,0.0
1664934809316,-0.9746094,0.13378906,0.14746094,0.15625,0.09375,-0.03125,0.0,0.0,0.0
1664934809360,-0.9716797,0.13183594,0.15234375,0.53125,-0.5625,-0.4375,0.0,0.0,0.0
1664934809404,-0.9785156,0.12890625,0.15136719,0.03125,-0.15625,-0.21875,0.0,0.0,0.0
1664934809449,-0.9785156,0.12792969,0.15332031,-0.5625,0.15625,-0.09375,0.0,0.0,0.0
1664934809471,-0.98535156,0.14355469,0.1484375,0.21875,0.28125,-0.21875,0.0,0.0,0.0
1664934809516,-0.9873047,0.13085938,0.140625,-0.25,-0.15625,-0.09375,0.0,0.0,0.0
1664934809560,-0.97558594,0.13183594,0.15039062,0.15625,-0.09375,-0.3125,-77.875,14.5625,-145.25
1664934809609,-0.9765625,0.13867188,0.15039062,0.84375,-0.625,-0.3125,0.0,0.0,0.0
1664934809627,-0.98535156,0.12988281,0.15039062,0.09375,0.40625,-0.09375,0.0,0.0,0.0
1664934809672,-0.9746094,0.13085938,0.15332031,-0.09375,-0.625,-0.5625,0.0,0.0,0.0
1664934809718,-0.9824219,0.13574219,0.15039062,0.15625,0.59375,-0.03125,0.0,0.0,0.0
1664934809762,-0.98339844,0.12988281,0.15136719,-0.6875,-0.15625,-0.09375,0.0,0.0,0.0
1664934809830,-0.98535156,0.13671875,0.16113281,0.15625,0.09375,-0.25,0.0,0.0,0.0
1664934809832,-0.98046875,0.13769531,0.15234375,0.34375,0.09375,-0.03125,0.0,0.0,0.0
1664934809878,-0.9824219,0.13867188,0.14453125,0.34375,0.15625,0.15625,0.0,0.0,0.0
1664934809921,-0.97558594,0.14941406,0.14160156,-0.21875,-0.3125,-0.15625,0.0,0.0,0.0
1664934809967,-0.9814453,0.13867188,0.14160156,0.28125,0.21875,-0.21875,0.0,0.0,0.0
1664934809989,-0.9873047,0.13574219,0.16015625,-0.875,0.03125,0.15625,0.0,0.0,0.0
1664934810033,-0.9794922,0.1328125,0.14160156,-0.375,-0.21875,-0.375,-79.1875,14.5625,-144.5
1664934810100,-0.99121094,0.13671875,0.15136719,0.15625,-0.09375,-0.3125,0.0,0.0,0.0
1664934810124,-0.97753906,0.14941406,0.15234375,0.15625,-0.09375,-0.09375,0.0,0.0,0.0
1664934810168,-0.98339844,0.13085938,0.14941406,-0.03125,-0.25,-0.21875,0.0,0.0,0.0
1664934810192,-0.98339844,0.13671875,0.14941406,0.09375,0.03125,-0.25,0.0,0.0,0.0
1664934810235,-0.97753906,0.13476562,0.15039062,-0.21875,-0.25,-0.21875,0.0,0.0,0.0
1664934810281,-0.98339844,0.12597656,0.15332031,-0.8125,-0.09375,-0.15625,0.0,0.0,0.0
1664934810328,-0.9863281,0.13964844,0.14453125,0.46875,0.59375,-0.09375,0.0,0.0,0.0
1664934810349,-0.97558594,0.13476562,0.15234375,-0.625,-0.09375,0.09375,0.0,0.0,0.0
1664934810394,-0.9824219,0.13476562,0.14746094,0.53125,0.21875,-0.25,0.0,0.0,0.0
1664934810438,-0.9794922,0.12695312,0.14648438,0.53125,-0.25,-0.03125,0.0,0.0,0.0
1664934810483,-0.9873047,0.13671875,0.14550781,0.03125,-0.15625,0.09375,0.0,0.0,0.0
1664934810550,-0.98339844,0.13867188,0.140625,-0.09375,-0.375,-0.21875,0.0,0.0,0.0
1664934810552,-0.9814453,0.1328125,0.15625,-0.25,0.09375,-0.03125,-78.875,15.3125,-144.1875
1664934810596,-0.9785156,0.13476562,0.14453125,0.03125,-0.3125,0.09375,0.0,0.0,0.0
1664934810639,-0.9794922,0.13574219,0.13476562,0.15625,-0.15625,-0.15625,0.0,0.0,0.0
1664934810684,-0.9794922,0.12988281,0.140625,0.21875,-0.15625,-0.21875,0.0,0.0,0.0
1664934810706,-0.98339844,0.12695312,0.15429688,-0.3125,0.28125,-0.09375,0.0,0.0,0.0
1664934810752,-0.9814453,0.13085938,0.15820312,0.03125,-0.15625,-0.09375,0.0,0.0,0.0
1664934810798,-0.97558594,0.13671875,0.14941406,-0.03125,-0.3125,-0.15625,0.0,0.0,0.0
1664934810842,-0.9794922,0.13183594,0.14941406,0.03125,-0.25,-0.3125,0.0,0.0,0.0
1664934810890,-0.9794922,0.1328125,0.15039062,0.09375,0.03125,0.15625,0.0,0.0,0.0
1664934810911,-0.9794922,0.13183594,0.14453125,0.15625,-0.03125,0.03125,0.0,0.0,0.0
1664934810955,-0.9873047,0.13769531,0.13867188,0.28125,-0.15625,-0.15625,0.0,0.0,0.0
1664934811003,-0.9863281,0.12792969,0.14746094,0.34375,-0.09375,-0.25,0.0,0.0,0.0
1664934811045,-0.97265625,0.140625,0.15136719,0.28125,0.34375,0.15625,-78.0,14.4375,-145.375
1664934811091,-0.9794922,0.12597656,0.15234375,0.40625,-0.21875,0.15625,0.0,0.0,0.0
1664934811113,-0.9814453,0.13769531,0.15039062,0.53125,0.09375,-0.4375,0.0,0.0,0.0
1664934811158,-0.9814453,0.12988281,0.15136719,-0.25,-0.375,0.15625,0.0,0.0,0.0
1664934811209,-0.9746094,0.13183594,0.15429688,-0.21875,-0.625,-0.25,0.0,0.0,0.0
1664934811252,-0.98046875,0.1328125,0.13769531,0.03125,-0.03125,-0.03125,0.0,0.0,0.0
1664934811272,-0.9765625,0.1328125,0.13769531,-0.375,0.40625,0.34375,0.0,0.0,0.0
1664934811316,-0.98339844,0.14160156,0.14257812,-0.03125,0.03125,0.21875,0.0,0.0,0.0
1664934811362,-0.97753906,0.13671875,0.15039062,-0.21875,0.34375,0.28125,0.0,0.0,0.0
1664934811404,-0.9785156,0.13964844,0.14941406,-0.6875,0.03125,0.21875,0.0,0.0,0.0
1664934811427,-0.9892578,0.13183594,0.15429688,-0.03125,-0.03125,0.03125,0.0,0.0,0.0
1664934811471,-0.98046875,0.13085938,0.14550781,0.03125,-0.4375,-0.03125,0.0,0.0,0.0
1664934811517,-0.9814453,0.12792969,0.15136719,-0.40625,-0.28125,-0.0625,0.0,0.0,0.0
1664934811565,-0.97753906,0.13476562,0.13964844,0.03125,0.40625,0.125,-76.1875,14.125,-146.125
1664934811632,-0.98828125,0.13476562,0.13964844,0.5,-0.15625,-0.125,0.0,0.0,0.0
1664934811654,-0.9794922,0.14453125,0.1484375,-0.03125,0.09375,0.1875,0.0,0.0,0.0
1664934811675,-0.98828125,0.1328125,0.15332031,0.03125,0.09375,-0.0625,0.0,0.0,0.0
1664934811720,-0.98339844,0.13476562,0.14550781,0.09375,0.28125,-0.3125,0.0,0.0,0.0
1664934811766,-0.9873047,0.13183594,0.15136719,0.03125,-0.46875,0.1875,0.0,0.0,0.0
1664934811788,-0.98339844,0.123046875,0.14550781,-0.65625,0.09375,0.0625,0.0,0.0,0.0
1664934811832,-0.9746094,0.13183594,0.13671875,0.6875,0.03125,-0.25,0.0,0.0,0.0
1664934811879,-0.9794922,0.13671875,0.15234375,0.75,0.21875,0.1875,0.0,0.0,0.0
1664934811922,-0.9785156,0.13476562,0.15136719,-0.46875,-0.53125,-0.0625,0.0,0.0,0.0
1664934811970,-0.97265625,0.13574219,0.15234375,0.5,0.21875,-0.3125,0.0,0.0,0.0
1664934811993,-0.98046875,0.12988281,0.15039062,0.03125,0.03125,0.0625,0.0,0.0,0.0
1664934812036,-0.9765625,0.12988281,0.15820312,0.03125,0.03125,0.1875,-78.125,14.3125,-146.625
1664934812081,-0.98535156,0.1328125,0.15625,0.40625,0.09375,0.0,0.0,0.0,0.0
1664934812126,-0.97753906,0.13378906,0.14453125,-0.28125,-0.46875,-0.3125,0.0,0.0,0.0
1664934812148,-0.98828125,0.13671875,0.15332031,-0.21875,-0.09375,-0.1875,0.0,0.0,0.0
1664934812193,-0.98339844,0.12597656,0.15039062,0.34375,-0.03125,0.0625,0.0,0.0,0.0
1664934812238,-0.9824219,0.12988281,0.13769531,-0.15625,0.03125,-0.3125,0.0,0.0,0.0
1664934812284,-0.98535156,0.13378906,0.15332031,0.34375,-0.09375,-0.3125,0.0,0.0,0.0
1664934812329,-0.9794922,0.13476562,0.14746094,0.625,0.28125,0.0,0.0,0.0,0.0
1664934812351,-0.97558594,0.140625,0.15722656,0.03125,0.03125,0.125,0.0,0.0,0.0
1664934812396,-0.98535156,0.13671875,0.16015625,0.625,-0.03125,-0.0625,0.0,0.0,0.0
1664934812440,-0.97558594,0.12988281,0.16210938,0.40625,-0.28125,-0.375,0.0,0.0,0.0
1664934812484,-0.9814453,0.1328125,0.14550781,-0.03125,-0.03125,-0.1875,0.0,0.0,0.0
1664934812507,-0.9814453,0.13183594,0.15136719,0.03125,0.21875,-0.0625,0.0,0.0,0.0
1664934812552,-0.9824219,0.13476562,0.14648438,0.46875,0.15625,-0.375,-78.75,13.375,-145.375
1664934812597,-0.9824219,0.13183594,0.14160156,0.40625,-0.09375,-0.25,0.0,0.0,0.0
1664934812643,-0.9794922,0.14746094,0.14648438,-0.21875,-0.40625,-0.0625,0.0,0.0,0.0
1664934812689,-0.98339844,0.14453125,0.14453125,0.21875,-0.03125,-0.375,0.0,0.0,0.0
1664934812710,-0.98535156,0.12890625,0.14648438,-0.46875,0.03125,0.1875,0.0,0.0,0.0
1664934812756,-0.9794922,0.12988281,0.1484375,-0.21875,0.09375,0.0,0.0,0.0,0.0
1664934812802,-0.97753906,0.13867188,0.14746094,-0.28125,-0.34375,-0.125,0.0,0.0,0.0
1664934812845,-0.9707031,0.13183594,0.14941406,0.28125,-0.15625,0.125,0.0,0.0,0.0
1664934812869,-0.97753906,0.13476562,0.14941406,0.5625,-0.28125,-0.1875,0.0,0.0,0.0
1664934812913,-0.9794922,0.13085938,0.15625,-0.09375,-0.21875,0.0,0.0,0.0,0.0
1664934812960,-0.97265625,0.13964844,0.15429688,-0.03125,-0.21875,-0.1875,0.0,0.0,0.0
1664934813003,-0.9873047,0.13378906,0.15039062,0.46875,-0.09375,-0.1875,0.0,0.0,0.0
1664934813047,-0.98046875,0.12988281,0.15917969,-0.46875,0.09375,0.0,-78.3125,14.4375,-143.0
1664934813071,-0.9785156,0.1328125,0.1484375,-0.21875,-0.03125,-0.125,0.0,0.0,0.0
1664934813116,-0.98339844,0.12695312,0.1484375,-0.03125,0.34375,-0.0625,0.0,0.0,0.0
1664934813162,-0.97753906,0.1328125,0.14355469,-0.21875,-0.28125,-0.1875,0.0,0.0,0.0
1664934813206,-0.98535156,0.13476562,0.15332031,0.34375,0.15625,-0.375,0.0,0.0,0.0
1664934813229,-0.9863281,0.13964844,0.14355469,0.5625,-0.28125,-0.25,0.0,0.0,0.0
1664934813274,-0.9824219,0.13183594,0.16113281,-0.40625,0.34375,0.28125,0.0,0.0,0.0
1664934813319,-0.9814453,0.13183594,0.13769531,0.03125,-0.65625,-0.1875,0.0,0.0,0.0
1664934813362,-0.98339844,0.12988281,0.15429688,0.75,-0.03125,-0.25,0.0,0.0,0.0
1664934813406,-0.9873047,0.13183594,0.15527344,-0.03125,-0.15625,0.0625,0.0,0.0,0.0
1664934813430,-0.98046875,0.13183594,0.14648438,0.09375,-0.15625,0.0,0.0,0.0,0.0
1664934813474,-0.9765625,0.13183594,0.14257812,-0.15625,0.21875,0.0625,0.0,0.0,0.0
1664934813519,-0.9824219,0.13964844,0.16113281,0.40625,0.28125,-0.0625,0.0,0.0,0.0
1664934813564,-0.97753906,0.13671875,0.15136719,-0.84375,-0.59375,-0.125,-78.3125,14.4375,-145.6875
1664934813588,-0.9794922,0.12792969,0.15917969,0.21875,0.09375,0.0625,0.0,0.0,0.0
1664934813633,-0.9794922,0.13085938,0.14941406,0.625,0.28125,-0.0625,0.0,0.0,0.0
1664934813680,-0.98535156,0.12890625,0.15234375,-0.40625,-0.21875,-0.0625,0.0,0.0,0.0
1664934813723,-0.9794922,0.1328125,0.15722656,-0.09375,-0.28125,-0.0625,0.0,0.0,0.0
1664934813746,-0.9902344,0.13476562,0.14453125,-0.03125,0.09375,0.0,0.0,0.0,0.0
1664934813814,-0.98046875,0.13085938,0.14257812,-0.03125,0.15625,0.0625,0.0,0.0,0.0
1664934813837,-0.97753906,0.140625,0.15234375,0.09375,-0.03125,-0.0625,0.0,0.0,0.0
1664934813882,-0.98535156,0.13964844,0.15527344,0.09375,0.21875,0.0625,0.0,0.0,0.0
1664934813927,-0.98339844,0.13476562,0.13769531,-0.15625,-0.34375,0.125,0.0,0.0,0.0
1664934813949,-0.98046875,0.13964844,0.14550781,0.21875,0.28125,-0.125,0.0,0.0,0.0
1664934813994,-0.99121094,0.12792969,0.14355469,0.40625,-0.34375,0.0,0.0,0.0,0.0
1664934814041,-0.98046875,0.1328125,0.14355469,-0.71875,0.6875,0.21875,-76.9375,14.75,-144.625
1664934814085,-0.9785156,0.13574219,0.14550781,0.15625,-0.34375,-0.3125,0.0,0.0,0.0
1664934814128,-0.9814453,0.13574219,0.14941406,0.40625,0.625,-0.125,0.0,0.0,0.0
1664934814151,-0.98339844,0.13671875,0.15039062,-0.21875,-0.59375,0.0,0.0,0.0,0.0
1664934814195,-0.9785156,0.14453125,0.140625,0.9375,0.15625,-0.25,0.0,0.0,0.0
1664934814244,-0.9794922,0.13574219,0.13769531,-0.03125,-0.59375,-0.125,0.0,0.0,0.0
1664934814287,-0.97753906,0.13769531,0.14941406,-0.03125,0.21875,-0.125,0.0,0.0,0.0
1664934814330,-0.9785156,0.13085938,0.15625,-0.03125,-0.34375,-0.25,0.0,0.0,0.0
1664934814352,-0.97558594,0.13378906,0.14453125,0.21875,0.28125,0.125,0.0,0.0,0.0
1664934814400,-0.97265625,0.13183594,0.15136719,-0.28125,-0.28125,-0.0625,0.0,0.0,0.0
1664934814442,-0.9794922,0.13378906,0.15625,0.15625,0.09375,0.0625,0.0,0.0,0.0
1664934814464,-0.9765625,0.13085938,0.15039062,-0.09375,-0.15625,0.1875,0.0,0.0,0.0
1664934814509,-0.9824219,0.13476562,0.14550781,0.15625,-0.21875,-0.0625,0.0,0.0,0.0
1664934814578,-0.9746094,0.13378906,0.15527344,-0.28125,0.15625,0.0625,-77.25,13.375,-145.375
1664934814600,-0.9785156,0.140625,0.15039062,-0.15625,0.03125,-0.125,0.0,0.0,0.0
1664934814645,-0.9863281,0.1484375,0.14160156,0.46875,-0.21875,-0.0625,0.0,0.0,0.0
1664934814669,-0.98339844,0.12988281,0.15332031,0.28125,0.15625,-0.1875,0.0,0.0,0.0
1664934814712,-0.9765625,0.125,0.14941406,-0.09375,-0.40625,-0.3125,0.0,0.0,0.0
1664934814758,-0.9785156,0.12890625,0.15722656,0.21875,-0.59375,-0.25,0.0,0.0,0.0
1664934814803,-0.9794922,0.12011719,0.15039062,-0.40625,0.75,0.125,0.0,0.0,0.0
1664934814826,-0.97558594,0.14257812,0.14355469,-0.03125,-0.40625,-0.4375,0.0,0.0,0.0
1664934814869,-0.9794922,0.1328125,0.16601562,0.34375,0.40625,0.0625,0.0,0.0,0.0
1664934814914,-0.9814453,0.13183594,0.15039062,-0.34375,-0.59375,0.0,0.0,0.0,0.0
1664934814961,-0.9863281,0.13476562,0.16015625,0.625,0.03125,-0.25,0.0,0.0,0.0
1664934815007,-0.9707031,0.13769531,0.1328125,-0.09375,0.09375,0.125,0.0,0.0,0.0
1664934815051,-0.9746094,0.12792969,0.15429688,-0.03125,0.09375,-0.0625,-77.5625,15.1875,-145.375
1664934815073,-0.97753906,0.13085938,0.15332031,0.34375,-0.09375,-0.1875,0.0,0.0,0.0
1664934815118,-0.9824219,0.13574219,0.15820312,0.34375,-0.21875,-0.125,0.0,0.0,0.0
1664934815164,-0.9794922,0.13574219,0.14257812,-0.46875,-0.03125,-0.125,0.0,0.0,0.0
1664934815254,-0.9794922,0.13085938,0.16210938,-0.53125,-0.03125,-0.25,0.0,0.0,0.0
1664934815258,-0.9873047,0.13183594,0.14746094,0.09375,0.34375,-0.0625,0.0,0.0,0.0
1664934815274,-0.9814453,0.12597656,0.15332031,0.03125,-0.46875,-0.125,0.0,0.0,0.0
1664934815321,-0.98535156,0.13671875,0.15234375,0.09375,0.03125,-0.25,0.0,0.0,0.0
1664934815365,-0.9824219,0.12988281,0.13476562,0.28125,-0.03125,0.0625,0.0,0.0,0.0
1664934815388,-0.98046875,0.12792969,0.15917969,-0.09375,-0.34375,0.0,0.0,0.0,0.0
1664934815434,-0.9746094,0.13671875,0.14648438,0.15625,-0.21875,-0.375,0.0,0.0,0.0
1664934815477,-0.9824219,0.13378906,0.14941406,-0.40625,0.09375,-0.0625,0.0,0.0,0.0
1664934815523,-0.98339844,0.12695312,0.14160156,0.15625,0.03125,0.28125,0.0,0.0,0.0
1664934815544,-0.98046875,0.13671875,0.16796875,0.34375,-0.03125,-0.125,-77.25,14.125,-144.625
1664934815589,-0.9794922,0.13769531,0.14257812,0.09375,0.15625,-0.375,0.0,0.0,0.0
1664934815659,-0.97753906,0.12890625,0.15136719,-0.09375,-0.15625,0.1875,0.0,0.0,0.0
1664934815682,-0.9814453,0.13574219,0.15234375,-0.09375,-0.03125,-0.0625,0.0,0.0,0.0
1664934815728,-0.9785156,0.13574219,0.14355469,0.21875,-0.34375,-0.3125,0.0,0.0,0.0
1664934815748,-0.98046875,0.13378906,0.15234375,0.34375,-0.65625,0.125,0.0,0.0,0.0
1664934815794,-0.97558594,0.12890625,0.15820312,-0.15625,-0.15625,-0.0625,0.0,0.0,0.0
1664934815838,-0.9824219,0.12988281,0.16015625,0.03125,0.28125,0.0,0.0,0.0,0.0
1664934815883,-0.96972656,0.12597656,0.15625,-0.03125,0.21875,0.21875,0.0,0.0,0.0
1664934815906,-0.9746094,0.13574219,0.14941406,-0.15625,0.09375,0.0,0.0,0.0,0.0
1664934815972,-0.9794922,0.13378906,0.1484375,0.15625,-0.59375,-0.1875,0.0,0.0,0.0
1664934815995,-0.9863281,0.12988281,0.15917969,0.15625,0.34375,0.28125,0.0,0.0,0.0
1664934816046,-0.9765625,0.13378906,0.14257812,0.34375,0.03125,0.0,-76.375,15.0625,-145.25
1664934816088,-0.97558594,0.13671875,0.1640625,0.03125,-0.21875,-0.125,0.0,0.0,0.0
1664934816108,-0.9746094,0.14355469,0.14941406,0.75,-0.28125,-0.25,0.0,0.0,0.0
1664934816175,-0.9814453,0.13769531,0.14648438,-0.15625,0.03125,0.1875,0.0,0.0,0.0
1664934816199,-0.98339844,0.12988281,0.16210938,-0.09375,0.28125,0.0,0.0,0.0,0.0
1664934816245,-0.97753906,0.12695312,0.14746094,0.09375,-0.46875,-0.0625,0.0,0.0,0.0
1664934816267,-0.9824219,0.12890625,0.14160156,-0.21875,0.875,0.46875,0.0,0.0,0.0
1664934816311,-0.98046875,0.12792969,0.15039062,0.28125,-0.59375,-0.375,0.0,0.0,0.0
1664934816355,-0.9824219,0.13378906,0.15136719,0.5625,0.5625,0.0,0.0,0.0,0.0
1664934816399,-0.9824219,0.12402344,0.1484375,-0.40625,-0.40625,0.21875,0.0,0.0,0.0
1664934816467,-0.9794922,0.13476562,0.15527344,0.40625,-0.28125,-0.1875,0.0,0.0,0.0
1664934816470,-0.9824219,0.14355469,0.14453125,0.21875,0.15625,-0.0625,0.0,0.0,0.0
1664934816512,-0.97558594,0.1328125,0.15234375,-0.40625,-0.15625,0.21875,0.0,0.0,0.0
1664934816558,-0.9736328,0.13867188,0.15332031,-0.03125,-0.28125,0.125,-77.25,16.25,-144.625
1664934816602,-0.9765625,0.14355469,0.14453125,0.5,0.28125,-0.125,0.0,0.0,0.0
1664934816627,-0.97753906,0.13671875,0.15234375,-0.03125,0.09375,0.125,0.0,0.0,0.0
1664934816671,-0.98535156,0.1328125,0.14550781,-0.40625,-0.15625,0.21875,0.0,0.0,0.0
1664934816716,-0.97558594,0.13964844,0.14550781,0.15625,0.34375,0.0625,0.0,0.0,0.0
1664934816760,-0.9873047,0.13183594,0.13867188,0.28125,-0.15625,-0.125,0.0,0.0,0.0
1664934816809,-0.96875,0.13378906,0.13964844,-0.09375,0.21875,0.1875,0.0,0.0,0.0
1664934816829,-0.9814453,0.13378906,0.14453125,0.03125,-0.53125,-0.0625,0.0,0.0,0.0
1664934816895,-0.9794922,0.13183594,0.14648438,0.34375,0.03125,0.0,0.0,0.0,0.0
1664934816919,-0.9716797,0.1328125,0.14550781,-0.03125,-0.03125,0.0,0.0,0.0,0.0
1664934816965,-0.9902344,0.12988281,0.15136719,-0.15625,-0.15625,-0.125,0.0,0.0,0.0
1664934817009,-0.9824219,0.13574219,0.14550781,-0.59375,0.46875,0.1875,0.0,0.0,0.0
1664934817034,-0.9814453,0.12792969,0.14257812,0.40625,-0.8125,-0.4375,-77.875,15.0625,-145.25
1664934817099,-0.98535156,0.13378906,0.14941406,-0.09375,0.8125,-0.125,0.0,0.0,0.0
1664934817120,-0.9746094,0.12695312,0.15039062,-0.71875,-0.40625,0.21875,0.0,0.0,0.0
1664934817210,-0.9746094,0.13378906,0.14746094,0.46875,-0.15625,-0.125,0.0,0.0,0.0
1664934817213,-0.9746094,0.12988281,0.16015625,-0.15625,-0.15625,-0.3125,0.0,0.0,0.0
1664934817233,-0.9736328,0.13867188,0.15625,0.09375,0.46875,-0.0625,0.0,0.0,0.0
1664934817277,-0.9794922,0.1328125,0.14648438,-0.09375,-0.40625,0.0,0.0,0.0,0.0
1664934817321,-0.9746094,0.12597656,0.14648438,0.21875,-0.03125,-0.25,0.0,0.0,0.0
1664934817344,-0.9765625,0.12890625,0.15039062,-0.21875,-0.09375,-0.125,0.0,0.0,0.0
1664934817389,-0.9892578,0.13769531,0.14550781,0.09375,0.03125,-0.0625,0.0,0.0,0.0
1664934817435,-0.97558594,0.14453125,0.15625,-0.40625,-0.21875,-0.1875,0.0,0.0,0.0
1664934817480,-0.97753906,0.13085938,0.14746094,0.34375,-0.09375,-0.0625,0.0,0.0,0.0
1664934817526,-0.97558594,0.13574219,0.15625,0.21875,0.21875,-0.0625,0.0,0.0,0.0
1664934817550,-0.9765625,0.13769531,0.14355469,0.15625,-0.21875,-0.125,-77.25,13.375,-145.375
1664934817593,-0.9794922,0.12792969,0.14550781,0.21875,0.15625,-0.25,0.0,0.0,0.0
1664934817639,-0.9785156,0.1328125,0.15625,-0.09375,-0.53125,-0.1875,0.0,0.0,0.0
1664934817683,-0.97753906,0.12695312,0.15332031,0.03125,-0.15625,-0.25,0.0,0.0,0.0
1664934817707,-0.96972656,0.13867188,0.14941406,0.15625,0.5625,0.1875,0.0,0.0,0.0
1664934817750,-0.9814453,0.12890625,0.15039062,0.09375,-0.28125,-0.0625,0.0,0.0,0.0
1664934817817,-0.9746094,0.13085938,0.15820312,0.15625,0.21875,-0.3125,0.0,0.0,0.0
1664934817842,-0.9785156,0.13183594,0.1328125,0.09375,0.09375,0.0,0.0,0.0,0.0
1664934817885,-0.99316406,0.13671875,0.15820312,0.09375,-0.28125,0.0,0.0,0.0,0.0
1664934817906,-0.9765625,0.13964844,0.15527344,0.15625,-0.15625,-0.25,0.0,0.0,0.0
1664934817953,-0.9785156,0.13378906,0.14453125,-0.09375,0.34375,0.125,0.0,0.0,0.0
1664934818020,-0.9746094,0.13574219,0.14453125,-0.21875,-0.03125,-0.1875,0.0,0.0,0.0
1664934818043,-0.97753906,0.12597656,0.14453125,-0.03125,0.09375,0.125,-77.5625,14.125,-145.6875
1664934818068,-0.97753906,0.13769531,0.15234375,0.21875,0.15625,-0.125,0.0,0.0,0.0
1664934818110,-0.98046875,0.140625,0.14648438,-0.15625,-0.65625,0.0,0.0,0.0,0.0
1664934818154,-0.9746094,0.13769531,0.14941406,-0.09375,-0.09375,-0.125,0.0,0.0,0.0
1664934818200,-0.984375,0.13574219,0.14941406,-0.40625,-0.21875,-0.125,0.0,0.0,0.0
1664934818247,-0.984375,0.12988281,0.14355469,0.09375,-0.09375,-0.1875,0.0,0.0,0.0
1664934818271,-0.9824219,0.13476562,0.13671875,-0.09375,-0.28125,-0.1875,0.0,0.0,0.0
1664934818315,-0.9951172,0.13671875,0.15136719,0.03125,-0.03125,-0.0625,0.0,0.0,0.0
1664934818360,-0.97753906,0.12890625,0.15332031,-0.34375,-0.03125,-0.1875,0.0,0.0,0.0
1664934818402,-0.984375,0.1328125,0.15917969,0.5,-0.28125,0.0,0.0,0.0,0.0
1664934818425,-0.98339844,0.14453125,0.14160156,-0.21875,0.09375,0.21875,0.0,0.0,0.0
1664934818470,-0.9863281,0.12695312,0.140625,-0.34375,0.03125,-0.1875,0.0,0.0,0.0
1664934818571,-0.9814453,0.1328125,0.15429688,1.25,0.625,-0.125,-77.875,15.0625,-143.875
1664934818573,-0.98339844,0.13574219,0.14550781,0.03125,-0.875,0.1875,0.0,0.0,0.0
1664934818632,-0.9716797,0.13378906,0.15234375,0.34375,0.34375,-0.1875,0.0,0.0,0.0
1664934818635,-0.98339844,0.140625,0.15625,-0.03125,0.09375,0.1875,0.0,0.0,0.0
1664934818672,-0.9863281,0.13574219,0.140625,0.15625,-0.21875,-0.0625,0.0,0.0,0.0
1664934818744,-0.9794922,0.13671875,0.14453125,0.03125,-0.03125,0.0,0.0,0.0,0.0
1664934818762,-0.9746094,0.12792969,0.14746094,-0.34375,0.21875,0.0,0.0,0.0,0.0
1664934818785,-0.9814453,0.14453125,0.15136719,-0.09375,0.28125,0.1875,0.0,0.0,0.0
1664934818828,-0.99121094,0.13476562,0.15820312,0.09375,0.21875,0.125,0.0,0.0,0.0
1664934818875,-0.9814453,0.13769531,0.14160156,0.09375,0.28125,0.0625,0.0,0.0,0.0
1664934818920,-0.9824219,0.13574219,0.14550781,0.15625,0.09375,0.21875,0.0,0.0,0.0
1664934818964,-0.9814453,0.13769531,0.15332031,-0.59375,-0.15625,0.0,0.0,0.0,0.0
1664934818986,-0.98046875,0.13378906,0.15136719,0.40625,0.46875,0.125,0.0,0.0,0.0
1664934819033,-0.9746094,0.13476562,0.14355469,0.21875,-0.28125,0.0,-77.5625,14.75,-144.375
1664934819078,-0.98339844,0.13671875,0.15136719,0.21875,0.03125,-0.125,0.0,0.0,0.0
1664934819147,-0.9794922,0.14550781,0.15039062,0.40625,0.28125,0.0,0.0,0.0,0.0
1664934819149,-0.9785156,0.13183594,0.1640625,-0.34375,-0.09375,-0.0625,0.0,0.0,0.0
1664934819193,-0.9814453,0.13769531,0.14160156,-0.53125,0.09375,0.0,0.0,0.0,0.0
1664934819235,-0.9941406,0.14257812,0.16210938,0.46875,0.34375,0.1875,0.0,0.0,0.0
1664934819279,-0.9794922,0.13085938,0.13574219,0.34375,-0.28125,-0.1875,0.0,0.0,0.0
1664934819350,-0.97558594,0.14453125,0.15136719,-0.28125,-0.59375,0.0,0.0,0.0,0.0
1664934819352,-0.97753906,0.1328125,0.14550781,-0.65625,0.5,0.125,0.0,0.0,0.0
1664934819395,-0.98339844,0.13769531,0.15332031,0.21875,-0.1875,-0.1875,0.0,0.0,0.0
1664934819439,-0.9785156,0.13476562,0.14648438,0.09375,0.4375,0.0625,0.0,0.0,0.0
1664934819483,-0.97558594,0.13964844,0.15722656,-0.46875,-0.34375,-0.0625,0.0,0.0,0.0
1664934819507,-0.98339844,0.13574219,0.16308594,0.03125,0.125,-0.1875,0.0,0.0,0.0
1664934819550,-0.9794922,0.12792969,0.14941406,0.09375,-0.0625,0.0,-77.125,15.0625,-145.5625
1664934819595,-0.97753906,0.13574219,0.14453125,0.03125,-0.40625,-0.0625,0.0,0.0,0.0
1664934819639,-0.9785156,0.13769531,0.14355469,0.15625,0.125,-0.125,0.0,0.0,0.0
1664934819686,-0.98535156,0.14550781,0.13964844,0.5625,-0.46875,-0.3125,0.0,0.0,0.0
1664934819708,-0.98828125,0.14355469,0.14941406,0.28125,0.3125,0.0,0.0,0.0,0.0
1664934819753,-0.9746094,0.1328125,0.13867188,-0.15625,-0.34375,-0.375,0.0,0.0,0.0
1664934819798,-0.9765625,0.13476562,0.15527344,0.53125,0.375,-0.125,0.0,0.0,0.0
1664934819842,-0.9814453,0.13378906,0.14257812,-0.34375,0.3125,-0.0625,0.0,0.0,0.0
1664934819865,-0.9824219,0.12890625,0.14257812,0.21875,-0.46875,-0.3125,0.0,0.0,0.0
1664934819910,-0.98339844,0.12890625,0.15429688,0.46875,0.3125,-0.25,0.0,0.0,0.0
1664934819955,-0.9785156,0.13476562,0.15039062,-0.21875,-0.40625,-0.0625,0.0,0.0,0.0
1664934820000,-0.98828125,0.13867188,0.13867188,0.8125,-0.0625,-0.1875,0.0,0.0,0.0
1664934820048,-0.9873047,0.14257812,0.13867188,0.09375,-0.40625,-0.0625,0.0,0.0,0.0
1664934820069,-0.98535156,0.14355469,0.15136719,-0.21875,0.0625,-0.0625,-78.875,13.8125,-144.9375
1664934820111,-0.9707031,0.13671875,0.15332031,-0.40625,0.4375,-0.125,0.0,0.0,0.0
1664934820159,-0.984375,0.1328125,0.13769531,-0.21875,-0.21875,0.0625,0.0,0.0,0.0
1664934820203,-0.984375,0.1328125,0.14648438,-0.28125,0.3125,-0.0625,0.0,0.0,0.0
1664934820226,-0.98046875,0.1328125,0.15722656,0.03125,-0.46875,-0.25,0.0,0.0,0.0
1664934820270,-0.9814453,0.13378906,0.14648438,0.40625,-0.0625,-0.3125,0.0,0.0,0.0
1664934820315,-0.9824219,0.140625,0.15332031,-0.40625,-0.1875,0.0,0.0,0.0,0.0
1664934820361,-0.98339844,0.140625,0.14257812,0.34375,0.375,-0.25,0.0,0.0,0.0
1664934820405,-0.9785156,0.13867188,0.15234375,-0.09375,-0.65625,-0.1875,0.0,0.0,0.0
1664934820427,-0.9746094,0.140625,0.15722656,-0.21875,-0.21875,-0.5,0.0,0.0,0.0
1664934820473,-0.98535156,0.13671875,0.14550781,-0.53125,-0.0625,-0.1875,0.0,0.0,0.0
1664934820518,-0.98046875,0.13183594,0.14550781,-0.21875,1.0,0.1875,0.0,0.0,0.0
1664934820587,-0.98046875,0.13769531,0.15527344,-0.34375,-0.40625,0.0,-76.9375,14.75,-144.0625
1664934820589,-0.9814453,0.12597656,0.14160156,0.40625,-0.0625,-0.3125,0.0,0.0,0.0
1664934820632,-0.9824219,0.13476562,0.15429688,-0.03125,-0.1875,0.0,0.0,0.0,0.0
1664934820673,-0.9794922,0.13183594,0.140625,0.15625,-0.34375,-0.25,0.0,0.0,0.0
1664934820721,-0.9794922,0.140625,0.13476562,0.53125,0.0625,-0.25,0.0,0.0,0.0
1664934820789,-0.984375,0.13574219,0.13964844,-0.71875,-0.0625,0.1875,0.0,0.0,0.0
1664934820790,-0.98535156,0.13378906,0.14257812,-0.53125,-0.46875,-0.25,0.0,0.0,0.0
1664934820831,-0.9814453,0.13574219,0.15136719,-0.15625,0.75,0.125,0.0,0.0,0.0
1664934820877,-0.9824219,0.1328125,0.15136719,0.15625,0.0,0.0,0.0,0.0,0.0
1664934820925,-0.9785156,0.13574219,0.14453125,-0.09375,-0.0625,-0.1875,0.0,0.0,0.0
1664934820950,-0.9765625,0.1328125,0.15625,0.03125,0.125,-0.1875,0.0,0.0,0.0
1664934820989,-0.97265625,0.13085938,0.14257812,0.40625,-0.28125,-0.3125,0.0,0.0,0.0
1664934821034,-0.9785156,0.13183594,0.14257812,0.28125,0.25,0.0,0.0,0.0,0.0
1664934821078,-0.97558594,0.14257812,0.14941406,0.09375,0.0,0.0,-77.875,14.3125,-145.25
1664934821102,-0.98535156,0.13378906,0.15039062,0.03125,-0.21875,-0.0625,0.0,0.0,0.0
1664934821147,-0.9765625,0.12890625,0.15625,0.03125,0.25,-0.25,0.0,0.0,0.0
1664934821191,-0.9902344,0.1328125,0.14550781,-0.21875,-0.34375,0.0,0.0,0.0,0.0
1664934821237,-0.98339844,0.12597656,0.15625,-0.40625,0.4375,0.125,0.0,0.0,0.0
1664934821282,-0.98535156,0.14355469,0.15039062,0.03125,-0.125,-0.3125,0.0,0.0,0.0
1664934821304,-0.9765625,0.13867188,0.14550781,-0.03125,0.0625,-0.125,0.0,0.0,0.0
1664934821351,-0.9716797,0.13964844,0.15136719,0.21875,-0.1875,-0.1875,0.0,0.0,0.0
1664934821397,-0.97558594,0.13671875,0.14453125,-0.21875,-0.125,0.0,0.0,0.0,0.0
1664934821443,-0.9824219,0.13769531,0.15039062,-0.28125,0.125,0.0,0.0,0.0,0.0
1664934821465,-0.9746094,0.13378906,0.13867188,-0.28125,-0.1875,-0.125,0.0,0.0,0.0
1664934821510,-0.9873047,0.13574219,0.15332031,-0.15625,0.4375,0.125,0.0,0.0,0.0
1664934821552,-0.9814453,0.13867188,0.13964844,-0.40625,-0.1875,-0.0625,-76.5,14.75,-145.6875
1664934821596,-0.9824219,0.1328125,0.15527344,-0.15625,-0.125,0.125,0.0,0.0,0.0
1664934821645,-0.9814453,0.13085938,0.14550781,0.21875,-0.125,-0.125,0.0,0.0,0.0
1664934821667,-0.97558594,0.13867188,0.15332031,0.28125,-0.1875,-0.1875,0.0,0.0,0.0
1664934821711,-0.9794922,0.12988281,0.1328125,-0.40625,0.0625,0.0625,0.0,0.0,0.0
1664934821756,-0.9814453,0.13085938,0.14550781,-0.21875,-0.0625,-0.125,0.0,0.0,0.0
1664934821822,-0.9902344,0.13964844,0.14160156,0.75,-0.34375,-0.1875,0.0,0.0,0.0
1664934821825,-0.9902344,0.12890625,0.15722656,0.21875,0.0625,-0.3125,0.0,0.0,0.0
1664934821867,-0.9814453,0.13378906,0.15234375,-0.59375,-0.21875,0.0,0.0,0.0,0.0
1664934821911,-0.98828125,0.13183594,0.15234375,0.28125,0.5,0.0,0.0,0.0,0.0
1664934821958,-0.9873047,0.13671875,0.13867188,0.78125,-0.71875,-0.53125,0.0,0.0,0.0
1664934822002,-0.9814453,0.13769531,0.140625,0.15625,0.625,-0.0625,0.0,0.0,0.0
1664934822025,-0.9765625,0.13671875,0.1484375,-0.1875,-0.34375,-0.0625,0.0,0.0,0.0
1664934822075,-0.96972656,0.12695312,0.15039062,0.0,-0.0625,-0.125,-77.375,14.3125,-145.25
1664934822117,-0.9746094,0.13476562,0.14453125,-0.1875,-0.3125,0.0,0.0,0.0,0.0
1664934822159,-0.9892578,0.13574219,0.15527344,-0.0625,0.25,-0.0625,0.0,0.0,0.0
1664934822183,-0.98046875,0.140625,0.14746094,0.0,-0.25,0.0,0.0,0.0,0.0
1664934822227,-0.9873047,0.13574219,0.14257812,0.0,-0.46875,-0.1875,0.0,0.0,0.0
1664934822273,-0.984375,0.12988281,0.14648438,-0.25,0.375,-0.1875,0.0,0.0,0.0
1664934822319,-0.9863281,0.13378906,0.1328125,0.0625,-0.25,-0.125,0.0,0.0,0.0
1664934822362,-0.98339844,0.12792969,0.16210938,0.0625,-0.1875,-0.1875,0.0,0.0,0.0
1664934822385,-0.9785156,0.13769531,0.13476562,0.15625,-0.0625,-0.125,0.0,0.0,0.0
1664934822432,-0.9794922,0.13085938,0.14355469,-0.25,-0.0625,-0.1875,0.0,0.0,0.0
1664934822475,-0.98535156,0.13183594,0.15429688,0.0,-0.0625,0.0,0.0,0.0,0.0
1664934822522,-0.99316406,0.13671875,0.15527344,0.125,-0.0625,-0.28125,0.0,0.0,0.0
1664934822587,-0.98339844,0.12695312,0.1484375,0.15625,0.0,-0.25,-77.5625,13.6875,-143.3125
1664934822589,-0.9814453,0.12890625,0.14355469,-0.375,-0.25,-0.0625,0.0,0.0,0.0
1664934822633,-0.9824219,0.13183594,0.15820312,0.0625,0.375,-0.0625,0.0,0.0,0.0
1664934822677,-0.9746094,0.13085938,0.15722656,0.21875,-0.34375,-0.0625,0.0,0.0,0.0
1664934822722,-0.9814453,0.13769531,0.14648438,0.15625,0.0625,-0.28125,0.0,0.0,0.0
1664934822745,-0.9794922,0.14550781,0.15527344,0.0,-0.40625,0.0625,0.0,0.0,0.0
1664934822792,-0.97753906,0.13769531,0.15332031,0.21875,-0.0625,-0.25,0.0,0.0,0.0
1664934822834,-0.9794922,0.13574219,0.14746094,-0.1875,-0.3125,-0.1875,0.0,0.0,0.0
1664934822880,-0.9785156,0.13183594,0.15722656,0.0,0.125,0.0625,0.0,0.0,0.0
1664934822902,-0.98046875,0.13574219,0.13183594,-0.25,-0.34375,-0.0625,0.0,0.0,0.0
1664934822947,-0.9892578,0.12890625,0.14355469,0.21875,0.25,-0.0625,0.0,0.0,0.0
1664934822991,-0.97753906,0.13769531,0.14160156,-0.25,-0.3125,0.0,0.0,0.0,0.0
1664934823038,-0.97753906,0.12597656,0.15429688,-0.1875,-0.46875,-0.0625,0.0,0.0,0.0
1664934823083,-0.9785156,0.12988281,0.16601562,0.0625,0.0,-0.125,-78.75,12.9375,-145.375
1664934823105,-0.98046875,0.13769531,0.15332031,0.125,0.0,0.0,0.0,0.0,0.0
1664934823151,-0.9794922,0.13378906,0.14550781,0.0625,-0.34375,0.0625,0.0,0.0,0.0
1664934823193,-0.9794922,0.13671875,0.13769531,0.125,-0.0625,0.0625,0.0,0.0,0.0
1664934823239,-0.97753906,0.13964844,0.15234375,0.53125,0.3125,-0.1875,0.0,0.0,0.0
1664934823263,-0.9794922,0.12890625,0.15722656,-0.25,-0.53125,-0.0625,0.0,0.0,0.0
1664934823353,-0.98339844,0.13574219,0.14257812,0.125,0.1875,-0.1875,0.0,0.0,0.0
1664934823355,-0.98339844,0.12792969,0.14648438,0.0625,-0.0625,0.125,0.0,0.0,0.0
1664934823407,-0.9824219,0.12011719,0.16992188,0.59375,-0.0625,0.0,0.0,0.0,0.0
1664934823442,-0.9863281,0.13183594,0.13574219,0.15625,-0.34375,-0.125,0.0,0.0,0.0
1664934823469,-0.98046875,0.13574219,0.15527344,0.53125,-0.96875,-0.125,0.0,0.0,0.0
1664934823512,-0.9921875,0.12402344,0.15332031,-1.15625,0.75,0.3125,0.0,0.0,0.0
1664934823559,-0.97753906,0.13671875,0.15722656,0.96875,-0.53125,-0.28125,-78.3125,12.9375,-145.125
1664934823600,-0.98339844,0.13476562,0.13671875,-0.5625,0.5,0.3125,0.0,0.0,0.0
1664934823623,-0.9824219,0.13867188,0.14550781,-0.125,-0.0625,-0.0625,0.0,0.0,0.0
1664934823669,-0.98046875,0.13574219,0.15234375,0.0625,0.3125,-0.0625,0.0,0.0,0.0
1664934823712,-0.98046875,0.13476562,0.14648438,0.15625,0.125,-0.1875,0.0,0.0,0.0
1664934823758,-0.9785156,0.1328125,0.1484375,0.125,0.0,-0.28125,0.0,0.0,0.0
1664934823805,-0.97558594,0.13476562,0.15136719,0.15625,-0.3125,0.1875,0.0,0.0,0.0
1664934823848,-0.98046875,0.13476562,0.14257812,0.59375,-0.0625,-0.0625,0.0,0.0,0.0
1664934823871,-0.9794922,0.13867188,0.14453125,0.59375,-0.0625,-0.1875,0.0,0.0,0.0
1664934823917,-0.9794922,0.13085938,0.15820312,0.28125,0.0625,0.1875,0.0,0.0,0.0
1664934823959,-0.97558594,0.140625,0.14453125,0.125,0.1875,-0.0625,0.0,0.0,0.0
1664934823987,-0.9814453,0.13085938,0.14941406,-0.1875,-0.3125,0.1875,0.0,0.0,0.0
1664934824027,-0.9736328,0.13183594,0.1484375,-0.125,-0.3125,0.0625,0.0,0.0,0.0
1664934824073,-0.9765625,0.12792969,0.14550781,-0.1875,0.1875,0.0625,-77.875,13.8125,-145.25
1664934824117,-0.984375,0.14257812,0.15136719,-0.375,0.8125,0.1875,0.0,0.0,0.0
1664934824163,-0.96484375,0.13867188,0.15332031,0.28125,-0.84375,-0.125,0.0,0.0,0.0
1664934824183,-0.98339844,0.13574219,0.15332031,-0.5,0.8125,0.125,0.0,0.0,0.0
1664934824229,-0.9863281,0.13378906,0.12890625,-0.25,-0.59375,-0.0625,0.0,0.0,0.0
1664934824274,-0.97753906,0.13476562,0.1484375,0.46875,-0.1875,-0.34375,0.0,0.0,0.0
1664934824321,-0.9814453,0.14453125,0.15039062,-0.5,-0.3125,0.0625,0.0,0.0,0.0
1664934824348,-0.9785156,0.13574219,0.15136719,-0.6875,0.1875,0.0,0.0,0.0,0.0
1664934824389,-0.97265625,0.14160156,0.15527344,0.0,0.4375,0.0,0.0,0.0,0.0
1664934824432,-0.98828125,0.13476562,0.14453125,-0.25,-0.34375,0.125,0.0,0.0,0.0
1664934824480,-0.9892578,0.13183594,0.15722656,-0.3125,-0.1875,-0.25,0.0,0.0,0.0
1664934824525,-0.9765625,0.13574219,0.14160156,0.28125,-0.1875,-0.1875,0.0,0.0,0.0
1664934824546,-0.98339844,0.13574219,0.13476562,0.71875,-0.25,-0.125,-77.5625,13.375,-144.625
1664934824590,-0.98339844,0.13671875,0.16503906,-0.125,0.1875,-0.125,0.0,0.0,0.0
1664934824634,-0.9785156,0.13867188,0.15527344,0.40625,-0.71875,-0.1875,0.0,0.0,0.0
1664934824680,-0.9765625,0.13476562,0.15136719,0.34375,0.0625,-0.0625,0.0,0.0,0.0
1664934824702,-0.98339844,0.12890625,0.13964844,-0.4375,0.125,0.0625,0.0,0.0,0.0
1664934824750,-0.97558594,0.13867188,0.15234375,-0.0625,-0.3125,-0.25,0.0,0.0,0.0
1664934824794,-0.98535156,0.12597656,0.15625,-0.1875,0.125,0.0,0.0,0.0,0.0
1664934824839,-0.9746094,0.14941406,0.15429688,0.34375,-0.0625,-0.0625,0.0,0.0,0.0
1664934824882,-0.98339844,0.13085938,0.15332031,0.28125,0.125,-0.1875,0.0,0.0,0.0
1664934824905,-0.9824219,0.13085938,0.14257812,-0.0625,-0.125,-0.28125,0.0,0.0,0.0
1664934824950,-0.9863281,0.14257812,0.15527344,-0.0625,-0.25,-0.125,0.0,0.0,0.0
1664934824995,-0.9765625,0.1328125,0.14746094,-0.25,0.1875,0.125,0.0,0.0,0.0
1664934825042,-0.97753906,0.14355469,0.1484375,0.40625,-0.25,-0.28125,0.0,0.0,0.0
1664934825086,-0.9902344,0.13964844,0.15039062,0.125,-0.125,-0.125,-77.375,13.25,-145.875
1664934825110,-0.9824219,0.140625,0.15722656,-0.5,0.125,-0.125,0.0,0.0,0.0
1664934825157,-0.9794922,0.12597656,0.15039062,0.125,0.0,-0.125,0.0,0.0,0.0
1664934825199,-0.9873047,0.13769531,0.14648438,0.125,-0.0625,-0.125,0.0,0.0,0.0
1664934825242,-0.98046875,0.13671875,0.15429688,0.0,-0.53125,-0.1875,0.0,0.0,0.0
1664934825263,-0.98828125,0.13574219,0.15429688,0.0625,0.0,-0.125,0.0,0.0,0.0
1664934825310,-0.9873047,0.13671875,0.14355469,0.46875,0.0625,0.0625,0.0,0.0,0.0
1664934825364,-0.9873047,0.13867188,0.14746094,0.0,-0.34375,-0.125,0.0,0.0,0.0
1664934825399,-0.9785156,0.1484375,0.13769531,0.125,0.25,-0.0625,0.0,0.0,0.0
1664934825426,-0.99121094,0.12988281,0.16113281,0.15625,0.125,0.0625,0.0,0.0,0.0
1664934825469,-0.98046875,0.13964844,0.14746094,-0.25,-0.40625,-0.1875,0.0,0.0,0.0
1664934825512,-0.98046875,0.1328125,0.14648438,0.0625,-0.1875,-0.1875,0.0,0.0,0.0
1664934825559,-0.9746094,0.13476562,0.15234375,0.53125,0.0,-0.0625,-78.3125,13.375,-145.375
1664934825603,-0.9746094,0.12792969,0.1484375,-0.375,0.0,0.3125,0.0,0.0,0.0
1664934825626,-0.9863281,0.14453125,0.15722656,0.34375,0.25,-0.125,0.0,0.0,0.0
1664934825694,-0.97753906,0.13671875,0.15039062,-0.0625,-0.3125,0.0,0.0,0.0,0.0
1664934825716,-0.9765625,0.1328125,0.14453125,-0.3125,-0.125,0.0625,0.0,0.0,0.0
1664934825764,-0.9765625,0.13378906,0.16308594,0.21875,-0.125,-0.0625,0.0,0.0,0.0
1664934825804,-0.9794922,0.12988281,0.14160156,0.0625,0.4375,0.0625,0.0,0.0,0.0
1664934825828,-0.9814453,0.1328125,0.14648438,-0.1875,-0.53125,-0.125,0.0,0.0,0.0
1664934825875,-0.9785156,0.13085938,0.15136719,-0.4375,0.25,0.0,0.0,0.0,0.0
1664934825917,-0.97265625,0.13574219,0.14550781,0.34375,0.3125,-0.0625,0.0,0.0,0.0
1664934825966,-0.9746094,0.13769531,0.15722656,-0.3125,-0.65625,0.125,0.0,0.0,0.0
1664934826009,-0.97558594,0.12597656,0.13574219,0.46875,0.0,-0.0625,0.0,0.0,0.0
1664934826030,-0.984375,0.13183594,0.14453125,0.65625,-0.40625,-0.28125,0.0,0.0,0.0
1664934826078,-0.9794922,0.1328125,0.14453125,0.125,0.125,0.0625,-77.375,13.8125,-144.5
1664934826120,-0.9814453,0.13476562,0.15332031,-0.3125,0.4375,0.25,0.0,0.0,0.0
1664934826143,-0.9892578,0.13769531,0.15820312,0.21875,-0.46875,0.0,0.0,0.0,0.0
1664934826210,-0.98046875,0.13574219,0.14550781,0.28125,0.125,0.0625,0.0,0.0,0.0
1664934826237,-0.9746094,0.14355469,0.13964844,0.125,-0.25,0.0,0.0,0.0,0.0
1664934826277,-0.984375,0.13085938,0.15136719,-0.375,0.125,0.25,0.0,0.0,0.0
1664934826322,-0.9794922,0.13574219,0.15332031,0.125,0.75,0.125,0.0,0.0,0.0
1664934826345,-0.9746094,0.13476562,0.14257812,-0.125,-0.84375,-0.125,0.0,0.0,0.0
1664934826388,-0.9794922,0.13964844,0.15429688,0.34375,0.5,0.1875,0.0,0.0,0.0
1664934826435,-0.98828125,0.1328125,0.14453125,-0.5,-0.84375,-0.125,0.0,0.0,0.0
1664934826479,-0.98339844,0.13671875,0.15820312,0.15625,-0.1875,-0.25,0.0,0.0,0.0
1664934826504,-0.97753906,0.13671875,0.14160156,-0.6875,-0.1875,0.1875,0.0,0.0,0.0
1664934826546,-0.98339844,0.13378906,0.15136719,-0.625,-0.40625,0.0625,-78.125,13.5625,-146.3125
1664934826594,-0.98046875,0.14257812,0.11816406,-0.9375,-2.1875,0.1875,0.0,0.0,0.0
1664934826638,-0.98339844,0.16210938,0.14160156,-4.28125,1.15625,0.0,0.0,0.0,0.0
1664934826729,-0.97753906,0.125,0.16503906,-3.0,0.4375,0.0,0.0,0.0,0.0
1664934826733,-0.97558594,0.13085938,0.16601562,-1.71875,1.65625,1.0,0.0,0.0,0.0
1664934826750,-0.98535156,0.13671875,0.16308594,0.84375,-1.46875,0.0625,0.0,0.0,0.0
1664934826795,-0.9794922,0.13769531,0.13183594,-1.71875,-1.875,-0.78125,0.0,0.0,0.0
1664934826841,-0.97558594,0.13867188,0.16015625,-4.40625,0.875,0.1875,0.0,0.0,0.0
1664934826885,-0.9814453,0.14160156,0.15136719,-2.75,0.625,0.6875,0.0,0.0,0.0
1664934826937,-0.9873047,0.140625,0.17871094,-3.90625,0.0625,1.46875,0.0,0.0,0.0
1664934826951,-0.9765625,0.12890625,0.16503906,-4.28125,-0.46875,0.0,0.0,0.0,0.0
1664934826998,-0.9707031,0.12695312,0.16210938,-4.71875,-0.0625,0.4375,0.0,0.0,0.0
1664934827042,-0.9824219,0.13769531,0.16308594,-2.875,0.75,1.0,0.0,0.0,0.0
1664934827065,-0.9794922,0.12207031,0.16601562,-2.34375,-0.53125,1.09375,-77.375,16.0625,-145.5625
1664934827134,-0.9863281,0.107421875,0.15625,-0.375,-1.9375,0.0,0.0,0.0,0.0
1664934827154,-0.9941406,0.13769531,0.13964844,1.75,1.34375,-0.96875,0.0,0.0,0.0
1664934827203,-0.9794922,0.12890625,0.1328125,1.4375,-1.28125,-0.53125,0.0,0.0,0.0
1664934827226,-0.9736328,0.140625,0.13476562,-0.125,-0.59375,-0.59375,0.0,0.0,0.0
1664934827270,-0.99121094,0.14160156,0.14550781,-1.78125,0.375,0.5,0.0,0.0,0.0
1664934827338,-0.98339844,0.1328125,0.140625,-2.21875,-0.65625,-0.1875,0.0,0.0,0.0
1664934827357,-0.9814453,0.11816406,0.1484375,-1.34375,-0.34375,-0.1875,0.0,0.0,0.0
1664934827402,-0.97265625,0.119140625,0.171875,0.96875,-1.34375,-0.84375,0.0,0.0,0.0
1664934827424,-0.97558594,0.12597656,0.16210938,0.78125,-1.15625,-0.78125,0.0,0.0,0.0
1664934827469,-0.9814453,0.13964844,0.15625,1.15625,0.3125,-0.53125,0.0,0.0,0.0
1664934827514,-0.9902344,0.13671875,0.16503906,0.96875,-0.65625,-0.46875,0.0,0.0,0.0
1664934827562,-0.9794922,0.13085938,0.15332031,0.34375,-0.71875,-0.65625,-78.0,15.9375,-144.625
1664934827582,-0.9863281,0.14453125,0.15039062,1.75,0.375,-0.78125,0.0,0.0,0.0
1664934827627,-0.98046875,0.14355469,0.15917969,0.40625,-1.15625,-0.65625,0.0,0.0,0.0
1664934827672,-0.96972656,0.13476562,0.15820312,0.34375,0.25,-0.28125,0.0,0.0,0.0
1664934827719,-0.9794922,0.14453125,0.16894531,-0.0625,-0.53125,-0.125,0.0,0.0,0.0
1664934827762,-0.98339844,0.14257812,0.14550781,0.0,-0.53125,-0.53125,0.0,0.0,0.0
1664934827786,-0.9824219,0.1328125,0.16210938,0.15625,-0.0625,-0.34375,0.0,0.0,0.0
1664934827830,-0.98046875,0.13476562,0.14257812,-1.15625,-2.4375,-0.1875,0.0,0.0,0.0
1664934827877,-0.984375,0.13574219,0.15625,-1.0625,-2.875,-0.65625,0.0,0.0,0.0
1664934827922,-0.98535156,0.13867188,0.16113281,-0.125,-4.375,-0.78125,0.0,0.0,0.0
1664934827947,-0.97265625,0.12890625,0.16113281,-3.1875,-4.15625,-0.53125,0.0,0.0,0.0
1664934827989,-0.9638672,0.1484375,0.15820312,-0.5,-2.0,-0.65625,0.0,0.0,0.0
1664934828053,-0.98046875,0.16601562,0.15820312,0.15625,0.75,1.40625,0.0,0.0,0.0
1664934828079,-0.96972656,0.15527344,0.17382812,-6.375,-0.34375,3.5,-79.0625,15.5,-144.625
1664934828123,-0.98046875,0.14648438,0.17089844,-8.4375,1.84375,3.96875,0.0,0.0,0.0
1664934828144,-0.9873047,0.14648438,0.17773438,-6.59375,-0.90625,2.28125,0.0,0.0,0.0
1664934828189,-0.97265625,0.14648438,0.17578125,-7.53125,-2.3125,2.4375,0.0,0.0,0.0
1664934828236,-0.9638672,0.13964844,0.18554688,-9.96875,-0.1875,2.9375,0.0,0.0,0.0
