# Sensor type: Thingy
# Activity type: Sitting bent forward
# Activity code: 4
# Subject id: s1912575
# Notes: 
timestamp,accel_x,accel_y,accel_z,gyro_x,gyro_y,gyro_z,mag_x,mag_y,mag_z
1664371502819,-0.8847656,0.033203125,0.47851562,-1.03125,6.125,-3.90625,0.0,0.0,0.0
1664371502848,-0.8730469,0.06542969,0.4423828,-2.25,1.71875,-2.8125,0.0,0.0,0.0
1664371502908,-0.8544922,0.021484375,0.46875,-1.28125,2.34375,4.03125,0.0,0.0,0.0
1664371502940,-0.8798828,0.029296875,0.48535156,-2.5625,4.71875,2.09375,0.0,0.0,0.0
1664371502970,-0.87109375,0.040039062,0.47070312,-3.0,8.03125,6.09375,0.0,0.0,0.0
1664371503029,-0.9160156,0.10644531,0.42089844,-1.65625,9.0,7.34375,0.0,0.0,0.0
1664371503060,-0.8798828,0.059570312,0.4013672,1.53125,10.40625,8.5,-49.375,12.5,-114.5
1664371503090,-0.8769531,0.037109375,0.45117188,6.65625,15.71875,7.15625,0.0,0.0,0.0
1664371503149,-0.88378906,0.0546875,0.421875,8.59375,14.96875,5.375,0.0,0.0,0.0
1664371503180,-0.89160156,0.06738281,0.40527344,9.625,12.21875,10.3125,0.0,0.0,0.0
1664371503210,-0.8876953,0.08886719,0.40625,10.0625,12.28125,18.4375,0.0,0.0,0.0
1664371503269,-0.90722656,0.099609375,0.4033203,12.09375,6.6875,17.8125,0.0,0.0,0.0
1664371503298,-0.89941406,0.115234375,0.421875,12.375,5.40625,17.875,0.0,0.0,0.0
1664371503330,-0.8984375,0.11035156,0.4033203,14.15625,6.90625,15.25,0.0,0.0,0.0
1664371503389,-0.91015625,0.16210938,0.3857422,15.1875,7.53125,11.34375,0.0,0.0,0.0
1664371503420,-0.90625,0.171875,0.3564453,14.65625,11.4375,12.21875,0.0,0.0,0.0
1664371503450,-0.91015625,0.17382812,0.3515625,11.28125,10.8125,12.34375,0.0,0.0,0.0
1664371503509,-0.9267578,0.23828125,0.3408203,9.5625,10.28125,10.375,0.0,0.0,0.0
1664371503539,-0.9160156,0.23339844,0.328125,6.09375,8.25,9.15625,0.0,0.0,0.0
1664371503599,-0.8886719,0.20410156,0.3310547,4.6875,8.75,9.34375,-50.6875,18.1875,-120.0625
1664371503661,-0.9160156,0.22753906,0.3251953,4.5625,10.75,9.96875,0.0,0.0,0.0
1664371503664,-0.9238281,0.22070312,0.31152344,3.28125,9.78125,11.65625,0.0,0.0,0.0
1664371503690,-0.9326172,0.23046875,0.3046875,3.46875,8.6875,12.53125,0.0,0.0,0.0
1664371503749,-0.8828125,0.2548828,0.2998047,3.71875,7.78125,9.34375,0.0,0.0,0.0
1664371503780,-0.9140625,0.23242188,0.27734375,2.5,7.53125,7.5625,0.0,0.0,0.0
1664371503810,-0.921875,0.24414062,0.27929688,2.0625,4.34375,7.5625,0.0,0.0,0.0
1664371503870,-0.90625,0.2578125,0.27246094,1.28125,2.09375,6.09375,0.0,0.0,0.0
1664371503898,-0.91796875,0.27148438,0.28125,0.125,1.90625,5.4375,0.0,0.0,0.0
1664371503929,-0.9111328,0.265625,0.2626953,-1.03125,1.0625,5.6875,0.0,0.0,0.0
1664371503990,-0.89746094,0.2685547,0.29589844,-1.96875,0.15625,5.0625,0.0,0.0,0.0
1664371504020,-0.9033203,0.2783203,0.31152344,-2.09375,-0.09375,4.09375,0.0,0.0,0.0
1664371504049,-0.9003906,0.26660156,0.2890625,-1.71875,-1.625,2.1875,-49.375,20.75,-123.0625
1664371504109,-0.90234375,0.25195312,0.3017578,-0.90625,-2.25,0.75,0.0,0.0,0.0
1664371504139,-0.9033203,0.24902344,0.3076172,-0.25,-2.3125,0.625,0.0,0.0,0.0
1664371504171,-0.8984375,0.26953125,0.30078125,0.78125,-1.03125,-0.25,0.0,0.0,0.0
1664371504230,-0.91015625,0.27148438,0.31835938,0.71875,-0.09375,-1.46875,0.0,0.0,0.0
1664371504259,-0.9082031,0.26757812,0.30664062,0.3125,-0.53125,-0.84375,0.0,0.0,0.0
1664371504290,-0.9140625,0.26757812,0.30371094,0.0625,-0.09375,-0.84375,0.0,0.0,0.0
1664371504351,-0.90722656,0.2578125,0.31445312,-0.3125,-0.15625,-0.59375,0.0,0.0,0.0
1664371504379,-0.9091797,0.2548828,0.30078125,-0.0625,0.03125,0.1875,0.0,0.0,0.0
1664371504412,-0.8984375,0.25,0.3046875,0.53125,0.9375,0.0,0.0,0.0,0.0
1664371504470,-0.8984375,0.26171875,0.296875,1.03125,1.59375,0.375,0.0,0.0,0.0
1664371504499,-0.9199219,0.2763672,0.30566406,1.21875,1.59375,0.96875,0.0,0.0,0.0
1664371504530,-0.9003906,0.265625,0.2939453,1.03125,1.90625,0.625,0.0,0.0,0.0
1664371504590,-0.9111328,0.27539062,0.3017578,1.40625,2.46875,1.15625,-49.375,21.8125,-121.375
1664371504620,-0.9082031,0.2529297,0.30371094,0.96875,2.71875,1.21875,0.0,0.0,0.0
1664371504648,-0.9121094,0.27539062,0.29589844,1.09375,2.15625,0.875,0.0,0.0,0.0
1664371504710,-0.90625,0.26367188,0.2998047,1.28125,1.90625,0.5625,0.0,0.0,0.0
1664371504740,-0.9082031,0.2734375,0.28808594,1.03125,1.78125,0.75,0.0,0.0,0.0
1664371504769,-0.9091797,0.2607422,0.2734375,1.34375,2.15625,0.8125,0.0,0.0,0.0
1664371504828,-0.9140625,0.2685547,0.2705078,0.96875,1.90625,0.1875,0.0,0.0,0.0
1664371504858,-0.91308594,0.2705078,0.2919922,0.90625,1.375,0.125,0.0,0.0,0.0
1664371504890,-0.9169922,0.2685547,0.27441406,0.46875,1.0,-0.125,0.0,0.0,0.0
1664371504950,-0.9042969,0.2607422,0.30078125,0.96875,1.3125,0.1875,0.0,0.0,0.0
1664371504979,-0.9160156,0.2705078,0.28027344,0.3125,0.75,0.125,0.0,0.0,0.0
1664371505010,-0.9082031,0.26660156,0.2939453,0.125,0.625,-0.3125,0.0,0.0,0.0
1664371505070,-0.9121094,0.2734375,0.2919922,0.1875,0.375,-0.125,-49.8125,20.875,-121.25
1664371505102,-0.91503906,0.26757812,0.26953125,0.0,0.25,-0.125,0.0,0.0,0.0
1664371505132,-0.9121094,0.27148438,0.28808594,0.1875,0.5,-0.0625,0.0,0.0,0.0
1664371505189,-0.90722656,0.265625,0.28125,-0.0625,0.03125,-0.1875,0.0,0.0,0.0
1664371505221,-0.9091797,0.2685547,0.29589844,0.25,0.3125,0.0625,0.0,0.0,0.0
1664371505250,-0.91308594,0.2685547,0.28222656,0.0625,0.375,-0.125,0.0,0.0,0.0
1664371505311,-0.91015625,0.27539062,0.28027344,0.375,0.3125,0.5,0.0,0.0,0.0
1664371505339,-0.90625,0.2783203,0.27929688,0.46875,0.5,0.0625,0.0,0.0,0.0
1664371505369,-0.9140625,0.2734375,0.27539062,0.3125,0.625,-0.125,0.0,0.0,0.0
1664371505432,-0.9111328,0.2685547,0.2861328,0.375,0.6875,0.3125,0.0,0.0,0.0
1664371505459,-0.9121094,0.2685547,0.2685547,0.40625,0.5,0.125,0.0,0.0,0.0
1664371505490,-0.9140625,0.27246094,0.28320312,0.375,0.375,0.0,0.0,0.0,0.0
1664371505551,-0.9189453,0.2626953,0.2919922,0.125,0.3125,-0.0625,0.0,0.0,0.0
1664371505582,-0.91308594,0.2705078,0.27246094,0.25,0.21875,0.1875,-49.625,20.3125,-121.125
1664371505610,-0.9082031,0.2705078,0.2861328,0.125,0.3125,-0.0625,0.0,0.0,0.0
1664371505671,-0.9111328,0.27539062,0.27441406,0.0,0.15625,-0.125,0.0,0.0,0.0
1664371505701,-0.91308594,0.27539062,0.28125,0.0625,0.3125,0.375,0.0,0.0,0.0
1664371505729,-0.9033203,0.2705078,0.28320312,0.1875,0.25,0.5,0.0,0.0,0.0
1664371505789,-0.9140625,0.27539062,0.27929688,0.25,0.5,0.0,0.0,0.0,0.0
1664371505822,-0.9042969,0.27148438,0.28027344,0.1875,0.15625,0.3125,0.0,0.0,0.0
1664371505849,-0.9160156,0.2763672,0.2841797,0.1875,0.375,0.25,0.0,0.0,0.0
1664371505940,-0.91796875,0.27148438,0.265625,0.0625,0.15625,0.25,0.0,0.0,0.0
1664371505942,-0.921875,0.27441406,0.27441406,0.0,0.15625,0.25,0.0,0.0,0.0
1664371505969,-0.92285156,0.27929688,0.29492188,0.0625,0.3125,0.25,0.0,0.0,0.0
1664371506029,-0.9091797,0.27929688,0.28808594,0.3125,-0.03125,0.25,0.0,0.0,0.0
1664371506061,-0.90722656,0.27148438,0.2783203,-0.0625,-0.03125,0.125,-50.5625,21.625,-120.8125
1664371506090,-0.90625,0.27929688,0.265625,-0.25,-0.03125,0.3125,0.0,0.0,0.0
1664371506149,-0.91503906,0.26757812,0.27539062,-0.5,-0.40625,-0.125,0.0,0.0,0.0
1664371506180,-0.91503906,0.27148438,0.27539062,-0.25,-0.84375,-0.25,0.0,0.0,0.0
1664371506210,-0.91015625,0.26660156,0.28320312,0.0,-0.59375,-0.25,0.0,0.0,0.0
1664371506270,-0.9189453,0.2734375,0.27539062,-0.25,-0.46875,-0.3125,0.0,0.0,0.0
1664371506302,-0.91015625,0.2705078,0.2705078,-0.1875,-0.34375,0.125,0.0,0.0,0.0
1664371506329,-0.9121094,0.27148438,0.27441406,-0.25,-0.21875,-0.0625,0.0,0.0,0.0
1664371506389,-0.91796875,0.2705078,0.2861328,-0.25,-0.03125,0.4375,0.0,0.0,0.0
1664371506420,-0.9091797,0.2734375,0.26367188,-0.0625,0.03125,0.375,0.0,0.0,0.0
1664371506448,-0.90722656,0.2705078,0.29296875,0.1875,0.3125,0.0625,0.0,0.0,0.0
1664371506509,-0.9082031,0.27148438,0.27441406,0.0,-0.09375,0.375,0.0,0.0,0.0
1664371506540,-0.90722656,0.27539062,0.27929688,0.0625,0.25,-0.0625,0.0,0.0,0.0
1664371506569,-0.9140625,0.27148438,0.28710938,-0.125,0.09375,0.0625,-50.875,22.375,-121.5625
1664371506628,-0.91015625,0.27246094,0.2861328,0.0,0.15625,0.375,0.0,0.0,0.0
1664371506659,-0.9189453,0.2734375,0.2763672,-0.0625,-0.03125,-0.125,0.0,0.0,0.0
1664371506689,-0.91015625,0.27539062,0.28125,0.0,0.21875,0.0,0.0,0.0,0.0
1664371506749,-0.91503906,0.27539062,0.28125,0.40625,0.21875,-0.125,0.0,0.0,0.0
1664371506782,-0.9091797,0.2705078,0.27929688,0.0625,0.15625,0.0,0.0,0.0,0.0
1664371506810,-0.91015625,0.2841797,0.29101562,-0.0625,0.03125,0.0625,0.0,0.0,0.0
1664371506870,-0.9189453,0.28027344,0.26953125,-0.0625,0.03125,-0.25,0.0,0.0,0.0
1664371506901,-0.90625,0.27441406,0.27246094,0.0,-0.03125,-0.0625,0.0,0.0,0.0
1664371506930,-0.9160156,0.26757812,0.28027344,-0.125,-0.15625,-0.25,0.0,0.0,0.0
1664371506989,-0.9169922,0.27246094,0.2890625,-0.125,-0.15625,0.0,0.0,0.0,0.0
1664371507017,-0.9111328,0.27734375,0.26660156,-0.125,-0.46875,-0.1875,0.0,0.0,0.0
1664371507049,-0.90722656,0.27929688,0.2763672,-0.125,0.03125,-0.3125,-49.625,20.75,-122.4375
1664371507109,-0.9082031,0.2705078,0.2890625,-0.125,-0.21875,0.0,0.0,0.0,0.0
1664371507139,-0.9091797,0.2734375,0.28710938,-0.0625,0.03125,0.0625,0.0,0.0,0.0
1664371507169,-0.9111328,0.27539062,0.2763672,0.0,0.21875,-0.0625,0.0,0.0,0.0
1664371507231,-0.9140625,0.26953125,0.27734375,-0.0625,-0.03125,0.0625,0.0,0.0,0.0
1664371507259,-0.9140625,0.27148438,0.27734375,0.125,0.03125,-0.0625,0.0,0.0,0.0
1664371507289,-0.9033203,0.2763672,0.2705078,-0.0625,-0.03125,-0.125,0.0,0.0,0.0
1664371507350,-0.91015625,0.26367188,0.2841797,-0.0625,0.03125,0.125,0.0,0.0,0.0
1664371507380,-0.91503906,0.26367188,0.27539062,-0.125,0.03125,0.25,0.0,0.0,0.0
1664371507412,-0.9082031,0.2734375,0.2783203,-0.375,0.4375,0.25,0.0,0.0,0.0
1664371507470,-0.90625,0.2685547,0.27441406,-0.5625,1.125,0.3125,0.0,0.0,0.0
1664371507501,-0.91796875,0.27929688,0.26953125,-0.125,0.9375,-0.0625,0.0,0.0,0.0
1664371507531,-0.90625,0.27441406,0.2890625,0.0,0.75,0.1875,0.0,0.0,0.0
1664371507589,-0.90234375,0.2685547,0.2861328,-0.3125,0.21875,0.625,-48.125,21.5,-122.0
1664371507620,-0.9082031,0.26660156,0.28710938,0.0,0.5625,0.375,0.0,0.0,0.0
1664371507649,-0.91015625,0.27539062,0.2705078,0.125,0.3125,0.125,0.0,0.0,0.0
1664371507710,-0.91015625,0.26953125,0.27148438,0.46875,0.4375,0.125,0.0,0.0,0.0
1664371507741,-0.91503906,0.2685547,0.27734375,0.125,0.03125,0.0625,0.0,0.0,0.0
1664371507768,-0.90722656,0.2685547,0.26171875,0.3125,0.21875,0.0,0.0,0.0,0.0
1664371507831,-0.921875,0.2763672,0.27441406,0.125,0.15625,0.1875,0.0,0.0,0.0
1664371507859,-0.9013672,0.26757812,0.2685547,0.0625,0.03125,0.0,0.0,0.0,0.0
1664371507891,-0.9199219,0.27148438,0.2890625,0.125,0.15625,0.1875,0.0,0.0,0.0
1664371507950,-0.9160156,0.26757812,0.26660156,0.25,0.15625,0.1875,0.0,0.0,0.0
1664371507980,-0.92285156,0.27441406,0.26757812,0.3125,0.21875,0.375,0.0,0.0,0.0
1664371508010,-0.9013672,0.2783203,0.28027344,0.125,0.09375,0.125,0.0,0.0,0.0
1664371508070,-0.9121094,0.27441406,0.27246094,0.1875,0.15625,0.25,-49.0625,20.875,-121.875
1664371508099,-0.9121094,0.27441406,0.265625,0.1875,-0.15625,0.1875,0.0,0.0,0.0
1664371508128,-0.9169922,0.26660156,0.2734375,-0.0625,-0.09375,0.0625,0.0,0.0,0.0
1664371508220,-0.90234375,0.2705078,0.27148438,0.0,-0.28125,0.0,0.0,0.0,0.0
1664371508224,-0.9140625,0.26171875,0.27441406,0.0,0.15625,0.1875,0.0,0.0,0.0
1664371508248,-0.90625,0.27734375,0.2734375,0.125,0.09375,-0.125,0.0,0.0,0.0
1664371508311,-0.9189453,0.26953125,0.27441406,0.46875,0.375,0.125,0.0,0.0,0.0
1664371508339,-0.9160156,0.27246094,0.27539062,0.3125,0.375,0.375,0.0,0.0,0.0
1664371508371,-0.9160156,0.28222656,0.28125,0.3125,0.5625,0.0625,0.0,0.0,0.0
1664371508436,-0.9121094,0.27929688,0.25878906,0.0,-0.09375,0.125,0.0,0.0,0.0
1664371508460,-0.9111328,0.26953125,0.2783203,-0.0625,-0.34375,0.125,0.0,0.0,0.0
1664371508489,-0.91503906,0.27148438,0.27539062,0.0,-0.28125,0.1875,0.0,0.0,0.0
1664371508550,-0.91015625,0.27148438,0.27539062,-0.0625,-0.03125,-0.0625,0.0,0.0,0.0
1664371508582,-0.90234375,0.28027344,0.27148438,-0.0625,-0.09375,0.0,-48.75,23.0,-122.875
1664371508609,-0.91308594,0.27539062,0.2841797,-0.125,0.09375,-0.125,0.0,0.0,0.0
1664371508670,-0.92089844,0.27929688,0.28222656,-0.0625,0.15625,0.125,0.0,0.0,0.0
1664371508699,-0.89941406,0.27246094,0.2734375,-0.0625,-0.09375,-0.25,0.0,0.0,0.0
1664371508730,-0.921875,0.27246094,0.27246094,0.0625,-0.03125,0.0,0.0,0.0,0.0
1664371508790,-0.91015625,0.2783203,0.2763672,-0.125,-0.28125,0.0,0.0,0.0,0.0
1664371508822,-0.9189453,0.27246094,0.27734375,-0.125,-0.09375,0.0,0.0,0.0,0.0
1664371508849,-0.92089844,0.26757812,0.28222656,-0.1875,-0.28125,0.1875,0.0,0.0,0.0
1664371508909,-0.90722656,0.2626953,0.28125,0.0,0.09375,-0.1875,0.0,0.0,0.0
1664371508941,-0.9140625,0.2783203,0.27148438,-0.375,0.03125,0.375,0.0,0.0,0.0
1664371508969,-0.90722656,0.26660156,0.26464844,-0.1875,-0.03125,0.1875,0.0,0.0,0.0
1664371509029,-0.91015625,0.2763672,0.28027344,0.0625,0.3125,0.375,0.0,0.0,0.0
1664371509061,-0.90234375,0.26953125,0.28320312,0.25,0.21875,0.3125,-48.75,21.1875,-121.25
1664371509090,-0.9160156,0.2734375,0.2705078,0.0625,0.3125,0.875,0.0,0.0,0.0
1664371509148,-0.9140625,0.27734375,0.27441406,0.0,0.21875,0.3125,0.0,0.0,0.0
1664371509181,-0.90625,0.27246094,0.27734375,0.1875,0.09375,0.375,0.0,0.0,0.0
1664371509210,-0.90722656,0.2705078,0.28808594,0.1875,0.15625,0.375,0.0,0.0,0.0
1664371509269,-0.90722656,0.26953125,0.2763672,0.125,0.5,0.8125,0.0,0.0,0.0
1664371509301,-0.9033203,0.2763672,0.2763672,0.1875,0.8125,1.09375,0.0,0.0,0.0
1664371509329,-0.9238281,0.28320312,0.2529297,0.1875,0.625,0.90625,0.0,0.0,0.0
1664371509390,-0.90722656,0.27246094,0.27734375,0.0625,0.625,1.28125,0.0,0.0,0.0
1664371509420,-0.91015625,0.2939453,0.29296875,0.78125,0.6875,1.53125,0.0,0.0,0.0
1664371509449,-0.9111328,0.2705078,0.27539062,0.1875,0.5,0.90625,0.0,0.0,0.0
1664371509509,-0.91503906,0.2685547,0.27148438,0.1875,0.75,1.03125,0.0,0.0,0.0
1664371509539,-0.91796875,0.27539062,0.27246094,0.25,0.9375,1.03125,0.0,0.0,0.0
1664371509571,-0.9082031,0.2763672,0.2685547,0.53125,1.0,1.46875,-49.5,21.625,-120.8125
1664371509632,-0.9199219,0.28222656,0.26171875,0.1875,0.8125,0.6875,0.0,0.0,0.0
1664371509659,-0.90625,0.28515625,0.27246094,0.125,0.5,0.75,0.0,0.0,0.0
1664371509690,-0.9121094,0.28027344,0.26757812,0.0625,0.6875,0.5,0.0,0.0,0.0
1664371509750,-0.9199219,0.2763672,0.27539062,-0.125,0.3125,0.625,0.0,0.0,0.0
1664371509778,-0.91308594,0.2783203,0.28515625,0.1875,0.03125,0.125,0.0,0.0,0.0
1664371509809,-0.9121094,0.28222656,0.27246094,0.3125,0.3125,0.0,0.0,0.0,0.0
1664371509869,-0.9003906,0.28027344,0.26757812,0.125,0.21875,0.25,0.0,0.0,0.0
1664371509900,-0.91308594,0.2890625,0.2626953,0.125,0.25,-0.0625,0.0,0.0,0.0
1664371509930,-0.9169922,0.2890625,0.25878906,0.0,-0.03125,0.0,0.0,0.0,0.0
1664371509991,-0.9140625,0.28515625,0.2529297,0.125,0.03125,0.0,0.0,0.0,0.0
1664371510020,-0.9082031,0.28027344,0.25976562,0.125,0.09375,0.0,0.0,0.0,0.0
1664371510049,-0.9140625,0.2919922,0.26367188,0.1875,0.09375,0.0,-49.8125,21.625,-122.625
1664371510109,-0.9160156,0.29101562,0.27246094,-0.0625,-0.03125,-0.1875,0.0,0.0,0.0
1664371510139,-0.91796875,0.28222656,0.2626953,0.125,0.25,-0.125,0.0,0.0,0.0
1664371510170,-0.90722656,0.27929688,0.27246094,-0.0625,-0.03125,0.125,0.0,0.0,0.0
1664371510230,-0.9091797,0.2890625,0.27148438,0.1875,0.25,0.0625,0.0,0.0,0.0
1664371510258,-0.9042969,0.28027344,0.265625,-0.0625,-0.15625,0.0,0.0,0.0,0.0
1664371510288,-0.9042969,0.28222656,0.27539062,0.0625,0.03125,-0.0625,0.0,0.0,0.0
1664371510352,-0.91308594,0.28027344,0.26757812,0.0,-0.15625,-0.46875,0.0,0.0,0.0
1664371510380,-0.91015625,0.28125,0.26464844,0.0,0.15625,0.0625,0.0,0.0,0.0
1664371510408,-0.9091797,0.28222656,0.26660156,-0.0625,-0.03125,-0.0625,0.0,0.0,0.0
1664371510502,-0.9160156,0.2890625,0.27246094,0.0,0.03125,-0.0625,0.0,0.0,0.0
1664371510505,-0.91015625,0.28027344,0.26757812,0.1875,-0.15625,-0.3125,0.0,0.0,0.0
1664371510529,-0.9121094,0.28027344,0.27539062,0.46875,0.09375,-0.125,0.0,0.0,0.0
1664371510589,-0.91015625,0.28222656,0.27148438,-0.125,-0.15625,0.0625,-49.375,21.0625,-121.6875
1664371510619,-0.9189453,0.28320312,0.2607422,0.0,0.25,-0.125,0.0,0.0,0.0
1664371510650,-0.9042969,0.27734375,0.25976562,0.0625,-0.15625,-0.1875,0.0,0.0,0.0
1664371510710,-0.9140625,0.2841797,0.27148438,0.1875,0.03125,-0.375,0.0,0.0,0.0
1664371510739,-0.9189453,0.28320312,0.26953125,-0.0625,0.03125,-0.0625,0.0,0.0,0.0
1664371510769,-0.90625,0.28515625,0.2763672,-0.0625,0.15625,-0.1875,0.0,0.0,0.0
1664371510830,-0.9111328,0.2783203,0.26757812,-0.3125,0.09375,-0.1875,0.0,0.0,0.0
1664371510859,-0.9042969,0.28027344,0.2734375,-0.125,0.03125,0.0,0.0,0.0,0.0
1664371510890,-0.9091797,0.28515625,0.26171875,0.0625,0.21875,-0.0625,0.0,0.0,0.0
1664371510950,-0.9003906,0.28027344,0.2783203,0.25,0.09375,0.0,0.0,0.0,0.0
1664371510980,-0.9111328,0.27929688,0.2705078,0.3125,0.21875,0.0625,0.0,0.0,0.0
1664371511009,-0.91308594,0.2841797,0.27539062,0.0,0.03125,-0.25,0.0,0.0,0.0
1664371511070,-0.9082031,0.2861328,0.265625,0.0,0.25,0.0625,-48.625,21.0625,-122.75
1664371511099,-0.9111328,0.27148438,0.27539062,-0.0625,-0.09375,0.0625,0.0,0.0,0.0
1664371511128,-0.921875,0.28808594,0.25390625,0.125,0.21875,0.1875,0.0,0.0,0.0
1664371511191,-0.9121094,0.28125,0.2578125,0.0,0.21875,0.1875,0.0,0.0,0.0
1664371511222,-0.9160156,0.28125,0.26464844,0.0625,0.21875,0.25,0.0,0.0,0.0
1664371511250,-0.90527344,0.28027344,0.26757812,0.25,-0.03125,-0.25,0.0,0.0,0.0
1664371511311,-0.91503906,0.2841797,0.2685547,0.46875,0.3125,0.125,0.0,0.0,0.0
1664371511341,-0.9091797,0.28222656,0.25585938,-0.0625,0.09375,0.375,0.0,0.0,0.0
1664371511369,-0.921875,0.27246094,0.26757812,0.1875,0.4375,0.1875,0.0,0.0,0.0
1664371511430,-0.91308594,0.28125,0.26757812,0.0,-0.03125,0.125,0.0,0.0,0.0
1664371511460,-0.9082031,0.27441406,0.27734375,0.25,0.375,0.0625,0.0,0.0,0.0
1664371511489,-0.90722656,0.2890625,0.26660156,0.1875,0.21875,0.1875,0.0,0.0,0.0
1664371511551,-0.9091797,0.28125,0.26953125,-0.0625,-0.03125,0.0625,0.0,0.0,0.0
1664371511580,-0.9091797,0.28222656,0.28027344,-0.0625,0.03125,0.0625,-50.375,22.8125,-121.375
1664371511610,-0.90722656,0.2734375,0.27246094,-0.1875,-0.21875,-0.0625,0.0,0.0,0.0
1664371511670,-0.9169922,0.2841797,0.27929688,0.0,-0.03125,-0.0625,0.0,0.0,0.0
1664371511700,-0.9160156,0.27929688,0.2783203,-0.0625,-0.28125,-0.1875,0.0,0.0,0.0
1664371511730,-0.9033203,0.2763672,0.27441406,0.25,0.03125,0.3125,0.0,0.0,0.0
1664371511789,-0.9013672,0.28125,0.27734375,-0.125,-0.46875,-0.0625,0.0,0.0,0.0
1664371511821,-0.90722656,0.28222656,0.2685547,-0.0625,-0.03125,0.1875,0.0,0.0,0.0
1664371511850,-0.9082031,0.27441406,0.26660156,-0.125,-0.28125,0.0625,0.0,0.0,0.0
1664371511912,-0.91015625,0.27929688,0.26953125,0.0,0.09375,0.375,0.0,0.0,0.0
1664371511940,-0.90527344,0.28710938,0.27441406,-0.0625,-0.03125,0.125,0.0,0.0,0.0
1664371511969,-0.90722656,0.29101562,0.26757812,0.0,0.15625,0.375,0.0,0.0,0.0
1664371512030,-0.91015625,0.2841797,0.27246094,0.0625,0.03125,-0.3125,0.0,0.0,0.0
1664371512061,-0.9199219,0.2763672,0.2734375,0.25,0.21875,0.125,-49.5,21.625,-122.3125
1664371512090,-0.91503906,0.28808594,0.27539062,-0.125,-0.03125,0.0625,0.0,0.0,0.0
1664371512149,-0.9140625,0.28125,0.27441406,0.0,0.25,0.0,0.0,0.0,0.0
1664371512181,-0.9013672,0.28320312,0.26171875,-0.0625,-0.03125,-0.125,0.0,0.0,0.0
1664371512210,-0.91015625,0.2841797,0.2626953,0.25,0.21875,-0.1875,0.0,0.0,0.0
1664371512270,-0.9111328,0.28808594,0.2763672,-0.0625,-0.15625,-0.125,0.0,0.0,0.0
1664371512299,-0.91308594,0.28515625,0.2578125,0.0,0.21875,-0.0625,0.0,0.0,0.0
1664371512329,-0.9082031,0.2705078,0.2763672,-0.1875,-0.21875,0.1875,0.0,0.0,0.0
1664371512389,-0.91015625,0.27539062,0.27441406,-0.1875,-0.15625,0.0,0.0,0.0,0.0
1664371512422,-0.9111328,0.2841797,0.2607422,-0.125,-0.21875,0.125,0.0,0.0,0.0
1664371512450,-0.9033203,0.27441406,0.25683594,-0.0625,0.03125,0.125,0.0,0.0,0.0
1664371512508,-0.9199219,0.28515625,0.2763672,-0.03125,-0.0625,-0.0625,0.0,0.0,0.0
1664371512538,-0.91015625,0.28027344,0.27539062,-0.15625,-0.0625,0.0625,0.0,0.0,0.0
1664371512569,-0.9121094,0.28515625,0.2783203,-0.09375,0.0625,0.21875,-49.9375,22.8125,-123.0625
1664371512629,-0.90527344,0.29003906,0.27539062,-0.03125,0.1875,0.0,0.0,0.0,0.0
1664371512660,-0.9199219,0.2841797,0.27246094,-0.15625,0.1875,0.0625,0.0,0.0,0.0
1664371512691,-0.90625,0.27539062,0.28808594,-0.46875,0.1875,0.34375,0.0,0.0,0.0
1664371512780,-0.9189453,0.2734375,0.26367188,-0.21875,0.375,0.21875,0.0,0.0,0.0
1664371512781,-0.9121094,0.28320312,0.2685547,-0.28125,0.125,0.125,0.0,0.0,0.0
1664371512811,-0.91503906,0.2763672,0.2734375,-0.03125,0.3125,0.125,0.0,0.0,0.0
1664371512871,-0.9111328,0.28710938,0.26953125,-0.03125,0.25,0.59375,0.0,0.0,0.0
1664371512897,-0.9042969,0.27929688,0.27246094,0.03125,0.78125,0.46875,0.0,0.0,0.0
1664371512928,-0.9140625,0.2890625,0.25585938,-0.21875,0.3125,0.46875,0.0,0.0,0.0
1664371512991,-0.91308594,0.29101562,0.26660156,-0.09375,0.25,0.34375,0.0,0.0,0.0
1664371513020,-0.9140625,0.28125,0.27539062,-0.03125,0.125,0.1875,0.0,0.0,0.0
1664371513048,-0.91308594,0.28027344,0.25585938,0.21875,0.1875,0.78125,-49.375,22.0625,-122.0
1664371513109,-0.90722656,0.29003906,0.26660156,-0.03125,0.1875,0.0625,0.0,0.0,0.0
1664371513141,-0.9111328,0.28515625,0.2578125,-0.09375,0.1875,0.21875,0.0,0.0,0.0
1664371513169,-0.9160156,0.27539062,0.26464844,-0.09375,-0.1875,0.0,0.0,0.0,0.0
1664371513230,-0.91503906,0.2841797,0.26464844,0.21875,-0.1875,-0.1875,0.0,0.0,0.0
1664371513258,-0.91308594,0.27441406,0.2705078,0.03125,-0.125,-0.125,0.0,0.0,0.0
1664371513290,-0.9121094,0.2841797,0.27246094,0.03125,0.0625,-0.0625,0.0,0.0,0.0
1664371513351,-0.9091797,0.27734375,0.28125,0.03125,-0.375,-0.1875,0.0,0.0,0.0
1664371513381,-0.92285156,0.29003906,0.26953125,0.09375,-0.0625,-0.1875,0.0,0.0,0.0
1664371513411,-0.91503906,0.2783203,0.27539062,-0.09375,0.0,0.125,0.0,0.0,0.0
1664371513473,-0.9121094,0.2919922,0.265625,-0.03125,0.0,-0.0625,0.0,0.0,0.0
1664371513500,-0.9091797,0.2841797,0.26953125,-0.34375,-0.25,-0.0625,0.0,0.0,0.0
1664371513529,-0.9140625,0.27929688,0.26757812,0.21875,-0.25,0.0,0.0,0.0,0.0
1664371513590,-0.91015625,0.28125,0.28027344,0.15625,0.0,-0.1875,-49.375,21.0625,-123.0625
1664371513619,-0.9111328,0.2919922,0.25683594,0.28125,0.125,0.125,0.0,0.0,0.0
1664371513649,-0.9121094,0.28710938,0.2626953,0.09375,0.125,0.0,0.0,0.0,0.0
1664371513710,-0.9082031,0.27539062,0.2529297,0.09375,0.1875,-0.25,0.0,0.0,0.0
1664371513739,-0.9169922,0.28808594,0.2626953,-0.09375,-0.125,0.21875,0.0,0.0,0.0
1664371513768,-0.9091797,0.28515625,0.26757812,0.09375,0.25,0.0625,0.0,0.0,0.0
1664371513831,-0.9189453,0.28125,0.265625,0.40625,0.0625,-0.125,0.0,0.0,0.0
1664371513860,-0.90625,0.2890625,0.2705078,0.09375,-0.25,-0.25,0.0,0.0,0.0
1664371513890,-0.9248047,0.28027344,0.2734375,-0.09375,-0.125,-0.1875,0.0,0.0,0.0
1664371513951,-0.90722656,0.2861328,0.27929688,0.03125,-0.1875,-0.125,0.0,0.0,0.0
1664371513979,-0.90527344,0.28027344,0.25683594,-0.21875,-0.3125,-0.3125,0.0,0.0,0.0
1664371514010,-0.9189453,0.27929688,0.27246094,-0.03125,0.125,-0.0625,0.0,0.0,0.0
1664371514070,-0.91308594,0.28222656,0.27246094,0.03125,0.5,0.90625,-50.375,21.8125,-121.6875
1664371514101,-0.8984375,0.27539062,0.26953125,-0.03125,0.96875,0.65625,0.0,0.0,0.0
1664371514129,-0.91796875,0.29101562,0.2705078,0.21875,0.375,0.46875,0.0,0.0,0.0
1664371514191,-0.9082031,0.296875,0.26757812,0.09375,0.375,-0.4375,0.0,0.0,0.0
1664371514219,-0.9140625,0.2861328,0.26171875,0.03125,0.3125,-0.0625,0.0,0.0,0.0
1664371514250,-0.9169922,0.2919922,0.25976562,-0.53125,-0.3125,-0.375,0.0,0.0,0.0
1664371514310,-0.91503906,0.2841797,0.2685547,0.09375,0.0625,-0.4375,0.0,0.0,0.0
1664371514341,-0.92089844,0.28222656,0.2685547,0.09375,0.125,-0.125,0.0,0.0,0.0
1664371514370,-0.92089844,0.27929688,0.26464844,0.03125,0.1875,0.0625,0.0,0.0,0.0
1664371514431,-0.91015625,0.28710938,0.27246094,-0.03125,-0.1875,-0.3125,0.0,0.0,0.0
1664371514459,-0.90722656,0.29003906,0.27246094,0.03125,0.0,-0.375,0.0,0.0,0.0
1664371514489,-0.9160156,0.28515625,0.25878906,-0.09375,-0.375,-0.4375,0.0,0.0,0.0
1664371514549,-0.9199219,0.28125,0.27246094,-0.09375,-0.375,-0.375,0.0,0.0,0.0
1664371514581,-0.9111328,0.2841797,0.2705078,-0.21875,-0.1875,-0.25,-49.9375,21.0625,-122.75
1664371514611,-0.91503906,0.2861328,0.2607422,-0.21875,-0.125,-0.1875,0.0,0.0,0.0
1664371514670,-0.91015625,0.2734375,0.2734375,-0.09375,-0.1875,-0.25,0.0,0.0,0.0
1664371514700,-0.9160156,0.27929688,0.2607422,-0.03125,-0.1875,-0.3125,0.0,0.0,0.0
1664371514730,-0.9160156,0.28222656,0.27246094,-0.03125,0.0,-0.0625,0.0,0.0,0.0
1664371514790,-0.9111328,0.2861328,0.27148438,-0.09375,-0.125,-0.1875,0.0,0.0,0.0
1664371514821,-0.9121094,0.2919922,0.2626953,-0.15625,-0.1875,-0.0625,0.0,0.0,0.0
1664371514850,-0.9091797,0.28027344,0.26660156,-0.34375,-0.125,-0.1875,0.0,0.0,0.0
1664371514909,-0.9121094,0.28808594,0.26464844,-0.15625,-0.1875,0.0625,0.0,0.0,0.0
1664371514940,-0.9121094,0.2783203,0.26953125,-0.21875,-0.375,-0.0625,0.0,0.0,0.0
1664371514970,-0.90625,0.2734375,0.25976562,-0.21875,-0.25,0.1875,0.0,0.0,0.0
1664371515061,-0.91015625,0.28222656,0.26171875,-0.46875,-0.1875,0.28125,0.0,0.0,0.0
1664371515064,-0.9121094,0.2763672,0.27246094,0.09375,-0.125,-0.25,-48.625,22.5625,-123.5
1664371515091,-0.9091797,0.28320312,0.25585938,-0.03125,-0.1875,-0.1875,0.0,0.0,0.0
1664371515148,-0.90722656,0.28808594,0.26171875,-0.21875,-0.1875,0.125,0.0,0.0,0.0
1664371515180,-0.9091797,0.2861328,0.27929688,-0.15625,-0.25,-0.1875,0.0,0.0,0.0
1664371515210,-0.9082031,0.28222656,0.26660156,-0.21875,-0.25,-0.0625,0.0,0.0,0.0
1664371515272,-0.9160156,0.2783203,0.2626953,-0.09375,-0.375,-0.375,0.0,0.0,0.0
1664371515303,-0.90625,0.28125,0.26757812,-0.03125,-0.375,-0.125,0.0,0.0,0.0
1664371515329,-0.9140625,0.28515625,0.24707031,-0.09375,-0.125,-0.1875,0.0,0.0,0.0
1664371515391,-0.90722656,0.27734375,0.2685547,-0.21875,-0.1875,0.0,0.0,0.0,0.0
1664371515422,-0.9111328,0.2841797,0.2607422,0.03125,0.1875,0.0,0.0,0.0,0.0
1664371515451,-0.9091797,0.28125,0.2607422,0.03125,0.125,-0.0625,0.0,0.0,0.0
1664371515508,-0.9082031,0.28222656,0.26171875,0.15625,0.0,0.21875,0.0,0.0,0.0
1664371515539,-0.9121094,0.26757812,0.265625,-0.03125,-0.0625,0.21875,0.0,0.0,0.0
1664371515570,-0.9199219,0.28027344,0.2705078,0.09375,0.0625,0.34375,-49.625,21.8125,-122.75
1664371515631,-0.9121094,0.28515625,0.25976562,-0.15625,0.0,0.125,0.0,0.0,0.0
1664371515660,-0.91796875,0.29492188,0.2734375,-0.09375,0.125,0.28125,0.0,0.0,0.0
1664371515691,-0.90234375,0.2841797,0.25878906,-0.34375,-0.3125,-0.1875,0.0,0.0,0.0
1664371515750,-0.9189453,0.2783203,0.2685547,-0.03125,0.4375,0.125,0.0,0.0,0.0
1664371515779,-0.9160156,0.28710938,0.26660156,-0.15625,-0.125,0.0,0.0,0.0,0.0
1664371515811,-0.9199219,0.28027344,0.27734375,-0.09375,0.0,0.0625,0.0,0.0,0.0
1664371515870,-0.91308594,0.2783203,0.25097656,-0.03125,-0.0625,0.21875,0.0,0.0,0.0
1664371515901,-0.9111328,0.28222656,0.25683594,-0.09375,0.125,0.59375,0.0,0.0,0.0
1664371515931,-0.9160156,0.2890625,0.26757812,0.03125,-0.125,0.21875,0.0,0.0,0.0
1664371515991,-0.91015625,0.2841797,0.265625,-0.09375,-0.3125,0.34375,0.0,0.0,0.0
1664371516019,-0.9082031,0.27929688,0.27246094,-0.15625,0.0,0.21875,0.0,0.0,0.0
1664371516050,-0.91796875,0.28027344,0.25976562,-0.21875,0.0625,0.40625,-50.875,22.6875,-121.875
1664371516110,-0.90527344,0.2841797,0.26953125,-0.09375,0.375,0.46875,0.0,0.0,0.0
1664371516139,-0.88964844,0.28320312,0.27734375,1.25,1.71875,1.5625,0.0,0.0,0.0
1664371516170,-0.91015625,0.28027344,0.25976562,-0.28125,0.71875,1.15625,0.0,0.0,0.0
1664371516229,-0.91308594,0.2861328,0.27246094,-0.15625,0.78125,0.90625,0.0,0.0,0.0
1664371516262,-0.9111328,0.29003906,0.27246094,-0.03125,0.5,0.53125,0.0,0.0,0.0
1664371516289,-0.9199219,0.29003906,0.2685547,-0.09375,0.5625,0.90625,0.0,0.0,0.0
1664371516350,-0.89941406,0.28027344,0.25195312,0.03125,0.59375,0.78125,0.0,0.0,0.0
1664371516379,-0.9140625,0.2939453,0.25683594,-0.15625,0.3125,0.53125,0.0,0.0,0.0
1664371516411,-0.91015625,0.28320312,0.2529297,-0.15625,0.375,0.1875,0.0,0.0,0.0
1664371516471,-0.9091797,0.29003906,0.25097656,-0.46875,-0.0625,0.46875,0.0,0.0,0.0
1664371516499,-0.91308594,0.29101562,0.26171875,-0.28125,0.0,0.125,0.0,0.0,0.0
1664371516529,-0.92089844,0.29492188,0.25390625,-0.21875,-0.25,0.0,0.0,0.0,0.0
1664371516590,-0.8964844,0.28222656,0.2705078,0.28125,-0.25,-0.25,-51.3125,21.625,-122.3125
1664371516620,-0.9082031,0.29003906,0.2529297,0.40625,-0.125,0.0,0.0,0.0,0.0
1664371516649,-0.9042969,0.29296875,0.2607422,0.15625,-0.1875,-0.1875,0.0,0.0,0.0
1664371516709,-0.9140625,0.29003906,0.2578125,-0.03125,-0.1875,-0.3125,0.0,0.0,0.0
1664371516740,-0.9121094,0.29003906,0.24804688,-0.09375,-0.84375,-0.4375,0.0,0.0,0.0
1664371516769,-0.9121094,0.28027344,0.2705078,-0.03125,-0.3125,-0.1875,0.0,0.0,0.0
1664371516832,-0.9111328,0.28515625,0.25195312,-0.21875,-0.3125,-0.125,0.0,0.0,0.0
1664371516861,-0.90722656,0.28808594,0.2705078,-0.09375,-0.3125,-0.375,0.0,0.0,0.0
1664371516890,-0.92578125,0.2890625,0.26757812,0.03125,-0.1875,-0.1875,0.0,0.0,0.0
1664371516950,-0.9082031,0.2861328,0.2548828,-0.09375,-0.1875,-0.1875,0.0,0.0,0.0
1664371516979,-0.9140625,0.29296875,0.25976562,-0.09375,-0.1875,-0.125,0.0,0.0,0.0
1664371517009,-0.9121094,0.28710938,0.27148438,-0.15625,-0.25,-0.0625,0.0,0.0,0.0
1664371517071,-0.91308594,0.29492188,0.26171875,-0.09375,0.0,-0.25,-50.25,23.0,-122.3125
1664371517100,-0.9111328,0.29296875,0.2626953,-0.09375,-0.1875,-0.75,0.0,0.0,0.0
1664371517131,-0.9189453,0.29492188,0.26660156,-0.21875,-0.3125,-0.4375,0.0,0.0,0.0
1664371517191,-0.9013672,0.27734375,0.25683594,-0.15625,-0.3125,-0.5,0.0,0.0,0.0
1664371517221,-0.9140625,0.2939453,0.25390625,-0.15625,-0.375,-0.3125,0.0,0.0,0.0
1664371517250,-0.91308594,0.2861328,0.2705078,-0.21875,-0.625,-0.5,0.0,0.0,0.0
1664371517340,-0.9121094,0.29492188,0.26464844,0.15625,-0.25,-0.375,0.0,0.0,0.0
1664371517343,-0.9111328,0.29492188,0.26953125,-0.15625,-0.375,-0.3125,0.0,0.0,0.0
1664371517369,-0.91015625,0.2919922,0.2705078,-0.09375,0.0625,-0.25,0.0,0.0,0.0
1664371517429,-0.9111328,0.29589844,0.2578125,-0.34375,-0.3125,-0.3125,0.0,0.0,0.0
1664371517460,-0.9042969,0.2861328,0.25976562,-0.21875,-0.1875,-0.4375,0.0,0.0,0.0
1664371517489,-0.92089844,0.2841797,0.2529297,-0.34375,-0.375,-0.1875,0.0,0.0,0.0
1664371517548,-0.90234375,0.29003906,0.26171875,-0.15625,-0.1875,-0.5,0.0,0.0,0.0
1664371517580,-0.9140625,0.2890625,0.25976562,-0.15625,-0.5,-0.3125,-51.3125,23.0,-122.875
1664371517610,-0.9189453,0.2890625,0.25976562,-0.15625,-0.0625,0.0,0.0,0.0,0.0
1664371517669,-0.9111328,0.2939453,0.26367188,-0.09375,-0.375,-0.125,0.0,0.0,0.0
1664371517701,-0.9169922,0.29003906,0.25195312,-0.03125,-0.25,-0.25,0.0,0.0,0.0
1664371517730,-0.9121094,0.29296875,0.25683594,-0.09375,-0.25,0.0625,0.0,0.0,0.0
1664371517790,-0.90625,0.2841797,0.25683594,-0.09375,-0.1875,-0.0625,0.0,0.0,0.0
1664371517821,-0.9111328,0.28515625,0.27441406,-0.03125,-0.4375,-0.125,0.0,0.0,0.0
1664371517850,-0.91796875,0.2890625,0.25683594,0.03125,-0.1875,-0.125,0.0,0.0,0.0
1664371517908,-0.91015625,0.296875,0.26757812,-0.28125,-0.125,0.0,0.0,0.0,0.0
1664371517940,-0.89941406,0.28808594,0.26367188,-0.28125,-0.3125,0.0625,0.0,0.0,0.0
1664371517970,-0.9082031,0.28515625,0.265625,0.21875,-0.3125,-0.375,0.0,0.0,0.0
1664371518029,-0.91308594,0.2841797,0.25,-0.03125,-0.1875,-0.125,0.0,0.0,0.0
1664371518060,-0.9121094,0.28320312,0.25976562,-0.09375,-0.125,-0.125,-49.5,21.9375,-122.875
1664371518091,-0.9033203,0.29296875,0.2578125,-0.09375,-0.375,-0.3125,0.0,0.0,0.0
1664371518150,-0.90722656,0.29492188,0.25976562,-0.09375,-0.375,-0.1875,0.0,0.0,0.0
1664371518179,-0.9111328,0.28710938,0.265625,-0.15625,-0.5625,-0.375,0.0,0.0,0.0
1664371518211,-0.9121094,0.2919922,0.25097656,-0.15625,-0.1875,-0.1875,0.0,0.0,0.0
1664371518270,-0.91796875,0.2919922,0.2685547,-0.21875,-0.4375,-0.5,0.0,0.0,0.0
1664371518299,-0.90722656,0.28222656,0.2578125,-0.15625,-0.0625,-0.125,0.0,0.0,0.0
1664371518330,-0.9160156,0.28515625,0.26367188,-0.28125,-0.0625,-0.0625,0.0,0.0,0.0
1664371518389,-0.9091797,0.29296875,0.26464844,0.09375,0.0625,-0.0625,0.0,0.0,0.0
1664371518422,-0.91503906,0.29101562,0.2578125,-0.03125,0.0,0.0,0.0,0.0,0.0
1664371518449,-0.90527344,0.2861328,0.24609375,-0.03125,0.0625,0.0,0.0,0.0,0.0
1664371518508,-0.9189453,0.2861328,0.2626953,-0.09375,-0.1875,0.0625,0.0,0.0,0.0
1664371518539,-0.9121094,0.28125,0.27246094,-0.09375,-0.0625,-0.1875,0.0,0.0,0.0
1664371518570,-0.90527344,0.2919922,0.25976562,-0.09375,-0.0625,-0.0625,-49.375,23.5625,-123.5
1664371518630,-0.9091797,0.28808594,0.2626953,-0.15625,0.0,-0.0625,0.0,0.0,0.0
1664371518658,-0.9042969,0.28710938,0.26660156,-0.46875,-0.25,-0.375,0.0,0.0,0.0
1664371518689,-0.9199219,0.27734375,0.265625,0.03125,-0.375,-0.4375,0.0,0.0,0.0
1664371518749,-0.91308594,0.2841797,0.26757812,0.03125,0.0,-0.0625,0.0,0.0,0.0
1664371518778,-0.90722656,0.28710938,0.26757812,-0.28125,-0.0625,0.0,0.0,0.0,0.0
1664371518811,-0.9189453,0.27929688,0.265625,-0.21875,-0.0625,0.0,0.0,0.0,0.0
1664371518870,-0.9033203,0.28125,0.26757812,0.09375,-0.125,-0.3125,0.0,0.0,0.0
1664371518899,-0.9169922,0.28515625,0.25878906,-0.03125,-0.0625,-0.125,0.0,0.0,0.0
1664371518929,-0.9082031,0.2763672,0.2607422,-0.34375,-0.25,-0.1875,0.0,0.0,0.0
1664371518990,-0.9091797,0.29101562,0.26464844,-0.21875,-0.4375,-0.4375,0.0,0.0,0.0
1664371519021,-0.9121094,0.2783203,0.26464844,-0.46875,-0.5,-0.375,0.0,0.0,0.0
1664371519049,-0.91015625,0.28710938,0.2734375,-0.09375,-0.0625,-0.0625,-49.625,21.8125,-122.0
1664371519110,-0.9091797,0.2890625,0.26367188,-0.15625,-0.5,-0.25,0.0,0.0,0.0
1664371519139,-0.91308594,0.28515625,0.2607422,0.03125,0.0,-0.0625,0.0,0.0,0.0
1664371519169,-0.9091797,0.2890625,0.26953125,-0.34375,-0.375,-0.0625,0.0,0.0,0.0
1664371519229,-0.91308594,0.29003906,0.265625,-0.09375,-0.0625,0.125,0.0,0.0,0.0
1664371519259,-0.9189453,0.28808594,0.25097656,-0.09375,-0.375,0.0,0.0,0.0,0.0
1664371519289,-0.9082031,0.28222656,0.2705078,-0.28125,-0.3125,-0.25,0.0,0.0,0.0
1664371519350,-0.91015625,0.29296875,0.26171875,-0.21875,-0.25,0.1875,0.0,0.0,0.0
1664371519379,-0.91308594,0.28222656,0.26367188,-0.15625,0.0625,0.125,0.0,0.0,0.0
1664371519409,-0.91308594,0.2939453,0.2578125,-0.28125,0.0,0.21875,0.0,0.0,0.0
1664371519471,-0.90625,0.2783203,0.25390625,-0.03125,0.125,0.125,0.0,0.0,0.0
1664371519500,-0.90234375,0.29589844,0.265625,-0.21875,0.1875,0.59375,0.0,0.0,0.0
1664371519529,-0.90722656,0.29003906,0.25390625,-0.09375,0.125,0.0625,0.0,0.0,0.0
1664371519621,-0.91015625,0.2919922,0.2578125,-0.28125,-0.125,0.125,-48.75,21.625,-122.3125
1664371519624,-0.9091797,0.28027344,0.25976562,-0.09375,-0.1875,0.125,0.0,0.0,0.0
1664371519651,-0.9111328,0.28222656,0.27148438,-0.21875,0.0625,0.0625,0.0,0.0,0.0
1664371519711,-0.91796875,0.28125,0.2783203,-0.40625,-0.1875,0.21875,0.0,0.0,0.0
1664371519741,-0.9091797,0.2890625,0.2578125,-0.21875,0.0,0.125,0.0,0.0,0.0
1664371519769,-0.9111328,0.29101562,0.2578125,-0.09375,0.1875,0.1875,0.0,0.0,0.0
1664371519831,-0.9121094,0.28222656,0.2685547,-0.09375,0.125,0.34375,0.0,0.0,0.0
1664371519859,-0.9121094,0.2861328,0.27246094,-0.15625,-0.125,0.34375,0.0,0.0,0.0
1664371519890,-0.91015625,0.28515625,0.26367188,-0.09375,0.0625,0.125,0.0,0.0,0.0
1664371519951,-0.9091797,0.28222656,0.2705078,-0.15625,-0.0625,0.1875,0.0,0.0,0.0
1664371519979,-0.9199219,0.2861328,0.265625,-0.15625,-0.375,0.0625,0.0,0.0,0.0
1664371520011,-0.9091797,0.28808594,0.27734375,0.03125,-0.3125,-0.1875,0.0,0.0,0.0
1664371520074,-0.9140625,0.28027344,0.26367188,-0.03125,-0.0625,-0.1875,-49.625,23.875,-123.5
1664371520101,-0.91796875,0.28320312,0.27246094,-0.09375,-0.125,0.0,0.0,0.0,0.0
1664371520129,-0.9121094,0.29492188,0.27929688,-0.09375,-0.0625,-0.25,0.0,0.0,0.0
1664371520191,-0.91503906,0.28515625,0.25878906,0.15625,-0.3125,-0.375,0.0,0.0,0.0
1664371520220,-0.9091797,0.2890625,0.2685547,-0.03125,-0.125,-0.3125,0.0,0.0,0.0
1664371520250,-0.91796875,0.2939453,0.25878906,-0.03125,-0.5,-0.5,0.0,0.0,0.0
1664371520311,-0.9111328,0.2919922,0.26367188,-0.09375,-0.78125,-0.625,0.0,0.0,0.0
1664371520370,-0.91015625,0.28515625,0.26757812,-0.28125,-0.5625,-0.6875,0.0,0.0,0.0
1664371520374,-0.9140625,0.28515625,0.2578125,-0.28125,-0.125,-0.375,0.0,0.0,0.0
1664371520429,-0.9140625,0.2861328,0.2705078,-0.34375,-0.6875,-0.3125,0.0,0.0,0.0
1664371520461,-0.90234375,0.2841797,0.2607422,-0.03125,0.0625,-0.1875,0.0,0.0,0.0
1664371520490,-0.91308594,0.29101562,0.28027344,-0.09375,0.0,-0.0625,0.0,0.0,0.0
1664371520549,-0.9199219,0.29101562,0.265625,-0.09375,-0.0625,0.1875,0.0,0.0,0.0
1664371520580,-0.91503906,0.29296875,0.2626953,-0.09375,-0.3125,-0.125,-49.9375,21.5,-122.0
1664371520610,-0.9082031,0.28515625,0.265625,-0.09375,-0.0625,-0.1875,0.0,0.0,0.0
1664371520669,-0.921875,0.2861328,0.26171875,-0.21875,-0.25,-0.1875,0.0,0.0,0.0
1664371520700,-0.9033203,0.27929688,0.26660156,-0.09375,-0.1875,-0.5625,0.0,0.0,0.0
1664371520730,-0.9082031,0.28222656,0.2685547,-0.21875,-0.5625,-0.3125,0.0,0.0,0.0
1664371520788,-0.9121094,0.28710938,0.2763672,-0.03125,0.0625,-0.1875,0.0,0.0,0.0
1664371520820,-0.9199219,0.29101562,0.25878906,-0.09375,-0.125,-0.1875,0.0,0.0,0.0
1664371520849,-0.9033203,0.2861328,0.27148438,-0.21875,-0.1875,0.0,0.0,0.0,0.0
1664371520909,-0.9091797,0.2861328,0.26660156,0.21875,-0.1875,-0.25,0.0,0.0,0.0
1664371520940,-0.9003906,0.28222656,0.265625,-0.09375,0.0,-0.0625,0.0,0.0,0.0
1664371520971,-0.9140625,0.28222656,0.25878906,-0.09375,0.1875,0.0625,0.0,0.0,0.0
1664371521030,-0.91796875,0.2841797,0.26953125,-0.09375,-0.1875,-0.3125,0.0,0.0,0.0
1664371521060,-0.9091797,0.28515625,0.27148438,-0.03125,-0.375,-0.25,-49.8125,20.875,-122.3125
1664371521090,-0.9199219,0.29101562,0.26953125,-0.15625,-0.0625,-0.0625,0.0,0.0,0.0
1664371521150,-0.91503906,0.28515625,0.265625,-0.15625,-0.25,-0.1875,0.0,0.0,0.0
1664371521180,-0.9042969,0.28222656,0.2763672,-0.21875,-0.1875,-0.125,0.0,0.0,0.0
1664371521210,-0.9121094,0.2919922,0.265625,-0.09375,0.0,-0.0625,0.0,0.0,0.0
1664371521270,-0.90527344,0.28515625,0.265625,0.03125,-0.125,-0.125,0.0,0.0,0.0
1664371521300,-0.89746094,0.2890625,0.2607422,-0.03125,-0.125,-0.125,0.0,0.0,0.0
1664371521330,-0.92089844,0.29296875,0.2734375,-0.09375,-0.1875,-0.25,0.0,0.0,0.0
1664371521389,-0.9121094,0.28222656,0.2626953,-0.15625,-0.375,0.0625,0.0,0.0,0.0
1664371521421,-0.9160156,0.28515625,0.2783203,-0.03125,-0.25,-0.25,0.0,0.0,0.0
1664371521450,-0.9091797,0.28222656,0.26660156,-0.09375,-0.125,0.0,0.0,0.0,0.0
1664371521511,-0.9082031,0.2890625,0.2734375,-0.09375,0.0,0.125,0.0,0.0,0.0
1664371521539,-0.9111328,0.28710938,0.26464844,-0.0625,-0.1875,0.15625,0.0,0.0,0.0
1664371521569,-0.90234375,0.29101562,0.27441406,-0.125,-0.1875,0.03125,-49.9375,20.75,-121.6875
1664371521630,-0.9189453,0.28125,0.26660156,-0.0625,-0.5,0.15625,0.0,0.0,0.0
1664371521659,-0.9091797,0.28125,0.26171875,-0.4375,-0.625,-0.15625,0.0,0.0,0.0
1664371521692,-0.90722656,0.2890625,0.26171875,-0.3125,0.0,-0.15625,0.0,0.0,0.0
1664371521750,-0.90527344,0.2861328,0.26464844,-0.1875,0.1875,0.09375,0.0,0.0,0.0
1664371521780,-0.90527344,0.29101562,0.2734375,0.0,0.1875,0.15625,0.0,0.0,0.0
1664371521810,-0.90722656,0.28125,0.27148438,0.0,0.1875,0.09375,0.0,0.0,0.0
1664371521899,-0.91308594,0.2841797,0.2626953,0.125,0.59375,0.09375,0.0,0.0,0.0
1664371521901,-0.91015625,0.2919922,0.2626953,-0.1875,0.0625,0.34375,0.0,0.0,0.0
1664371521937,-0.90234375,0.29296875,0.27441406,0.0,0.5625,0.46875,0.0,0.0,0.0
1664371521989,-0.9189453,0.29003906,0.2685547,0.0625,0.59375,0.46875,0.0,0.0,0.0
1664371522020,-0.9042969,0.28710938,0.25878906,-0.125,0.375,0.59375,0.0,0.0,0.0
1664371522050,-0.921875,0.28027344,0.27441406,-0.3125,0.0,0.40625,-50.375,22.0625,-122.4375
1664371522111,-0.9082031,0.28710938,0.27246094,-0.4375,-0.125,0.03125,0.0,0.0,0.0
1664371522138,-0.9121094,0.28808594,0.27246094,-0.3125,0.125,0.28125,0.0,0.0,0.0
1664371522170,-0.9121094,0.29101562,0.27148438,-0.375,0.125,0.28125,0.0,0.0,0.0
1664371522229,-0.90625,0.2763672,0.2685547,-0.25,0.25,0.53125,0.0,0.0,0.0
1664371522260,-0.9140625,0.29003906,0.26464844,-0.375,0.0,0.28125,0.0,0.0,0.0
1664371522290,-0.9140625,0.2841797,0.2529297,-0.1875,0.5,0.28125,0.0,0.0,0.0
1664371522351,-0.9121094,0.28515625,0.2705078,0.125,0.5625,0.53125,0.0,0.0,0.0
1664371522379,-0.9140625,0.27539062,0.25585938,0.1875,0.3125,0.53125,0.0,0.0,0.0
1664371522408,-0.9042969,0.28808594,0.2607422,-0.0625,0.4375,0.71875,0.0,0.0,0.0
1664371522472,-0.9189453,0.28808594,0.27246094,-0.1875,0.1875,0.46875,0.0,0.0,0.0
1664371522500,-0.9033203,0.28222656,0.26171875,-0.125,-0.0625,0.15625,0.0,0.0,0.0
1664371522529,-0.9160156,0.2763672,0.26953125,-0.0625,0.125,0.40625,0.0,0.0,0.0
1664371522590,-0.9111328,0.28808594,0.26171875,0.0,0.1875,0.21875,-50.375,22.5625,-123.0625
1664371522649,-0.9121094,0.27734375,0.25976562,0.25,0.4375,0.34375,0.0,0.0,0.0
1664371522651,-0.9140625,0.28808594,0.27734375,-0.0625,0.1875,0.40625,0.0,0.0,0.0
1664371522711,-0.9042969,0.2861328,0.2705078,0.25,0.59375,0.28125,0.0,0.0,0.0
1664371522741,-0.9189453,0.28710938,0.2578125,0.0,0.0,-0.03125,0.0,0.0,0.0
1664371522769,-0.9140625,0.28125,0.27734375,0.1875,0.1875,0.03125,0.0,0.0,0.0
1664371522830,-0.9082031,0.28222656,0.26464844,0.25,-0.0625,0.09375,0.0,0.0,0.0
1664371522861,-0.9091797,0.28515625,0.26464844,0.4375,0.375,-0.03125,0.0,0.0,0.0
1664371522889,-0.9169922,0.28125,0.27246094,0.0625,0.25,0.21875,0.0,0.0,0.0
1664371522950,-0.90625,0.29003906,0.26171875,0.125,0.3125,-0.03125,0.0,0.0,0.0
1664371522980,-0.9189453,0.28320312,0.25683594,0.0,0.0625,0.21875,0.0,0.0,0.0
1664371523009,-0.90722656,0.28710938,0.2626953,0.125,0.4375,0.03125,0.0,0.0,0.0
1664371523071,-0.9160156,0.28710938,0.26660156,0.4375,0.125,0.09375,-49.625,22.5625,-124.5625
1664371523099,-0.9033203,0.28808594,0.2685547,0.1875,0.4375,0.09375,0.0,0.0,0.0
1664371523128,-0.91503906,0.29101562,0.26660156,0.0625,0.5,0.15625,0.0,0.0,0.0
1664371523190,-0.90625,0.29296875,0.26171875,-0.125,0.125,-0.03125,0.0,0.0,0.0
1664371523221,-0.9248047,0.27929688,0.265625,0.0625,0.125,0.09375,0.0,0.0,0.0
1664371523250,-0.9091797,0.28222656,0.2783203,0.0,0.1875,0.03125,0.0,0.0,0.0
1664371523310,-0.9091797,0.29003906,0.26757812,0.0625,0.3125,0.03125,0.0,0.0,0.0
1664371523339,-0.91308594,0.28125,0.2763672,0.0,0.125,0.03125,0.0,0.0,0.0
1664371523368,-0.9091797,0.2841797,0.25195312,-0.1875,-0.0625,0.09375,0.0,0.0,0.0
1664371523429,-0.9140625,0.2783203,0.27441406,0.0625,0.25,-0.03125,0.0,0.0,0.0
1664371523461,-0.92089844,0.28808594,0.26367188,0.0,0.125,0.28125,0.0,0.0,0.0
1664371523492,-0.91015625,0.2890625,0.28125,0.0,0.25,0.09375,0.0,0.0,0.0
1664371523549,-0.9160156,0.27539062,0.265625,0.1875,0.5,0.21875,0.0,0.0,0.0
1664371523580,-0.90625,0.28515625,0.2734375,-0.0625,0.125,0.03125,-50.6875,21.8125,-122.0
1664371523609,-0.9091797,0.28027344,0.27539062,0.25,0.71875,0.34375,0.0,0.0,0.0
1664371523669,-0.91308594,0.27929688,0.26953125,0.0,0.0625,0.21875,0.0,0.0,0.0
1664371523701,-0.9042969,0.2861328,0.26464844,0.0625,0.375,0.15625,0.0,0.0,0.0
1664371523731,-0.9140625,0.2861328,0.265625,0.25,0.1875,-0.09375,0.0,0.0,0.0
1664371523790,-0.90625,0.2763672,0.2626953,0.25,0.25,-0.15625,0.0,0.0,0.0
1664371523822,-0.91796875,0.28710938,0.27148438,0.0625,0.375,0.15625,0.0,0.0,0.0
1664371523852,-0.9082031,0.27734375,0.27441406,-0.0625,0.125,-0.09375,0.0,0.0,0.0
1664371523909,-0.92089844,0.28222656,0.26660156,0.0,0.125,-0.09375,0.0,0.0,0.0
1664371523940,-0.9238281,0.27929688,0.25976562,0.0,0.0,-0.09375,0.0,0.0,0.0
1664371523970,-0.90625,0.2763672,0.2578125,0.0,0.1875,0.28125,0.0,0.0,0.0
1664371524028,-0.91015625,0.2841797,0.25,0.0,0.125,0.03125,0.0,0.0,0.0
1664371524061,-0.90625,0.2841797,0.27734375,-0.0625,0.25,0.21875,-50.6875,22.5625,-123.5
1664371524091,-0.91015625,0.28515625,0.27929688,0.1875,0.4375,0.28125,0.0,0.0,0.0
1664371524180,-0.91503906,0.2841797,0.25878906,0.125,0.4375,0.15625,0.0,0.0,0.0
1664371524182,-0.9121094,0.2783203,0.2685547,0.0625,0.4375,0.34375,0.0,0.0,0.0
1664371524212,-0.9238281,0.28808594,0.265625,0.125,0.4375,0.28125,0.0,0.0,0.0
1664371524268,-0.9111328,0.2861328,0.2763672,0.0625,0.3125,0.15625,0.0,0.0,0.0
1664371524298,-0.9091797,0.2763672,0.2705078,-0.0625,0.1875,0.34375,0.0,0.0,0.0
1664371524330,-0.9140625,0.29101562,0.26757812,-0.125,0.0625,0.46875,0.0,0.0,0.0
1664371524389,-0.9160156,0.28222656,0.2734375,-0.25,0.0625,0.09375,0.0,0.0,0.0
1664371524422,-0.91308594,0.28222656,0.28027344,0.0625,0.5625,0.03125,0.0,0.0,0.0
1664371524449,-0.9091797,0.2763672,0.28710938,0.1875,0.5625,0.09375,0.0,0.0,0.0
1664371524510,-0.9189453,0.2841797,0.28125,-0.25,0.4375,0.875,0.0,0.0,0.0
1664371524539,-0.9033203,0.2841797,0.2783203,-0.1875,0.5,0.59375,0.0,0.0,0.0
1664371524572,-0.91503906,0.28710938,0.27539062,0.0625,0.375,0.40625,-50.6875,21.0625,-123.5
1664371524631,-0.9111328,0.28125,0.25976562,0.0625,0.25,0.34375,0.0,0.0,0.0
1664371524661,-0.9199219,0.29003906,0.2578125,-0.375,0.3125,0.65625,0.0,0.0,0.0
1664371524691,-0.9091797,0.2841797,0.26660156,-0.78125,0.3125,0.875,0.0,0.0,0.0
1664371524752,-0.91796875,0.2783203,0.2685547,-0.65625,0.65625,0.8125,0.0,0.0,0.0
1664371524781,-0.9042969,0.28027344,0.26367188,0.1875,0.5,0.21875,0.0,0.0,0.0
1664371524809,-0.91015625,0.2939453,0.26757812,-0.3125,0.375,0.53125,0.0,0.0,0.0
1664371524870,-0.91503906,0.2734375,0.27148438,0.0625,0.71875,0.65625,0.0,0.0,0.0
1664371524931,-0.9140625,0.28808594,0.26757812,-0.0625,0.5625,0.40625,0.0,0.0,0.0
1664371524934,-0.9091797,0.29003906,0.26660156,-0.125,0.5,0.46875,0.0,0.0,0.0
1664371524990,-0.91503906,0.2939453,0.265625,-0.3125,0.1875,0.46875,0.0,0.0,0.0
1664371525020,-0.90234375,0.28710938,0.2578125,0.0,0.5625,0.78125,0.0,0.0,0.0
1664371525049,-0.9169922,0.28515625,0.2763672,-0.71875,0.5,0.9375,-50.6875,23.3125,-123.0625
1664371525111,-0.9121094,0.29003906,0.2607422,-0.4375,0.5625,0.875,0.0,0.0,0.0
1664371525139,-0.9111328,0.28320312,0.26953125,-0.125,0.375,0.8125,0.0,0.0,0.0
1664371525169,-0.91796875,0.2939453,0.26757812,-0.0625,0.84375,0.9375,0.0,0.0,0.0
1664371525229,-0.88964844,0.29296875,0.2529297,0.5625,0.65625,0.8125,0.0,0.0,0.0
1664371525261,-0.9082031,0.29589844,0.2626953,0.25,0.375,0.28125,0.0,0.0,0.0
1664371525290,-0.90722656,0.28515625,0.265625,-0.0625,-0.3125,0.15625,0.0,0.0,0.0
1664371525349,-0.91308594,0.28515625,0.24707031,0.0625,0.0,0.40625,0.0,0.0,0.0
1664371525380,-0.90234375,0.29296875,0.2763672,0.1875,-0.0625,-0.15625,0.0,0.0,0.0
1664371525410,-0.91015625,0.28515625,0.2734375,0.3125,0.1875,0.15625,0.0,0.0,0.0
1664371525471,-0.9121094,0.2861328,0.265625,0.1875,0.0,-0.03125,0.0,0.0,0.0
1664371525499,-0.9140625,0.2939453,0.25878906,0.25,0.125,0.15625,0.0,0.0,0.0
1664371525532,-0.9033203,0.28515625,0.265625,0.125,-0.125,-0.28125,0.0,0.0,0.0
1664371525591,-0.921875,0.29492188,0.26757812,0.25,0.125,0.15625,-50.875,21.9375,-122.875
1664371525621,-0.8984375,0.28320312,0.26464844,0.4375,-0.4375,-0.34375,0.0,0.0,0.0
1664371525649,-0.90625,0.2841797,0.2734375,0.5625,0.25,-0.34375,0.0,0.0,0.0
1664371525710,-0.91308594,0.29785156,0.26660156,0.0625,0.0625,-0.34375,0.0,0.0,0.0
1664371525740,-0.9140625,0.28515625,0.26464844,0.0625,0.125,-0.21875,0.0,0.0,0.0
1664371525769,-0.9140625,0.2861328,0.2626953,0.0,0.1875,-0.15625,0.0,0.0,0.0
1664371525831,-0.9082031,0.2841797,0.27246094,0.6875,0.3125,-0.15625,0.0,0.0,0.0
1664371525860,-0.9140625,0.2841797,0.2529297,0.375,0.375,-0.15625,0.0,0.0,0.0
1664371525890,-0.9140625,0.2861328,0.265625,0.25,0.3125,0.03125,0.0,0.0,0.0
1664371525951,-0.9160156,0.28222656,0.2548828,0.0,0.0,-0.09375,0.0,0.0,0.0
1664371525979,-0.9082031,0.28125,0.2783203,0.4375,0.3125,-0.03125,0.0,0.0,0.0
1664371526011,-0.91796875,0.28710938,0.2626953,-0.0625,-0.1875,-0.09375,0.0,0.0,0.0
1664371526071,-0.90527344,0.2841797,0.26660156,0.0625,0.3125,0.15625,0.0,0.0,0.0
1664371526100,-0.9160156,0.2841797,0.2705078,-0.0625,-0.1875,0.03125,-50.25,22.375,-122.625
1664371526129,-0.9121094,0.28125,0.26660156,0.125,0.25,0.09375,0.0,0.0,0.0
1664371526192,-0.91308594,0.2861328,0.2734375,0.0625,0.25,0.03125,0.0,0.0,0.0
1664371526221,-0.90234375,0.27734375,0.25195312,0.125,0.25,0.09375,0.0,0.0,0.0
1664371526249,-0.9111328,0.29003906,0.26660156,0.3125,0.375,0.03125,0.0,0.0,0.0
1664371526309,-0.91503906,0.2861328,0.26953125,0.125,0.5625,-0.03125,0.0,0.0,0.0
1664371526340,-0.91015625,0.28808594,0.25976562,0.0625,0.25,0.03125,0.0,0.0,0.0
1664371526373,-0.9091797,0.28027344,0.26757812,0.25,0.3125,-0.03125,0.0,0.0,0.0
1664371526461,-0.9160156,0.2939453,0.25683594,-0.0625,0.125,0.03125,0.0,0.0,0.0
1664371526463,-0.92089844,0.27929688,0.27148438,-0.125,0.1875,-0.03125,0.0,0.0,0.0
1664371526490,-0.91503906,0.28808594,0.26757812,0.25,0.3125,-0.03125,0.0,0.0,0.0
1664371526550,-0.9121094,0.2763672,0.26171875,0.375,0.0,-0.09375,0.0,0.0,0.0
1664371526580,-0.9160156,0.28027344,0.27929688,0.125,0.0,0.21875,-48.625,22.8125,-122.4375
1664371526610,-0.9121094,0.2841797,0.25878906,0.25,0.25,-0.09375,0.0,0.0,0.0
1664371526669,-0.91503906,0.2939453,0.2607422,0.125,0.4375,0.09375,0.0,0.0,0.0
1664371526700,-0.91796875,0.28515625,0.25976562,-0.0625,0.125,-0.03125,0.0,0.0,0.0
1664371526731,-0.90722656,0.27929688,0.26171875,0.0,0.0,0.15625,0.0,0.0,0.0
1664371526788,-0.92285156,0.28125,0.25390625,0.0,0.0,-0.03125,0.0,0.0,0.0
1664371526826,-0.91015625,0.2890625,0.26464844,-0.0625,0.4375,-0.03125,0.0,0.0,0.0
1664371526851,-0.91503906,0.2861328,0.28320312,-0.125,0.0,0.40625,0.0,0.0,0.0
1664371526911,-0.9140625,0.28125,0.26464844,0.1875,0.3125,0.15625,0.0,0.0,0.0
1664371526940,-0.90722656,0.28222656,0.26367188,0.0,0.1875,0.15625,0.0,0.0,0.0
1664371526971,-0.9111328,0.2783203,0.28320312,0.1875,0.3125,0.15625,0.0,0.0,0.0
1664371527028,-0.9189453,0.2841797,0.26367188,0.125,0.25,0.46875,0.0,0.0,0.0
1664371527060,-0.9042969,0.28222656,0.26953125,0.0625,0.375,0.21875,0.0,0.0,0.0
1664371527090,-0.9140625,0.2841797,0.2607422,0.0,0.0625,0.21875,-50.25,20.5625,-122.625
1664371527152,-0.91503906,0.27929688,0.26757812,0.0,0.3125,0.15625,0.0,0.0,0.0
1664371527210,-0.9160156,0.27734375,0.27734375,0.0,0.3125,0.28125,0.0,0.0,0.0
1664371527212,-0.90527344,0.2783203,0.2626953,0.25,0.4375,0.21875,0.0,0.0,0.0
1664371527270,-0.9169922,0.2705078,0.27246094,0.3125,0.5,0.40625,0.0,0.0,0.0
1664371527299,-0.9121094,0.28710938,0.25585938,-0.125,0.25,0.65625,0.0,0.0,0.0
1664371527330,-0.90625,0.28710938,0.2548828,0.0625,0.5,0.46875,0.0,0.0,0.0
1664371527389,-0.9189453,0.2939453,0.24609375,0.0,0.25,0.40625,0.0,0.0,0.0
1664371527421,-0.91308594,0.2783203,0.27246094,0.0625,0.3125,0.28125,0.0,0.0,0.0
1664371527451,-0.9189453,0.28808594,0.265625,-0.0625,0.4375,0.46875,0.0,0.0,0.0
1664371527510,-0.90722656,0.28808594,0.2626953,-0.1875,0.3125,0.46875,0.0,0.0,0.0
1664371527539,-0.9189453,0.28710938,0.265625,-0.125,0.5625,0.53125,0.0,0.0,0.0
1664371527569,-0.9121094,0.28515625,0.26464844,-0.0625,0.3125,0.46875,-50.5625,21.1875,-122.625
1664371527631,-0.9082031,0.2841797,0.2783203,0.25,0.71875,0.78125,0.0,0.0,0.0
1664371527660,-0.9121094,0.2861328,0.27539062,0.125,0.5625,0.71875,0.0,0.0,0.0
1664371527690,-0.9238281,0.29296875,0.26464844,0.0625,0.71875,0.71875,0.0,0.0,0.0
1664371527750,-0.90625,0.29003906,0.27148438,0.0625,0.84375,0.65625,0.0,0.0,0.0
1664371527779,-0.9169922,0.28515625,0.26171875,0.1875,0.5,0.71875,0.0,0.0,0.0
1664371527810,-0.90722656,0.2861328,0.25390625,0.0625,0.78125,0.71875,0.0,0.0,0.0
1664371527870,-0.9140625,0.28222656,0.24023438,-0.1875,0.5,0.71875,0.0,0.0,0.0
1664371527898,-0.9169922,0.28808594,0.2626953,0.0625,0.5,0.78125,0.0,0.0,0.0
1664371527929,-0.90625,0.2841797,0.25976562,-0.0625,0.65625,0.8125,0.0,0.0,0.0
1664371527990,-0.9140625,0.28027344,0.25976562,0.5,0.96875,1.0,0.0,0.0,0.0
1664371528020,-0.91308594,0.27246094,0.26367188,0.4375,0.65625,0.8125,0.0,0.0,0.0
1664371528049,-0.9169922,0.2939453,0.2626953,0.625,1.09375,1.0,0.0,0.0,0.0
1664371528111,-0.9140625,0.29589844,0.2705078,-0.0625,0.4375,0.875,-51.3125,22.375,-122.875
1664371528139,-0.90625,0.2861328,0.26757812,0.0625,0.4375,0.28125,0.0,0.0,0.0
1664371528170,-0.9111328,0.28125,0.26171875,0.0,0.25,0.34375,0.0,0.0,0.0
1664371528230,-0.9140625,0.29492188,0.25195312,0.125,0.59375,0.34375,0.0,0.0,0.0
1664371528259,-0.9111328,0.28515625,0.25683594,0.0625,-0.125,-0.09375,0.0,0.0,0.0
1664371528289,-0.9199219,0.29101562,0.27441406,0.4375,0.4375,-0.03125,0.0,0.0,0.0
1664371528349,-0.90722656,0.2939453,0.26757812,0.125,-0.375,-0.21875,0.0,0.0,0.0
1664371528379,-0.9091797,0.2919922,0.2607422,0.1875,0.125,-0.09375,0.0,0.0,0.0
1664371528410,-0.91796875,0.28222656,0.25878906,-0.1875,-0.1875,-0.09375,0.0,0.0,0.0
1664371528470,-0.9111328,0.2890625,0.26953125,0.0625,0.0625,-0.09375,0.0,0.0,0.0
1664371528499,-0.90722656,0.29101562,0.265625,0.0,-0.1875,-0.46875,0.0,0.0,0.0
1664371528529,-0.9082031,0.29003906,0.26757812,0.1875,0.125,0.21875,0.0,0.0,0.0
1664371528592,-0.9111328,0.28710938,0.25,0.0,0.0,-0.28125,-50.6875,21.5,-123.8125
1664371528621,-0.9140625,0.2939453,0.2685547,0.0,0.0,0.09375,0.0,0.0,0.0
1664371528651,-0.9042969,0.28808594,0.26660156,0.0,0.0,-0.15625,0.0,0.0,0.0
1664371528741,-0.91308594,0.2861328,0.24707031,0.3125,0.125,-0.15625,0.0,0.0,0.0
1664371528746,-0.9169922,0.28515625,0.25878906,0.0625,0.4375,0.03125,0.0,0.0,0.0
1664371528769,-0.9121094,0.2939453,0.25878906,-0.1875,0.125,-0.03125,0.0,0.0,0.0
1664371528861,-0.91796875,0.28320312,0.25683594,0.0625,0.3125,0.03125,0.0,0.0,0.0
1664371528863,-0.91308594,0.28027344,0.2626953,0.125,-0.0625,-0.21875,0.0,0.0,0.0
1664371528891,-0.91015625,0.28515625,0.26464844,0.0625,0.3125,0.03125,0.0,0.0,0.0
1664371528981,-0.9091797,0.28222656,0.23828125,0.0,0.1875,-0.09375,0.0,0.0,0.0
1664371528983,-0.9033203,0.28027344,0.26367188,0.25,0.4375,-0.15625,0.0,0.0,0.0
1664371529010,-0.9189453,0.28515625,0.26660156,0.1875,0.4375,0.03125,0.0,0.0,0.0
1664371529099,-0.92285156,0.28515625,0.24414062,0.25,0.5,0.15625,-49.5,21.625,-122.3125
1664371529101,-0.90625,0.27441406,0.25,0.1875,0.4375,0.03125,0.0,0.0,0.0
1664371529130,-0.9248047,0.28515625,0.2529297,0.1875,0.4375,-0.03125,0.0,0.0,0.0
1664371529190,-0.91015625,0.2783203,0.25683594,0.25,0.3125,0.34375,0.0,0.0,0.0
1664371529222,-0.9091797,0.29296875,0.27246094,0.125,0.4375,0.28125,0.0,0.0,0.0
1664371529250,-0.9121094,0.2890625,0.26953125,0.0,0.125,0.15625,0.0,0.0,0.0
1664371529310,-0.9111328,0.2890625,0.26171875,0.0625,0.4375,0.21875,0.0,0.0,0.0
1664371529341,-0.9082031,0.28125,0.25585938,0.0,0.25,0.09375,0.0,0.0,0.0
1664371529370,-0.9189453,0.2890625,0.2607422,0.0,0.1875,0.03125,0.0,0.0,0.0
1664371529490,-0.9140625,0.28222656,0.2548828,0.1875,-0.0625,-0.21875,0.0,0.0,0.0
1664371529492,-0.91308594,0.28125,0.2607422,0.0625,0.375,0.15625,0.0,0.0,0.0
1664371529494,-0.9121094,0.28320312,0.26660156,0.125,0.25,0.09375,0.0,0.0,0.0
1664371529549,-0.92089844,0.28222656,0.27148438,0.0625,0.3125,-0.09375,0.0,0.0,0.0
1664371529580,-0.91503906,0.2841797,0.25,0.0625,-0.125,0.09375,-49.8125,20.875,-123.1875
1664371529610,-0.9121094,0.27929688,0.24804688,0.0,0.0625,0.03125,0.0,0.0,0.0
1664371529730,-0.90722656,0.28027344,0.27148438,-0.125,0.1875,0.15625,0.0,0.0,0.0
1664371529733,-0.9140625,0.27734375,0.26171875,0.0,0.0625,0.09375,0.0,0.0,0.0
1664371529734,-0.9199219,0.2890625,0.27441406,-0.0625,0.1875,0.09375,0.0,0.0,0.0
1664371529823,-0.91015625,0.29003906,0.26660156,0.0,0.125,0.28125,0.0,0.0,0.0
1664371529825,-0.91308594,0.29101562,0.25585938,0.125,0.3125,0.21875,0.0,0.0,0.0
1664371529850,-0.9199219,0.28027344,0.2685547,-0.0625,-0.0625,-0.03125,0.0,0.0,0.0
1664371529911,-0.9042969,0.28710938,0.26660156,0.0,0.25,0.28125,0.0,0.0,0.0
1664371529939,-0.9091797,0.29003906,0.26660156,0.0,0.0625,-0.03125,0.0,0.0,0.0
1664371529970,-0.9111328,0.27929688,0.26757812,0.0,0.1875,-0.15625,0.0,0.0,0.0
1664371530028,-0.91503906,0.28222656,0.25976562,-0.125,0.0,0.15625,0.0,0.0,0.0
1664371530060,-0.9169922,0.28320312,0.26464844,-0.0625,0.1875,0.34375,0.0,0.0,0.0
1664371530090,-0.9140625,0.2890625,0.265625,-0.25,0.1875,0.40625,-50.25,21.625,-123.9375
1664371530148,-0.9140625,0.2763672,0.25683594,0.25,0.375,0.34375,0.0,0.0,0.0
1664371530180,-0.9121094,0.2841797,0.2607422,0.125,0.65625,0.71875,0.0,0.0,0.0
1664371530210,-0.91503906,0.28515625,0.26464844,0.125,0.5,0.65625,0.0,0.0,0.0
1664371530269,-0.90722656,0.29101562,0.2685547,0.0625,0.375,0.59375,0.0,0.0,0.0
1664371530299,-0.91015625,0.28808594,0.2578125,-0.125,0.125,0.59375,0.0,0.0,0.0
1664371530332,-0.9121094,0.29589844,0.25976562,-0.125,0.375,0.40625,0.0,0.0,0.0
1664371530389,-0.9082031,0.2841797,0.2685547,-0.1875,0.375,0.46875,0.0,0.0,0.0
1664371530421,-0.9238281,0.29003906,0.26367188,-0.1875,0.1875,0.59375,0.0,0.0,0.0
1664371530450,-0.9111328,0.2919922,0.2607422,-0.25,0.3125,0.65625,0.0,0.0,0.0
1664371530510,-0.9082031,0.2890625,0.25585938,0.0625,0.65625,0.59375,0.0,0.0,0.0
1664371530539,-0.921875,0.29101562,0.25390625,0.0625,0.375,0.46875,0.0,0.0,0.0
1664371530570,-0.9082031,0.296875,0.27148438,0.0625,0.59375,0.59375,-48.75,22.375,-121.5625
1664371530631,-0.9140625,0.27441406,0.25878906,0.0,0.5625,0.59375,0.0,0.0,0.0
1664371530659,-0.9091797,0.29492188,0.2626953,0.0,0.03125,0.15625,0.0,0.0,0.0
1664371530690,-0.91308594,0.28515625,0.26660156,-0.0625,-0.03125,0.21875,0.0,0.0,0.0
1664371530750,-0.90625,0.28515625,0.25683594,-0.0625,0.03125,0.28125,0.0,0.0,0.0
1664371530779,-0.92089844,0.28222656,0.26660156,-0.1875,-0.09375,0.09375,0.0,0.0,0.0
1664371530810,-0.9111328,0.29296875,0.265625,0.0,0.03125,0.40625,0.0,0.0,0.0
1664371530869,-0.91796875,0.2841797,0.2607422,0.0625,-0.09375,0.15625,0.0,0.0,0.0
1664371530898,-0.92089844,0.2861328,0.265625,0.0625,0.09375,0.34375,0.0,0.0,0.0
1664371530928,-0.9033203,0.28222656,0.25683594,0.0625,0.03125,0.15625,0.0,0.0,0.0
1664371531019,-0.9003906,0.29492188,0.2578125,0.0625,0.03125,-0.03125,0.0,0.0,0.0
1664371531022,-0.91015625,0.28515625,0.26171875,0.0,-0.46875,-0.46875,0.0,0.0,0.0
1664371531050,-0.91503906,0.27539062,0.25585938,0.0,-0.21875,-0.40625,0.0,0.0,0.0
1664371531108,-0.9248047,0.28710938,0.2607422,-0.0625,-0.5,-0.21875,-49.8125,21.625,-123.625
1664371531141,-0.91308594,0.2861328,0.26757812,-0.0625,-0.40625,-0.40625,0.0,0.0,0.0
1664371531170,-0.92089844,0.28808594,0.25976562,0.125,-0.09375,-0.34375,0.0,0.0,0.0
1664371531230,-0.9082031,0.2890625,0.26171875,0.1875,-0.21875,-0.28125,0.0,0.0,0.0
1664371531259,-0.9082031,0.29101562,0.25195312,0.0625,-0.03125,-0.15625,0.0,0.0,0.0
1664371531290,-0.9111328,0.28222656,0.27441406,0.125,-0.03125,-0.09375,0.0,0.0,0.0
1664371531350,-0.91015625,0.2861328,0.25976562,-0.125,-0.28125,-0.03125,0.0,0.0,0.0
1664371531380,-0.90527344,0.29003906,0.25878906,0.0,-0.5625,-0.21875,0.0,0.0,0.0
1664371531410,-0.90722656,0.28808594,0.25,0.0,-0.21875,-0.34375,0.0,0.0,0.0
1664371531472,-0.91308594,0.2939453,0.2607422,0.0,-0.15625,-0.46875,0.0,0.0,0.0
1664371531499,-0.91503906,0.29492188,0.26660156,-0.125,-0.5,-0.40625,0.0,0.0,0.0
1664371531527,-0.9121094,0.2919922,0.25976562,0.0,-0.40625,-0.84375,0.0,0.0,0.0
1664371531590,-0.91015625,0.28027344,0.26660156,0.1875,0.03125,-0.28125,-48.4375,23.0,-122.625
1664371531620,-0.9082031,0.28125,0.26660156,-0.125,0.03125,-0.03125,0.0,0.0,0.0
1664371531650,-0.91796875,0.29101562,0.26171875,0.125,-0.09375,-0.34375,0.0,0.0,0.0
1664371531711,-0.9091797,0.2841797,0.2607422,-0.0625,-0.5625,-0.34375,0.0,0.0,0.0
1664371531768,-0.9248047,0.2890625,0.25585938,0.21875,0.09375,-0.15625,0.0,0.0,0.0
1664371531770,-0.90234375,0.29003906,0.25976562,-0.0625,-0.40625,-0.34375,0.0,0.0,0.0
1664371531829,-0.9091797,0.29003906,0.25878906,0.0,-0.21875,-0.34375,0.0,0.0,0.0
1664371531860,-0.9082031,0.2861328,0.25976562,-0.0625,-0.28125,-0.21875,0.0,0.0,0.0
1664371531890,-0.91308594,0.28222656,0.2626953,-0.0625,-0.09375,-0.34375,0.0,0.0,0.0
1664371531951,-0.9140625,0.2919922,0.2529297,0.0,-0.03125,-0.28125,0.0,0.0,0.0
1664371531981,-0.91503906,0.29003906,0.27734375,0.1875,0.03125,-0.21875,0.0,0.0,0.0
1664371532009,-0.9160156,0.28222656,0.2705078,0.0625,0.03125,-0.03125,0.0,0.0,0.0
1664371532070,-0.9160156,0.2939453,0.2626953,-0.0625,0.03125,-0.28125,0.0,0.0,0.0
1664371532100,-0.921875,0.2861328,0.25976562,-0.125,-0.28125,-0.28125,-49.9375,21.5,-123.8125
1664371532129,-0.9091797,0.2841797,0.25878906,-0.0625,-0.28125,-0.03125,0.0,0.0,0.0
1664371532188,-0.91503906,0.28808594,0.25976562,-0.1875,-0.28125,-0.21875,0.0,0.0,0.0
1664371532221,-0.9189453,0.29785156,0.2607422,-0.0625,-0.40625,-0.09375,0.0,0.0,0.0
1664371532250,-0.9121094,0.28808594,0.25097656,0.0625,-0.15625,-0.46875,0.0,0.0,0.0
1664371532309,-0.9238281,0.27734375,0.26171875,0.0625,0.09375,-0.03125,0.0,0.0,0.0
1664371532340,-0.91308594,0.28710938,0.27246094,-0.0625,-0.15625,-0.09375,0.0,0.0,0.0
1664371532369,-0.9169922,0.29003906,0.26171875,0.0625,0.09375,-0.03125,0.0,0.0,0.0
1664371532430,-0.9042969,0.28125,0.2626953,0.0,-0.09375,-0.28125,0.0,0.0,0.0
1664371532460,-0.921875,0.2841797,0.2685547,0.0625,0.09375,-0.15625,0.0,0.0,0.0
1664371532491,-0.9003906,0.29101562,0.2578125,-0.0625,-0.34375,-0.09375,0.0,0.0,0.0
1664371532548,-0.9121094,0.29296875,0.2578125,-0.0625,-0.09375,-0.28125,0.0,0.0,0.0
1664371532580,-0.9189453,0.28710938,0.265625,-0.25,-0.34375,-0.21875,-49.0625,23.0,-122.875
1664371532610,-0.9140625,0.28222656,0.2578125,-0.25,-0.15625,0.03125,0.0,0.0,0.0
1664371532669,-0.9111328,0.28515625,0.2626953,-0.0625,-0.21875,0.03125,0.0,0.0,0.0
1664371532702,-0.9160156,0.28515625,0.25585938,0.125,0.09375,0.03125,0.0,0.0,0.0
1664371532729,-0.9140625,0.27734375,0.26171875,-0.0625,-0.09375,0.09375,0.0,0.0,0.0
1664371532788,-0.90722656,0.28710938,0.25878906,-0.125,-0.03125,0.09375,0.0,0.0,0.0
1664371532822,-0.9169922,0.27539062,0.2578125,-0.25,-0.15625,-0.03125,0.0,0.0,0.0
1664371532851,-0.9091797,0.2763672,0.2607422,-0.1875,0.15625,0.15625,0.0,0.0,0.0
1664371532909,-0.9111328,0.28222656,0.26367188,-0.1875,-0.03125,-0.03125,0.0,0.0,0.0
1664371532939,-0.9189453,0.27734375,0.26464844,-0.125,-0.15625,0.09375,0.0,0.0,0.0
1664371532970,-0.9111328,0.28125,0.27148438,0.28125,0.09375,0.03125,0.0,0.0,0.0
1664371533029,-0.9121094,0.28125,0.26757812,0.0625,0.28125,0.40625,0.0,0.0,0.0
1664371533059,-0.9111328,0.29003906,0.26367188,-0.1875,0.09375,0.34375,0.0,0.0,0.0
1664371533090,-0.9082031,0.2841797,0.2607422,0.0,0.15625,0.09375,-49.0625,23.4375,-123.1875
1664371533149,-0.9091797,0.28125,0.2529297,0.125,0.09375,0.03125,0.0,0.0,0.0
1664371533180,-0.9169922,0.28222656,0.26660156,0.0625,0.09375,0.03125,0.0,0.0,0.0
1664371533210,-0.91308594,0.2939453,0.26367188,0.0,0.03125,0.09375,0.0,0.0,0.0
1664371533299,-0.91308594,0.28222656,0.26464844,0.0625,0.21875,-0.03125,0.0,0.0,0.0
1664371533301,-0.91503906,0.28222656,0.25585938,0.03125,0.125,0.0,0.0,0.0,0.0
1664371533329,-0.92089844,0.29296875,0.25878906,0.03125,-0.125,0.21875,0.0,0.0,0.0
1664371533389,-0.90625,0.28222656,0.2578125,0.28125,0.125,0.125,0.0,0.0,0.0
1664371533420,-0.90722656,0.2841797,0.25390625,0.09375,0.125,0.28125,0.0,0.0,0.0
1664371533450,-0.9111328,0.2890625,0.26367188,-0.03125,0.0625,0.15625,0.0,0.0,0.0
1664371533510,-0.9091797,0.296875,0.25097656,-0.03125,-0.125,0.0625,0.0,0.0,0.0
1664371533540,-0.91308594,0.28027344,0.26660156,-0.15625,-0.1875,-0.25,0.0,0.0,0.0
1664371533570,-0.9248047,0.28027344,0.25585938,-0.40625,-0.25,-0.0625,-49.0625,21.625,-121.5625
1664371533632,-0.92285156,0.28027344,0.24414062,-0.59375,-0.65625,-0.125,0.0,0.0,0.0
1664371533659,-0.91015625,0.2783203,0.26171875,-0.03125,-0.3125,-0.25,0.0,0.0,0.0
1664371533691,-0.91015625,0.26953125,0.25878906,0.09375,-0.375,-0.3125,0.0,0.0,0.0
1664371533751,-0.9091797,0.28808594,0.26367188,0.15625,0.0625,0.15625,0.0,0.0,0.0
1664371533778,-0.9091797,0.28125,0.265625,0.03125,-0.25,-0.25,0.0,0.0,0.0
1664371533809,-0.91308594,0.28027344,0.25683594,0.09375,-0.125,-0.0625,0.0,0.0,0.0
1664371533870,-0.92285156,0.27929688,0.26757812,0.03125,-0.5,-0.5625,0.0,0.0,0.0
1664371533900,-0.92089844,0.29101562,0.24902344,0.15625,0.0625,-0.1875,0.0,0.0,0.0
1664371533930,-0.90527344,0.2861328,0.26464844,-0.03125,-0.4375,-0.3125,0.0,0.0,0.0
1664371533990,-0.91308594,0.2890625,0.26367188,0.09375,0.0625,0.0,0.0,0.0,0.0
1664371534049,-0.9189453,0.28515625,0.26464844,-0.03125,-0.1875,-0.25,0.0,0.0,0.0
1664371534052,-0.91796875,0.29101562,0.26367188,0.15625,0.0625,0.0,0.0,0.0,0.0
1664371534109,-0.9121094,0.28515625,0.25976562,-0.15625,-0.0625,-0.0625,-51.625,21.625,-123.9375
1664371534140,-0.91503906,0.2861328,0.25,0.09375,0.1875,0.0625,0.0,0.0,0.0
1664371534170,-0.9042969,0.29101562,0.25195312,0.03125,-0.125,-0.1875,0.0,0.0,0.0
1664371534201,-0.91015625,0.28027344,0.27148438,0.21875,0.1875,-0.1875,0.0,0.0,0.0
1664371534260,-0.9082031,0.2861328,0.27246094,-0.03125,-0.25,-0.0625,0.0,0.0,0.0
1664371534290,-0.91796875,0.29296875,0.27246094,0.03125,0.1875,-0.1875,0.0,0.0,0.0
1664371534321,-0.9091797,0.28027344,0.26367188,-0.28125,-0.4375,-0.3125,0.0,0.0,0.0
1664371534380,-0.9267578,0.2939453,0.24414062,0.21875,-0.0625,-0.25,0.0,0.0,0.0
1664371534409,-0.90527344,0.2841797,0.2607422,0.03125,-0.1875,-0.3125,0.0,0.0,0.0
1664371534439,-0.91308594,0.2919922,0.26171875,-0.09375,-0.1875,0.0625,0.0,0.0,0.0
1664371534500,-0.9189453,0.28027344,0.25195312,0.03125,-0.375,-0.375,0.0,0.0,0.0
1664371534529,-0.9160156,0.28710938,0.2685547,0.03125,-0.1875,-0.3125,0.0,0.0,0.0
1664371534592,-0.9140625,0.2919922,0.2607422,0.03125,-0.3125,-0.25,-50.5625,22.6875,-122.3125
1664371534620,-0.9091797,0.28222656,0.2548828,-0.09375,-0.3125,-0.0625,0.0,0.0,0.0
1664371534654,-0.9140625,0.28222656,0.26464844,0.09375,0.0,-0.25,0.0,0.0,0.0
1664371534678,-0.91796875,0.28515625,0.265625,-0.03125,-0.25,0.0,0.0,0.0,0.0
1664371534741,-0.9082031,0.27246094,0.26660156,0.15625,0.0625,-0.0625,0.0,0.0,0.0
1664371534770,-0.9121094,0.2841797,0.25585938,0.15625,-0.1875,0.0,0.0,0.0,0.0
1664371534800,-0.91015625,0.28515625,0.24804688,0.09375,-0.25,-0.1875,0.0,0.0,0.0
1664371534862,-0.9111328,0.28808594,0.2626953,0.21875,0.1875,-0.0625,0.0,0.0,0.0
1664371534890,-0.9111328,0.2919922,0.26464844,-0.09375,-0.125,-0.1875,0.0,0.0,0.0
1664371534921,-0.921875,0.2841797,0.265625,-0.09375,0.0,0.0625,0.0,0.0,0.0
1664371534979,-0.9091797,0.28222656,0.2685547,-0.21875,-0.0625,0.0,0.0,0.0,0.0
1664371535010,-0.92285156,0.28320312,0.265625,0.03125,0.0625,0.0,0.0,0.0,0.0
1664371535039,-0.90722656,0.28027344,0.25585938,0.03125,-0.0625,-0.125,0.0,0.0,0.0
1664371535101,-0.9169922,0.2841797,0.26953125,0.40625,0.0625,-0.25,-50.6875,21.8125,-121.375
1664371535131,-0.9140625,0.2841797,0.2705078,-0.15625,-0.125,0.0625,0.0,0.0,0.0
1664371535159,-0.9160156,0.27734375,0.25195312,0.03125,0.0,0.0,0.0,0.0,0.0
1664371535221,-0.9160156,0.2890625,0.265625,-0.15625,-0.4375,-0.25,0.0,0.0,0.0
1664371535249,-0.9091797,0.28125,0.2548828,0.21875,0.0625,-0.1875,0.0,0.0,0.0
1664371535280,-0.9248047,0.29003906,0.25878906,0.15625,-0.25,-0.3125,0.0,0.0,0.0
1664371535340,-0.90722656,0.2763672,0.26367188,0.03125,-0.0625,-0.1875,0.0,0.0,0.0
1664371535370,-0.90722656,0.2763672,0.27148438,-0.28125,-0.0625,-0.1875,0.0,0.0,0.0
1664371535400,-0.92089844,0.27929688,0.25878906,-0.03125,0.0,0.125,0.0,0.0,0.0
1664371535461,-0.9121094,0.28808594,0.25585938,-0.28125,0.0625,0.125,0.0,0.0,0.0
1664371535490,-0.9111328,0.28808594,0.27148438,0.09375,0.5,0.21875,0.0,0.0,0.0
1664371535520,-0.9121094,0.28125,0.2626953,-0.03125,-0.0625,0.15625,0.0,0.0,0.0
1664371535581,-0.91796875,0.2890625,0.2607422,0.09375,0.5625,0.28125,-49.5,22.375,-123.1875
1664371535610,-0.9121094,0.2841797,0.27441406,-0.21875,-0.3125,0.0625,0.0,0.0,0.0
1664371535644,-0.90722656,0.28320312,0.24902344,0.09375,0.1875,0.40625,0.0,0.0,0.0
1664371535702,-0.91503906,0.28808594,0.26757812,-0.21875,-0.0625,0.28125,0.0,0.0,0.0
1664371535730,-0.91796875,0.28125,0.26953125,-0.15625,0.1875,0.21875,0.0,0.0,0.0
1664371535760,-0.9140625,0.28222656,0.26757812,-0.21875,-0.1875,0.15625,0.0,0.0,0.0
1664371535818,-0.91503906,0.28808594,0.2548828,0.34375,0.0,0.125,0.0,0.0,0.0
1664371535850,-0.92285156,0.2890625,0.2685547,0.09375,0.1875,0.28125,0.0,0.0,0.0
1664371535879,-0.9091797,0.2939453,0.2421875,-0.15625,0.0625,0.15625,0.0,0.0,0.0
1664371535940,-0.9121094,0.29003906,0.25976562,-0.03125,-0.0625,-0.15625,0.0,0.0,0.0
1664371535975,-0.9111328,0.28710938,0.27148438,-0.03125,-0.125,-0.15625,0.0,0.0,0.0
1664371535999,-0.91503906,0.2861328,0.2548828,0.03125,-0.125,0.03125,0.0,0.0,0.0
1664371536061,-0.9121094,0.29003906,0.25683594,-0.09375,-0.125,0.03125,0.0,0.0,0.0
1664371536090,-0.9189453,0.28222656,0.25390625,0.1875,0.1875,-0.21875,-49.8125,21.625,-121.5625
1664371536180,-0.9111328,0.27734375,0.25390625,-0.09375,-0.1875,0.03125,0.0,0.0,0.0
1664371536183,-0.9140625,0.28125,0.25,0.15625,0.125,0.15625,0.0,0.0,0.0
1664371536209,-0.91308594,0.2841797,0.25585938,-0.03125,-0.125,-0.15625,0.0,0.0,0.0
1664371536331,-0.91503906,0.28710938,0.24609375,0.375,0.1875,-0.03125,0.0,0.0,0.0
1664371536333,-0.9111328,0.2890625,0.24414062,0.03125,-0.1875,-0.09375,0.0,0.0,0.0
1664371536336,-0.90234375,0.28222656,0.26367188,0.09375,-0.125,-0.21875,0.0,0.0,0.0
1664371536360,-0.921875,0.28222656,0.25878906,-0.03125,-0.0625,-0.21875,0.0,0.0,0.0
1664371536421,-0.90722656,0.28710938,0.25878906,0.03125,-0.25,-0.21875,0.0,0.0,0.0
1664371536450,-0.9199219,0.27929688,0.25,-0.09375,-0.125,-0.15625,0.0,0.0,0.0
1664371536483,-0.91015625,0.28222656,0.2685547,0.15625,-0.0625,-0.21875,0.0,0.0,0.0
1664371536539,-0.91796875,0.2890625,0.26464844,0.15625,-0.25,-0.28125,0.0,0.0,0.0
1664371536569,-0.90527344,0.2919922,0.25878906,0.15625,0.125,0.03125,-50.875,23.4375,-124.25
1664371536599,-0.91308594,0.2861328,0.2685547,0.09375,0.0,-0.28125,0.0,0.0,0.0
1664371536658,-0.90722656,0.28710938,0.25976562,0.03125,-0.3125,-0.28125,0.0,0.0,0.0
1664371536690,-0.91796875,0.2783203,0.265625,0.03125,-0.1875,-0.21875,0.0,0.0,0.0
1664371536720,-0.9160156,0.28808594,0.25585938,-0.03125,-0.375,-0.34375,0.0,0.0,0.0
1664371536779,-0.921875,0.28222656,0.26757812,0.03125,-0.3125,-0.28125,0.0,0.0,0.0
1664371536810,-0.9140625,0.2919922,0.2607422,-0.03125,-0.25,-0.34375,0.0,0.0,0.0
1664371536840,-0.9082031,0.28125,0.26367188,0.03125,-0.3125,-0.15625,0.0,0.0,0.0
1664371536900,-0.9199219,0.2841797,0.265625,0.09375,-0.0625,-0.15625,0.0,0.0,0.0
1664371536930,-0.91308594,0.28710938,0.25585938,0.03125,-0.25,-0.21875,0.0,0.0,0.0
1664371536961,-0.91503906,0.28027344,0.26757812,0.09375,-0.1875,-0.34375,0.0,0.0,0.0
1664371537020,-0.9111328,0.29296875,0.26757812,0.03125,-0.1875,-0.21875,0.0,0.0,0.0
1664371537049,-0.9140625,0.28710938,0.26953125,-0.15625,-0.1875,-0.34375,0.0,0.0,0.0
1664371537079,-0.91308594,0.27539062,0.265625,0.03125,-0.4375,-0.15625,-49.0625,21.9375,-123.9375
1664371537139,-0.91015625,0.2841797,0.24804688,0.09375,-0.0625,-0.21875,0.0,0.0,0.0
1664371537168,-0.92089844,0.2783203,0.26367188,-0.09375,-0.1875,-0.15625,0.0,0.0,0.0
1664371537200,-0.91796875,0.2890625,0.26757812,-0.03125,-0.0625,-0.15625,0.0,0.0,0.0
1664371537260,-0.92089844,0.2763672,0.25195312,0.1875,-0.1875,-0.28125,0.0,0.0,0.0
1664371537288,-0.92089844,0.27734375,0.26660156,0.1875,0.3125,-0.03125,0.0,0.0,0.0
1664371537320,-0.91308594,0.28808594,0.25683594,0.03125,-0.0625,0.1875,0.0,0.0,0.0
1664371537380,-0.90625,0.2919922,0.26464844,0.15625,0.125,-0.15625,0.0,0.0,0.0
1664371537410,-0.91796875,0.28027344,0.25976562,0.25,-0.5625,-0.34375,0.0,0.0,0.0
1664371537439,-0.9042969,0.28125,0.2626953,0.15625,-0.6875,-0.40625,0.0,0.0,0.0
1664371537500,-0.9296875,0.27929688,0.28125,-0.65625,-0.625,-0.03125,0.0,0.0,0.0
1664371537529,-0.921875,0.25097656,0.26464844,-0.21875,-1.34375,1.65625,0.0,0.0,0.0
1664371537560,-0.9277344,0.27929688,0.27929688,0.8125,0.53125,3.6875,-50.875,22.6875,-122.875
1664371537620,-0.89941406,0.3203125,0.2685547,1.375,0.90625,-0.71875,0.0,0.0,0.0
1664371537650,-0.8935547,0.30566406,0.26660156,1.78125,-0.90625,-1.6875,0.0,0.0,0.0
1664371537678,-0.88964844,0.31152344,0.2685547,0.25,0.0625,-1.3125,0.0,0.0,0.0
1664371537739,-0.91015625,0.29003906,0.26660156,-0.78125,0.125,-3.34375,0.0,0.0,0.0
1664371537769,-0.9316406,0.28710938,0.26953125,-1.09375,-0.625,-2.125,0.0,0.0,0.0
1664371537801,-0.92285156,0.26953125,0.2607422,-1.4375,-1.46875,-1.4375,0.0,0.0,0.0
1664371537861,-0.90527344,0.2734375,0.23535156,-0.28125,-0.25,-1.625,0.0,0.0,0.0
1664371537890,-0.91503906,0.28222656,0.24707031,-0.21875,-0.125,-2.46875,0.0,0.0,0.0
1664371537919,-0.9326172,0.2841797,0.26367188,-0.65625,-1.40625,-2.59375,0.0,0.0,0.0
1664371537980,-0.921875,0.26660156,0.26171875,-1.03125,-2.375,-2.375,0.0,0.0,0.0
1664371538009,-0.9248047,0.2734375,0.27441406,-0.96875,-2.5,-2.46875,0.0,0.0,0.0
1664371538039,-0.9140625,0.27929688,0.28515625,-1.75,-2.6875,-2.65625,0.0,0.0,0.0
1664371538101,-0.9003906,0.2783203,0.26660156,-1.75,-2.1875,-1.6875,-50.5625,21.9375,-122.625
1664371538129,-0.9160156,0.28027344,0.28222656,-2.3125,-1.90625,-1.4375,0.0,0.0,0.0
1664371538160,-0.9238281,0.2734375,0.28710938,-2.25,-1.65625,-1.03125,0.0,0.0,0.0
1664371538220,-0.9189453,0.25195312,0.29003906,-1.9375,-1.40625,-0.28125,0.0,0.0,0.0
1664371538250,-0.9248047,0.2607422,0.2841797,-1.03125,-1.53125,0.15625,0.0,0.0,0.0
1664371538280,-0.9160156,0.25878906,0.27734375,-0.59375,-1.71875,-0.09375,0.0,0.0,0.0
1664371538341,-0.90527344,0.27148438,0.27246094,-0.53125,-1.46875,-0.03125,0.0,0.0,0.0
1664371538372,-0.91503906,0.27539062,0.27246094,-0.28125,-1.71875,-0.34375,0.0,0.0,0.0
1664371538400,-0.9160156,0.27441406,0.26757812,-0.28125,-2.09375,-0.21875,0.0,0.0,0.0
1664371538461,-0.9042969,0.27148438,0.2939453,-0.53125,-1.65625,-0.53125,0.0,0.0,0.0
1664371538490,-0.91308594,0.27246094,0.29296875,-0.46875,-1.34375,-0.59375,0.0,0.0,0.0
1664371538520,-0.91015625,0.2548828,0.28710938,-0.46875,-0.90625,-0.53125,0.0,0.0,0.0
1664371538611,-0.91503906,0.27148438,0.28515625,-0.34375,-0.5,-0.46875,-48.4375,22.375,-121.875
1664371538613,-0.9042969,0.26171875,0.28027344,-0.34375,-0.5,-0.40625,0.0,0.0,0.0
1664371538639,-0.92089844,0.26171875,0.2919922,0.09375,0.0625,0.1875,0.0,0.0,0.0
1664371538700,-0.91503906,0.2548828,0.2783203,0.5625,0.4375,-0.28125,0.0,0.0,0.0
1664371538729,-0.91796875,0.26660156,0.27929688,0.6875,0.59375,0.375,0.0,0.0,0.0
1664371538760,-0.9042969,0.27929688,0.2841797,0.625,0.46875,-0.03125,0.0,0.0,0.0
1664371538821,-0.91015625,0.27539062,0.2919922,0.5,0.46875,-0.40625,0.0,0.0,0.0
1664371538849,-0.9082031,0.2578125,0.27246094,0.03125,-0.3125,-0.71875,0.0,0.0,0.0
1664371538880,-0.9111328,0.26660156,0.2890625,0.3125,0.375,-0.15625,0.0,0.0,0.0
1664371538939,-0.921875,0.26464844,0.27734375,0.15625,0.3125,-0.46875,0.0,0.0,0.0
1664371538971,-0.9140625,0.26953125,0.28808594,0.1875,-0.3125,-0.09375,0.0,0.0,0.0
1664371539000,-0.9003906,0.2626953,0.2890625,0.25,0.125,-0.40625,0.0,0.0,0.0
1664371539060,-0.91308594,0.2607422,0.28320312,0.4375,0.375,-0.09375,0.0,0.0,0.0
1664371539090,-0.91015625,0.27539062,0.2890625,0.25,-0.3125,-0.34375,-48.625,21.5,-123.5
1664371539120,-0.9160156,0.27148438,0.28027344,0.3125,0.125,-0.59375,0.0,0.0,0.0
1664371539181,-0.92578125,0.2685547,0.28125,0.15625,0.0,-0.03125,0.0,0.0,0.0
1664371539210,-0.90722656,0.25878906,0.28515625,0.03125,-0.375,-0.03125,0.0,0.0,0.0
1664371539238,-0.92285156,0.2607422,0.2890625,0.375,0.46875,0.09375,0.0,0.0,0.0
