# Sensor type: Thingy
# Activity type: Movement
# Activity code: 9
# Subject id: s1912575
# Notes: 
timestamp,accel_x,accel_y,accel_z,gyro_x,gyro_y,gyro_z,mag_x,mag_y,mag_z
1664896857634,-0.53027344,-0.09375,0.859375,-11.4375,7.90625,-2.0,0.0,0.0,0.0
1664896857663,-0.5253906,-0.15234375,0.7949219,-3.8125,13.59375,-2.4375,0.0,0.0,0.0
1664896857724,-0.5,-0.15625,0.79003906,-0.84375,14.09375,1.46875,0.0,0.0,0.0
1664896857753,-0.4970703,-0.13769531,0.765625,10.21875,8.71875,8.90625,-55.0625,-9.6875,-102.625
1664896857783,-0.4794922,-0.18847656,0.79785156,15.53125,-10.15625,12.8125,0.0,0.0,0.0
1664896857815,-0.5566406,-0.15234375,0.9140625,24.5625,-9.78125,16.78125,0.0,0.0,0.0
1664896857874,-0.5595703,-0.19921875,0.92871094,21.375,-11.625,8.6875,0.0,0.0,0.0
1664896857903,-0.55859375,-0.2548828,0.9785156,5.625,24.21875,10.5,0.0,0.0,0.0
1664896857935,-0.42578125,-0.109375,0.7265625,57.28125,94.40625,23.9375,0.0,0.0,0.0
1664896857994,-1.0351562,-0.0703125,0.9785156,52.5625,108.5,17.65625,0.0,0.0,0.0
1664896858023,-0.8574219,-0.25097656,0.96777344,88.84375,95.25,39.5625,0.0,0.0,0.0
1664896858057,-0.93066406,0.3154297,0.87402344,69.78125,92.5625,59.6875,0.0,0.0,0.0
1664896858114,-0.77246094,0.1953125,0.75878906,68.75,48.25,74.96875,0.0,0.0,0.0
1664896858147,-0.81640625,0.34375,0.7294922,73.625,61.625,76.46875,0.0,0.0,0.0
1664896858174,-0.88378906,0.28222656,0.6923828,79.1875,77.9375,76.59375,0.0,0.0,0.0
1664896858234,-0.9560547,0.41210938,0.5361328,85.40625,76.71875,79.09375,-63.0,9.1875,-122.0
1664896858264,-0.8105469,0.76660156,0.5019531,79.75,53.03125,97.65625,0.0,0.0,0.0
1664896858293,-0.6845703,0.96875,0.69628906,35.78125,-26.875,105.90625,0.0,0.0,0.0
1664896858355,-0.7480469,1.4853516,0.76171875,-9.0,-55.5625,90.40625,0.0,0.0,0.0
1664896858384,-0.27441406,0.8955078,0.39257812,-54.90625,-135.21875,67.75,0.0,0.0,0.0
1664896858414,0.018554688,0.20019531,0.056640625,-44.40625,-102.0,124.21875,0.0,0.0,0.0
1664896858475,-0.28808594,0.47558594,0.0068359375,-54.59375,-50.5,84.46875,0.0,0.0,0.0
1664896858503,-0.5205078,0.3125,0.15722656,-47.28125,73.96875,72.03125,0.0,0.0,0.0
1664896858533,-0.8808594,9.765625E-4,0.38671875,-28.3125,63.09375,35.40625,0.0,0.0,0.0
1664896858596,-0.3095703,-0.2109375,0.6689453,39.375,-33.71875,20.34375,0.0,0.0,0.0
1664896858624,-0.453125,0.30859375,0.66308594,78.4375,-47.4375,4.78125,0.0,0.0,0.0
1664896858653,-0.13476562,0.8105469,0.7861328,80.59375,-4.53125,-10.25,0.0,0.0,0.0
1664896858714,0.046875,0.9501953,0.5449219,71.375,-6.5,0.25,0.0,0.0,0.0
1664896858744,0.22558594,0.8017578,0.44140625,79.375,-27.34375,10.25,-45.625,27.1875,-122.0
1664896858774,0.018554688,0.81347656,0.33496094,85.09375,60.90625,-5.71875,0.0,0.0,0.0
1664896858835,-0.3701172,1.1640625,-0.12988281,92.375,74.625,-6.46875,0.0,0.0,0.0
1664896858864,-0.24609375,1.9492188,0.80078125,-45.375,-50.90625,16.4375,0.0,0.0,0.0
1664896858894,-0.8925781,0.5986328,0.21582031,-40.875,99.21875,-30.875,0.0,0.0,0.0
1664896858955,-0.8642578,0.62597656,0.14160156,52.6875,57.71875,-17.4375,0.0,0.0,0.0
1664896858984,-1.1152344,0.5263672,-0.034179688,75.40625,25.25,-46.375,0.0,0.0,0.0
1664896859014,-0.55859375,0.95410156,-0.14648438,23.03125,26.28125,7.875,0.0,0.0,0.0
1664896859076,-0.46777344,0.8496094,0.18457031,71.6875,-1.25,-24.09375,0.0,0.0,0.0
1664896859106,-0.32128906,0.8154297,0.057617188,52.75,-24.625,-13.59375,0.0,0.0,0.0
1664896859133,-0.35058594,0.75683594,0.32226562,24.375,0.0,-9.34375,0.0,0.0,0.0
1664896859196,-0.7705078,0.80371094,0.044921875,0.5,24.53125,-3.28125,0.0,0.0,0.0
1664896859225,-0.53027344,0.82421875,0.15722656,-28.59375,32.15625,-8.53125,-50.5625,24.8125,-140.875
1664896859255,-0.7841797,0.82128906,0.16992188,-1.9375,1.875,-4.625,0.0,0.0,0.0
1664896859315,-0.6953125,0.72753906,0.18945312,5.625,52.0,-22.625,0.0,0.0,0.0
1664896859345,-0.5253906,0.7949219,-0.12792969,-34.40625,33.96875,-26.65625,0.0,0.0,0.0
1664896859375,-0.5107422,0.8183594,0.025390625,-51.25,25.9375,-14.09375,0.0,0.0,0.0
1664896859435,-0.51464844,0.546875,-0.14160156,24.9375,-2.34375,0.75,0.0,0.0,0.0
1664896859465,-0.58203125,0.6904297,0.09375,25.71875,-12.34375,5.625,0.0,0.0,0.0
1664896859494,-0.8984375,1.2158203,-0.051757812,25.34375,16.65625,2.5,0.0,0.0,0.0
1664896859556,-0.61816406,0.7402344,-0.06542969,-24.625,0.71875,3.53125,0.0,0.0,0.0
1664896859585,-0.5703125,0.90234375,0.064453125,3.875,-57.5,0.96875,0.0,0.0,0.0
1664896859614,-0.69433594,0.7207031,0.09472656,-22.125,-39.0625,-5.5625,0.0,0.0,0.0
1664896859674,-0.68652344,0.890625,-0.10253906,31.53125,-83.6875,-12.875,0.0,0.0,0.0
1664896859704,-0.4814453,0.65625,0.07128906,-2.59375,-40.71875,3.59375,0.0,0.0,0.0
1664896859734,-0.43066406,0.7158203,0.10644531,61.0,-86.75,-15.25,-52.9375,25.375,-137.3125
1664896859794,-0.5078125,0.81933594,0.037109375,71.1875,-86.4375,-28.5625,0.0,0.0,0.0
1664896859825,-0.50683594,0.88378906,0.11230469,36.9375,-76.125,-22.46875,0.0,0.0,0.0
1664896859856,-0.52246094,0.9326172,-0.0078125,3.1875,-90.09375,-32.53125,0.0,0.0,0.0
1664896859914,-0.5683594,1.0869141,0.3251953,-40.625,-84.3125,-21.65625,0.0,0.0,0.0
1664896859944,-0.6503906,1.0585938,0.43554688,-17.125,-55.25,-15.0625,0.0,0.0,0.0
1664896860006,-0.09375,0.8623047,0.5078125,-31.71875,14.625,0.1875,0.0,0.0,0.0
1664896860033,-0.61816406,0.94140625,0.5683594,-6.625,4.3125,20.5625,0.0,0.0,0.0
1664896860064,-0.6640625,0.5644531,0.09667969,-23.53125,44.0625,0.5625,0.0,0.0,0.0
1664896860094,-0.34179688,0.3251953,0.109375,2.65625,71.875,-0.25,0.0,0.0,0.0
1664896860154,-0.2705078,0.41796875,0.18066406,-0.71875,53.28125,12.03125,0.0,0.0,0.0
1664896860184,-0.19238281,0.47265625,0.17480469,38.46875,34.15625,11.1875,0.0,0.0,0.0
1664896860216,-0.421875,0.7001953,-0.10546875,103.125,15.71875,6.21875,-57.4375,23.4375,-134.75
1664896860274,-0.50097656,0.9609375,-0.107421875,100.78125,5.84375,13.75,0.0,0.0,0.0
1664896860306,-0.390625,1.2373047,0.3173828,91.75,73.78125,4.8125,0.0,0.0,0.0
1664896860336,-0.4580078,1.6806641,-0.34472656,119.65625,-35.65625,-6.90625,0.0,0.0,0.0
1664896860394,-0.9160156,1.7607422,0.1171875,-18.46875,212.6875,18.875,0.0,0.0,0.0
1664896860425,-1.1601562,0.6689453,0.40234375,-112.78125,172.59375,38.28125,0.0,0.0,0.0
1664896860455,-1.2460938,0.44335938,0.15722656,-57.21875,37.28125,-7.375,0.0,0.0,0.0
1664896860513,-0.7294922,0.4921875,0.08886719,-62.53125,36.0,-37.28125,0.0,0.0,0.0
1664896860544,-0.4609375,0.38085938,-0.080078125,-39.03125,71.59375,-27.8125,0.0,0.0,0.0
1664896860574,-0.5517578,0.5263672,0.14453125,-14.9375,54.375,-3.0,0.0,0.0,0.0
1664896860634,-0.60253906,0.5957031,0.16210938,-21.03125,42.71875,1.65625,0.0,0.0,0.0
1664896860665,-0.56640625,0.6074219,0.0234375,-16.40625,51.8125,6.53125,0.0,0.0,0.0
1664896860695,-0.5703125,0.67578125,0.2548828,-13.53125,60.09375,-2.75,0.0,0.0,0.0
1664896860755,-0.7470703,0.78125,0.23242188,-5.84375,46.75,3.0625,-49.375,25.0625,-151.875
1664896860785,-0.8330078,0.69921875,0.23242188,6.0625,20.375,9.65625,0.0,0.0,0.0
1664896860845,-0.7626953,0.8701172,0.033203125,-24.6875,-17.59375,9.09375,0.0,0.0,0.0
1664896860874,-1.1845703,0.9746094,0.13671875,-119.0,-79.46875,-11.96875,0.0,0.0,0.0
1664896860903,-0.93847656,1.0996094,-0.03125,-89.75,-193.625,-1.71875,0.0,0.0,0.0
1664896860936,-1.2041016,0.671875,0.0146484375,-63.15625,-233.65625,-63.65625,0.0,0.0,0.0
1664896860995,-1.0351562,0.8779297,-0.16113281,-58.28125,-113.78125,-103.28125,0.0,0.0,0.0
1664896861022,-0.94921875,0.75683594,0.13769531,-60.65625,-40.90625,-74.6875,0.0,0.0,0.0
1664896861054,-0.89160156,0.8330078,0.4091797,-39.28125,41.1875,-63.96875,0.0,0.0,0.0
1664896861114,-0.7636719,0.5517578,0.029296875,100.4375,-124.84375,-112.78125,0.0,0.0,0.0
1664896861143,0.11816406,0.8857422,0.064453125,66.375,-124.09375,-63.34375,0.0,0.0,0.0
1664896861175,-0.24902344,0.5107422,0.20605469,58.75,-57.28125,-52.53125,0.0,0.0,0.0
1664896861236,-0.15527344,0.48242188,0.32421875,36.03125,-12.15625,-37.09375,-60.125,18.1875,-127.5625
1664896861264,-0.20410156,0.5390625,0.30273438,27.96875,24.09375,-6.03125,0.0,0.0,0.0
1664896861324,-0.44140625,0.47753906,0.13183594,28.15625,63.40625,17.28125,0.0,0.0,0.0
1664896861355,-0.6689453,0.55078125,0.07714844,11.0,82.0625,28.5,0.0,0.0,0.0
1664896861383,-0.4951172,0.5361328,-0.2763672,39.09375,120.65625,9.84375,0.0,0.0,0.0
1664896861414,-0.96875,2.0205078,2.0478516,151.09375,52.34375,41.6875,0.0,0.0,0.0
1664896861475,-0.9238281,1.4765625,-0.23046875,-80.25,64.6875,29.65625,0.0,0.0,0.0
1664896861503,-1.3359375,0.4873047,-0.16308594,-3.625,-43.34375,20.21875,0.0,0.0,0.0
1664896861534,-1.1376953,0.50878906,-0.1015625,20.71875,-29.5,-21.84375,0.0,0.0,0.0
1664896861595,-0.34765625,0.89941406,0.048828125,44.34375,14.3125,-14.65625,0.0,0.0,0.0
1664896861623,-0.27148438,0.8378906,0.5517578,39.4375,6.21875,15.375,0.0,0.0,0.0
1664896861654,-0.67089844,0.45898438,0.19140625,4.78125,2.90625,22.71875,0.0,0.0,0.0
1664896861715,-1.1835938,0.58984375,0.12695312,4.65625,-3.5,-3.46875,0.0,0.0,0.0
1664896861745,-0.5751953,0.6748047,0.0087890625,-2.125,-22.0625,-21.96875,-58.5,21.625,-139.875
1664896861776,-0.4921875,0.81347656,-0.047851562,5.6875,-32.3125,-16.71875,0.0,0.0,0.0
1664896861836,-0.72265625,1.1650391,-0.11621094,-18.21875,-53.0625,-13.3125,0.0,0.0,0.0
1664896861864,-0.19433594,1.2207031,0.046875,-22.625,18.90625,-12.875,0.0,0.0,0.0
1664896861894,-0.3984375,0.9951172,0.15429688,-59.25,3.28125,6.46875,0.0,0.0,0.0
1664896861955,-1.0888672,0.92871094,0.29101562,-91.46875,16.53125,-25.5,0.0,0.0,0.0
1664896861991,-0.95410156,0.63671875,0.39257812,-111.84375,-69.09375,-44.4375,0.0,0.0,0.0
1664896862044,-0.87597656,0.375,0.6669922,-49.53125,-5.5625,-41.875,0.0,0.0,0.0
1664896862074,-1.0302734,0.4423828,0.15820312,-18.15625,-143.03125,-0.65625,0.0,0.0,0.0
1664896862135,-0.46191406,0.20410156,0.11230469,23.65625,-84.90625,21.78125,0.0,0.0,0.0
1664896862137,0.0859375,0.14648438,0.2548828,9.3125,72.25,45.40625,0.0,0.0,0.0
1664896862195,0.15917969,0.49023438,0.49804688,58.90625,57.125,54.6875,0.0,0.0,0.0
1664896862224,-0.7597656,0.67871094,0.16015625,83.875,-21.875,61.28125,-59.6875,18.9375,-129.0625
1664896862284,-1.0546875,0.9638672,0.03125,141.4375,95.125,59.75,0.0,0.0,0.0
1664896862315,-0.38867188,1.0234375,-0.111328125,113.4375,67.96875,27.90625,0.0,0.0,0.0
1664896862345,0.0087890625,1.0654297,0.42382812,173.25,-57.15625,23.8125,0.0,0.0,0.0
1664896862375,-0.05859375,0.578125,-0.4736328,85.59375,94.21875,56.03125,0.0,0.0,0.0
1664896862435,-1.6064453,1.1884766,-0.03125,16.0,72.125,75.125,0.0,0.0,0.0
1664896862464,-1.6738281,0.8623047,0.68847656,-21.53125,101.25,-31.125,0.0,0.0,0.0
1664896862494,-0.9638672,1.1318359,-0.07910156,-21.15625,11.34375,-61.8125,0.0,0.0,0.0
1664896862555,-0.55566406,1.0449219,0.13867188,-32.15625,-61.53125,-22.28125,0.0,0.0,0.0
1664896862586,-0.6152344,0.5097656,0.076171875,-47.71875,-3.90625,-2.4375,0.0,0.0,0.0
1664896862614,-0.43847656,0.51660156,-0.0078125,-4.5,-20.65625,17.78125,0.0,0.0,0.0
1664896862675,-0.5498047,0.46777344,0.024414062,11.5,-14.53125,22.34375,0.0,0.0,0.0
1664896862705,-0.6064453,0.515625,-0.016601562,4.84375,-6.84375,20.625,0.0,0.0,0.0
1664896862735,-0.41992188,0.5439453,0.16308594,0.6875,-8.75,16.1875,-54.125,25.25,-147.1875
1664896862794,-0.49023438,0.38867188,0.08496094,2.03125,-26.625,-2.1875,0.0,0.0,0.0
1664896862824,-0.17871094,0.19726562,-0.021484375,12.28125,-53.78125,-31.3125,0.0,0.0,0.0
1664896862856,-0.6230469,1.0585938,0.11328125,-31.28125,-52.09375,-54.75,0.0,0.0,0.0
1664896862914,-1.5283203,1.5976562,0.16015625,-49.65625,-147.65625,-65.78125,0.0,0.0,0.0
1664896862944,-0.67578125,1.9794922,0.47460938,-39.09375,-27.125,-8.28125,0.0,0.0,0.0
1664896862974,-1.2675781,1.1357422,0.38183594,-36.90625,-1.65625,4.09375,0.0,0.0,0.0
1664896863033,-0.9082031,1.0009766,0.4375,-29.75,62.84375,12.75,0.0,0.0,0.0
1664896863064,-0.25,0.9394531,-0.0146484375,-18.59375,1.5,28.21875,0.0,0.0,0.0
1664896863094,-0.12792969,0.51660156,-0.078125,-2.46875,-73.875,31.8125,0.0,0.0,0.0
1664896863154,-0.25976562,-0.026367188,0.107421875,18.53125,-53.40625,31.25,0.0,0.0,0.0
1664896863184,-0.20800781,-0.15527344,0.3232422,-0.78125,32.46875,17.15625,0.0,0.0,0.0
1664896863215,-0.26171875,0.21875,0.02734375,35.4375,102.15625,-20.625,-55.9375,24.8125,-134.3125
1664896863275,-0.028320312,0.4111328,-0.08300781,-3.09375,35.625,-46.3125,0.0,0.0,0.0
1664896863335,-0.5283203,1.0146484,0.0126953125,-26.09375,-20.78125,-0.71875,0.0,0.0,0.0
1664896863337,-1.0888672,0.9355469,-0.45117188,-3.03125,-38.21875,29.59375,0.0,0.0,0.0
1664896863394,-1.5507812,1.5097656,-0.13671875,67.40625,-39.9375,3.125,0.0,0.0,0.0
1664896863425,-1.171875,1.5302734,0.7470703,-22.25,35.75,-32.09375,0.0,0.0,0.0
1664896863456,-0.5439453,1.2167969,0.0107421875,74.96875,-170.375,-0.0625,0.0,0.0,0.0
1664896863516,-0.66503906,0.6855469,-0.038085938,-4.6875,-17.53125,-1.40625,0.0,0.0,0.0
1664896863544,-0.28222656,0.42089844,0.13769531,-54.375,127.90625,-20.0,0.0,0.0,0.0
1664896863575,-0.16601562,0.11816406,0.107421875,-61.9375,78.125,-3.28125,0.0,0.0,0.0
1664896863634,-0.25390625,0.123046875,0.12890625,-62.59375,100.21875,-13.0,0.0,0.0,0.0
1664896863665,-0.21386719,0.087890625,0.015625,-56.6875,105.21875,-28.875,0.0,0.0,0.0
1664896863695,-0.37304688,0.3203125,0.14648438,-16.21875,71.09375,-51.4375,0.0,0.0,0.0
1664896863753,-1.2666016,1.2802734,0.3701172,-36.34375,42.90625,-65.96875,-58.8125,20.5625,-138.5
1664896863784,-0.6533203,1.5380859,0.5625,-10.28125,27.5,-42.90625,0.0,0.0,0.0
1664896863814,-1.1796875,1.3398438,0.6621094,-3.625,1.375,-7.8125,0.0,0.0,0.0
1664896863875,-1.4287109,0.9482422,0.68359375,-27.4375,-7.65625,6.65625,0.0,0.0,0.0
1664896863903,-0.85058594,1.0449219,0.31445312,1.96875,-49.40625,14.71875,0.0,0.0,0.0
1664896863934,-0.4013672,0.82421875,0.3984375,14.0625,-59.03125,37.1875,0.0,0.0,0.0
1664896863995,-0.26171875,0.58691406,0.24707031,17.71875,-63.75,45.0,0.0,0.0,0.0
1664896864023,-0.6777344,0.24121094,0.3310547,32.1875,-11.5,38.53125,0.0,0.0,0.0
1664896864055,-0.48242188,0.02734375,0.24609375,37.25,-31.3125,32.0625,0.0,0.0,0.0
1664896864115,-0.39648438,0.2998047,0.3642578,43.59375,-69.03125,17.34375,0.0,0.0,0.0
1664896864143,-0.39941406,0.42089844,0.25,55.125,-73.625,-19.28125,0.0,0.0,0.0
1664896864175,-0.46972656,0.5390625,-0.13671875,58.125,-58.78125,-19.59375,0.0,0.0,0.0
1664896864234,-0.47753906,0.9560547,-0.16601562,56.53125,-39.8125,-15.5,-58.0625,20.5625,-134.3125
1664896864263,-0.9580078,1.28125,0.37402344,-5.15625,50.59375,-13.78125,0.0,0.0,0.0
1664896864293,-0.90234375,1.2929688,0.11035156,6.90625,-21.8125,-1.8125,0.0,0.0,0.0
1664896864353,-1.2568359,1.1035156,0.20214844,-36.34375,96.59375,-8.71875,0.0,0.0,0.0
1664896864385,-0.83203125,0.8378906,-0.045898438,14.78125,-38.09375,16.4375,0.0,0.0,0.0
1664896864416,-0.7451172,0.7392578,0.005859375,58.96875,-82.46875,24.34375,0.0,0.0,0.0
1664896864475,-0.4169922,0.5761719,0.013671875,21.875,11.03125,18.375,0.0,0.0,0.0
1664896864504,-0.2548828,0.44726562,0.10449219,4.28125,65.0625,12.09375,0.0,0.0,0.0
1664896864564,-0.20996094,0.49902344,0.54003906,-19.6875,86.03125,4.21875,0.0,0.0,0.0
1664896864625,-0.0859375,0.25195312,-0.2578125,-12.84375,66.6875,-7.1875,0.0,0.0,0.0
1664896864656,-0.34570312,-0.07324219,-0.055664062,28.84375,-2.46875,-45.78125,0.0,0.0,0.0
1664896864658,-0.6113281,1.1220703,0.28808594,3.75,21.90625,-55.53125,0.0,0.0,0.0
1664896864714,-1.0849609,1.4804688,0.3125,-50.28125,26.28125,-1.8125,0.0,0.0,0.0
1664896864745,-1.0683594,1.234375,0.5,-50.6875,-3.96875,13.3125,-58.5,19.375,-141.1875
1664896864773,-1.2373047,1.0878906,0.46289062,-56.4375,-29.125,23.25,0.0,0.0,0.0
1664896864836,-0.80566406,0.90625,0.1640625,-11.625,-79.65625,26.1875,0.0,0.0,0.0
1664896864863,-0.60839844,0.6621094,0.16699219,8.1875,-81.8125,29.0,0.0,0.0,0.0
1664896864895,-0.3359375,0.4189453,0.11621094,25.46875,-77.40625,26.8125,0.0,0.0,0.0
1664896864954,-0.20507812,0.27441406,0.31835938,14.78125,-38.46875,18.0625,0.0,0.0,0.0
1664896864984,-0.22558594,0.14160156,0.22167969,23.28125,-23.875,3.3125,0.0,0.0,0.0
1664896865014,-0.3154297,-0.013671875,-0.022460938,21.625,-3.6875,-7.5625,0.0,0.0,0.0
1664896865076,-0.24902344,0.4716797,-0.41796875,51.78125,-16.3125,-21.46875,0.0,0.0,0.0
1664896865102,-0.5332031,1.5166016,0.4111328,14.78125,64.0625,-16.53125,0.0,0.0,0.0
1664896865134,-0.71191406,1.2089844,-0.20507812,-63.46875,26.96875,-2.75,0.0,0.0,0.0
1664896865196,-1.9892578,1.5644531,0.4248047,-33.25,65.46875,42.59375,0.0,0.0,0.0
1664896865225,-1.0957031,1.140625,-0.1328125,-16.03125,-31.625,-18.625,-56.5625,22.0625,-134.4375
1664896865255,-0.7949219,1.0478516,-0.1171875,76.1875,-118.0,1.53125,0.0,0.0,0.0
1664896865316,-0.5058594,1.25,0.018554688,68.6875,-84.625,22.96875,0.0,0.0,0.0
1664896865346,-1.03125,0.4345703,0.2763672,-17.96875,45.28125,17.78125,0.0,0.0,0.0
1664896865374,-0.16699219,0.45507812,0.15429688,-23.15625,-10.4375,-8.78125,0.0,0.0,0.0
1664896865434,-0.3310547,0.30664062,-0.10253906,-8.40625,-45.4375,-10.1875,0.0,0.0,0.0
1664896865466,-0.24902344,0.037109375,-0.05859375,-43.3125,52.15625,-9.34375,0.0,0.0,0.0
1664896865495,-0.69433594,0.24902344,-0.06640625,-25.96875,31.34375,0.5625,0.0,0.0,0.0
1664896865556,-0.81640625,0.68847656,0.2607422,-32.21875,58.875,-29.09375,0.0,0.0,0.0
1664896865587,-0.3798828,1.0966797,0.3876953,-38.5625,16.90625,-48.46875,0.0,0.0,0.0
1664896865644,-0.5673828,1.6064453,0.46777344,11.6875,-15.46875,-37.21875,0.0,0.0,0.0
1664896865676,-0.6503906,1.4189453,0.71191406,20.90625,-0.375,-9.75,0.0,0.0,0.0
1664896865705,-0.6484375,0.9140625,0.55078125,-16.03125,14.4375,-15.75,0.0,0.0,0.0
1664896865734,-0.6044922,0.6669922,0.091796875,26.03125,21.90625,-16.84375,-58.0625,19.375,-132.9375
1664896865793,-0.3486328,0.6503906,-0.16699219,45.5625,62.1875,-9.875,0.0,0.0,0.0
1664896865825,-0.18554688,0.625,0.22558594,66.6875,18.84375,-8.0625,0.0,0.0,0.0
1664896865855,-0.15917969,0.4736328,0.17480469,89.9375,13.90625,-10.0,0.0,0.0,0.0
1664896865914,-0.2998047,0.49902344,-0.03515625,31.5625,32.875,-16.71875,0.0,0.0,0.0
1664896865944,-0.24414062,0.6738281,0.07324219,33.90625,90.0625,-12.03125,0.0,0.0,0.0
1664896865974,-0.8105469,0.90234375,0.45507812,54.15625,71.28125,-3.09375,0.0,0.0,0.0
1664896866034,-0.8955078,0.6699219,-0.5732422,56.90625,23.25,-2.6875,0.0,0.0,0.0
1664896866064,-1.0830078,1.8496094,0.53515625,41.90625,119.96875,-2.0625,0.0,0.0,0.0
1664896866093,-1.4248047,1.6152344,0.052734375,3.1875,81.34375,9.03125,0.0,0.0,0.0
1664896866154,-0.7402344,1.1767578,0.20800781,-64.0,43.3125,-12.4375,0.0,0.0,0.0
1664896866213,-0.2998047,0.82910156,-0.33691406,-19.625,19.75,18.0625,0.0,0.0,0.0
1664896866216,-0.8017578,0.40722656,0.16796875,-42.8125,83.46875,24.53125,-54.3125,18.1875,-155.3125
1664896866275,-0.5917969,0.32910156,-0.072265625,-64.625,111.375,-2.75,0.0,0.0,0.0
1664896866305,-0.41503906,0.12109375,0.030273438,-39.84375,58.34375,0.5,0.0,0.0,0.0
1664896866334,-0.4375,0.48828125,0.053710938,-41.53125,67.0,16.125,0.0,0.0,0.0
1664896866396,-0.5576172,0.3798828,0.13964844,-59.4375,74.875,0.125,0.0,0.0,0.0
1664896866424,-0.51660156,0.5175781,0.043945312,-74.375,44.125,-11.09375,0.0,0.0,0.0
1664896866454,-1.0224609,1.2529297,-0.076171875,-111.65625,-63.25,-29.21875,0.0,0.0,0.0
1664896866513,-1.1484375,1.7529297,0.15527344,-93.53125,-215.53125,-57.3125,0.0,0.0,0.0
1664896866544,-0.85058594,1.8164062,-0.28125,-166.25,-148.9375,-7.375,0.0,0.0,0.0
1664896866576,-1.3242188,0.7890625,0.35546875,-94.8125,-126.96875,-48.15625,0.0,0.0,0.0
1664896866634,-1.0126953,0.9638672,0.2919922,-68.03125,-27.3125,-43.15625,0.0,0.0,0.0
1664896866665,-0.58496094,0.49902344,0.14453125,-33.53125,-42.25,-36.6875,0.0,0.0,0.0
1664896866695,-0.24511719,0.29003906,-0.043945312,35.3125,-72.78125,-33.625,0.0,0.0,0.0
1664896866754,-0.11425781,0.12109375,0.08300781,71.75,-88.40625,-4.6875,-58.625,20.75,-129.9375
1664896866785,-0.24414062,0.0,0.103515625,97.875,-64.15625,24.96875,0.0,0.0,0.0
1664896866845,-0.23632812,0.115234375,0.20898438,121.0,-38.28125,31.4375,0.0,0.0,0.0
1664896866875,-0.22851562,0.36523438,-0.140625,184.59375,-38.15625,18.875,0.0,0.0,0.0
1664896866904,-0.18554688,0.63964844,-0.31835938,138.15625,-53.96875,8.78125,0.0,0.0,0.0
1664896866935,-0.13183594,2.0205078,1.1484375,-25.5625,-201.375,34.1875,0.0,0.0,0.0
1664896866995,-0.7480469,0.9042969,-0.6796875,-29.875,215.3125,11.40625,0.0,0.0,0.0
1664896867024,-1.765625,1.0791016,0.29882812,-85.5,80.5625,-27.875,0.0,0.0,0.0
1664896867053,-0.90625,0.64160156,0.19433594,-42.03125,59.0,-19.34375,0.0,0.0,0.0
1664896867115,-0.82128906,1.0742188,0.17578125,22.90625,-42.0625,8.5625,0.0,0.0,0.0
1664896867143,-0.9042969,0.7363281,0.12792969,31.15625,-47.25,20.5625,0.0,0.0,0.0
1664896867206,-0.56152344,0.5214844,0.22070312,15.90625,-16.25,6.59375,0.0,0.0,0.0
1664896867234,-0.4375,0.37695312,9.765625E-4,36.46875,-45.59375,-10.0,-56.125,23.5625,-136.25
1664896867264,-0.27246094,0.5126953,-0.125,46.40625,-79.1875,-7.1875,0.0,0.0,0.0
1664896867294,-0.09375,0.5625,0.0029296875,11.875,-40.125,-18.0625,0.0,0.0,0.0
1664896867353,-0.38964844,0.6230469,-0.0146484375,-43.75,-50.96875,-47.40625,0.0,0.0,0.0
1664896867385,-1.0341797,0.7246094,0.03515625,-68.65625,12.125,-102.53125,0.0,0.0,0.0
1664896867413,-1.6035156,0.78125,0.3173828,-66.03125,-55.1875,-202.21875,0.0,0.0,0.0
1664896867476,-1.4003906,0.8779297,0.6035156,59.59375,-83.875,-126.875,0.0,0.0,0.0
1664896867504,-0.47851562,0.76953125,0.42285156,52.5625,-97.90625,-58.40625,0.0,0.0,0.0
1664896867533,-0.51953125,0.97558594,0.42382812,37.5625,-32.65625,-1.28125,0.0,0.0,0.0
1664896867594,-0.6113281,0.5419922,0.45117188,54.65625,40.375,-16.34375,0.0,0.0,0.0
1664896867624,-0.671875,0.24316406,0.1953125,52.9375,52.09375,12.28125,0.0,0.0,0.0
1664896867685,-0.6767578,0.2607422,0.022460938,64.21875,23.0625,30.71875,0.0,0.0,0.0
1664896867715,-0.25585938,0.11328125,0.12402344,99.375,22.875,30.65625,0.0,0.0,0.0
1664896867745,-0.34179688,0.0048828125,0.13671875,81.25,14.3125,36.3125,-64.5,14.5625,-133.125
1664896867774,-0.49609375,0.11230469,0.115234375,68.03125,45.09375,48.03125,0.0,0.0,0.0
1664896867834,-1.1933594,1.2314453,0.33691406,54.71875,53.34375,5.0,0.0,0.0,0.0
1664896867865,-1.1171875,1.9931641,1.0302734,23.8125,-84.65625,-34.59375,0.0,0.0,0.0
1664896867894,0.19140625,1.1484375,0.3232422,2.46875,-76.8125,-43.5625,0.0,0.0,0.0
1664896867955,-0.8808594,1.2988281,0.091796875,64.28125,-61.71875,36.5,0.0,0.0,0.0
1664896867984,-0.91503906,1.2050781,-0.18847656,10.21875,1.15625,40.34375,0.0,0.0,0.0
1664896868014,-0.6464844,0.7529297,-0.08984375,-42.15625,127.1875,28.09375,0.0,0.0,0.0
1664896868105,-0.3486328,0.79003906,0.27734375,-32.625,53.5625,15.9375,0.0,0.0,0.0
1664896868109,-0.36816406,0.7080078,0.17773438,-25.5625,63.40625,16.84375,0.0,0.0,0.0
1664896868134,-0.61621094,0.49804688,-0.11035156,-47.46875,103.5,18.75,0.0,0.0,0.0
1664896868196,-0.66308594,0.5185547,-0.07910156,-46.84375,71.34375,19.78125,0.0,0.0,0.0
1664896868224,-0.7294922,0.7109375,0.18359375,-17.3125,30.8125,4.59375,-59.125,19.6875,-143.4375
1664896868253,-0.4169922,0.8623047,0.26757812,-58.15625,60.90625,-4.15625,0.0,0.0,0.0
1664896868314,-0.6767578,0.8828125,-0.103515625,-55.65625,64.125,0.75,0.0,0.0,0.0
1664896868344,-0.9892578,0.6298828,0.24023438,-47.15625,108.1875,-8.25,0.0,0.0,0.0
1664896868374,-0.39257812,0.9765625,0.16796875,-90.0,60.15625,-15.0625,0.0,0.0,0.0
1664896868435,-0.09082031,0.98046875,0.05859375,-141.46875,58.8125,-6.28125,0.0,0.0,0.0
1664896868466,-0.81152344,1.0361328,-0.2421875,-157.4375,109.59375,-4.28125,0.0,0.0,0.0
1664896868494,-0.9394531,1.0605469,-0.2548828,-129.6875,40.875,-13.1875,0.0,0.0,0.0
1664896868555,-0.43164062,0.8144531,0.091796875,-71.4375,-65.03125,14.03125,0.0,0.0,0.0
1664896868585,-0.5439453,0.7392578,0.17871094,-57.21875,-23.625,47.1875,0.0,0.0,0.0
1664896868614,-0.33691406,0.50390625,0.10058594,-74.75,15.65625,48.40625,0.0,0.0,0.0
1664896868676,-0.30566406,0.92285156,0.24511719,-58.625,35.3125,47.1875,0.0,0.0,0.0
1664896868706,-0.20117188,0.9970703,0.21777344,-86.59375,55.03125,32.90625,0.0,0.0,0.0
1664896868734,-0.69921875,0.42578125,-0.15722656,-110.21875,48.5625,53.28125,-53.125,24.5,-130.5625
1664896868794,-0.875,0.06542969,0.31347656,-49.90625,121.5625,84.90625,0.0,0.0,0.0
1664896868826,-0.6269531,0.75683594,0.75097656,-52.40625,110.75,40.84375,0.0,0.0,0.0
1664896868854,-1.2822266,1.3232422,0.09765625,-143.84375,251.75,15.03125,0.0,0.0,0.0
1664896868914,-0.27148438,0.265625,0.35253906,-153.125,236.0625,44.1875,0.0,0.0,0.0
1664896868945,-0.58691406,0.48828125,0.09472656,-96.84375,151.40625,56.71875,0.0,0.0,0.0
1664896868975,-1.3007812,1.4052734,0.029296875,-98.25,126.15625,53.90625,0.0,0.0,0.0
1664896869033,-0.62109375,0.81347656,0.07519531,-123.5625,259.875,21.0625,0.0,0.0,0.0
1664896869064,-0.37597656,0.8984375,-0.13574219,-152.4375,196.09375,39.75,0.0,0.0,0.0
1664896869122,-1.0449219,0.6220703,0.21679688,-173.5625,143.0,50.0625,0.0,0.0,0.0
1664896869154,-0.79589844,0.5673828,-0.27734375,-168.4375,146.84375,44.6875,0.0,0.0,0.0
1664896869185,-0.6484375,0.6542969,-0.0546875,-164.96875,203.96875,27.21875,0.0,0.0,0.0
1664896869214,-0.6376953,0.60546875,0.0048828125,-202.0625,174.375,-3.09375,-46.9375,27.0625,-121.25
1664896869274,-0.87890625,0.24121094,-0.15625,-202.25,209.28125,-11.96875,0.0,0.0,0.0
1664896869305,-0.9511719,1.0859375,0.33789062,-152.875,160.375,9.53125,0.0,0.0,0.0
1664896869335,-0.27441406,0.7050781,0.24511719,-218.25,98.5625,46.875,0.0,0.0,0.0
1664896869394,-0.46777344,0.4091797,-0.047851562,-222.75,154.34375,79.71875,0.0,0.0,0.0
1664896869424,-0.8935547,0.7998047,-0.33496094,-193.59375,144.40625,111.40625,0.0,0.0,0.0
1664896869454,-0.8466797,1.0732422,0.12988281,-171.78125,143.96875,90.03125,0.0,0.0,0.0
1664896869513,-0.99609375,0.5361328,-0.08203125,-64.0625,247.0625,101.75,0.0,0.0,0.0
1664896869544,-0.39746094,0.6220703,0.23046875,-162.875,202.4375,98.75,0.0,0.0,0.0
1664896869575,-1.1386719,0.74121094,-0.41308594,-129.4375,150.8125,85.15625,0.0,0.0,0.0
1664896869634,-1.2666016,0.50097656,0.0126953125,-144.3125,212.3125,19.34375,0.0,0.0,0.0
1664896869663,-0.73339844,0.3232422,-0.2998047,-134.5,196.875,24.1875,0.0,0.0,0.0
1664896869695,-1.40625,0.57128906,-0.2783203,-148.53125,88.4375,-18.90625,0.0,0.0,0.0
1664896869753,-1.0488281,0.8154297,0.27246094,-120.78125,215.875,-9.28125,-58.625,14.3125,-123.0625
1664896869786,-0.4267578,0.8515625,0.021484375,-83.59375,92.4375,20.40625,0.0,0.0,0.0
1664896869814,-0.9433594,0.53515625,-0.2265625,-91.78125,209.8125,26.25,0.0,0.0,0.0
1664896869873,-1.0234375,0.671875,-0.0234375,-103.6875,126.875,19.53125,0.0,0.0,0.0
1664896869936,-0.5283203,0.5839844,0.06640625,-102.8125,116.5,-3.59375,0.0,0.0,0.0
1664896869939,-0.45898438,0.46972656,0.02734375,-128.625,82.0625,-25.09375,0.0,0.0,0.0
1664896869995,-0.5341797,0.20996094,-0.14941406,-150.6875,111.625,-16.21875,0.0,0.0,0.0
1664896870024,-0.9091797,0.7949219,0.24609375,-111.90625,70.0,-24.71875,0.0,0.0,0.0
1664896870055,-0.32421875,0.66503906,0.18945312,-64.5,98.75,-17.9375,0.0,0.0,0.0
1664896870114,-0.36621094,0.49902344,0.14453125,-93.375,80.375,2.875,0.0,0.0,0.0
1664896870143,-0.84472656,1.0751953,0.6064453,-87.9375,66.15625,52.5,0.0,0.0,0.0
1664896870175,-1.9892578,1.6416016,0.7753906,-66.5625,22.125,53.46875,0.0,0.0,0.0
1664896870234,-0.49023438,1.6083984,-0.30371094,-40.25,-59.34375,56.03125,-64.8125,12.8125,-137.0
1664896870265,-0.6425781,1.2216797,0.2529297,-18.09375,-14.46875,80.6875,0.0,0.0,0.0
1664896870295,-0.5683594,0.5859375,0.17578125,2.40625,-55.8125,58.71875,0.0,0.0,0.0
1664896870355,-0.16308594,0.046875,-0.25,-6.875,-16.8125,47.125,0.0,0.0,0.0
1664896870385,-0.022460938,-0.53515625,0.123046875,-18.59375,-9.84375,35.40625,0.0,0.0,0.0
1664896870415,0.20214844,-0.24902344,0.16210938,-51.75,84.03125,26.625,0.0,0.0,0.0
1664896870476,0.056640625,0.24414062,-0.09277344,-28.59375,45.34375,7.15625,0.0,0.0,0.0
1664896870505,-0.50683594,0.56152344,0.21289062,-8.03125,31.90625,-5.5,0.0,0.0,0.0
1664896870533,-1.7304688,1.7578125,-0.12402344,-64.90625,-3.0625,-32.53125,0.0,0.0,0.0
1664896870594,-1.203125,1.828125,0.5048828,-2.59375,3.46875,-4.8125,0.0,0.0,0.0
1664896870624,-0.765625,1.2910156,0.0068359375,11.8125,-51.34375,10.5,0.0,0.0,0.0
1664896870654,-0.26757812,0.5625,0.27734375,-18.71875,45.34375,19.09375,0.0,0.0,0.0
1664896870715,-0.06933594,0.26464844,-0.05859375,-3.9375,-14.71875,33.5,0.0,0.0,0.0
1664896870744,-0.4658203,-0.13964844,0.029296875,29.875,41.84375,15.03125,-58.625,20.0,-133.375
1664896870774,-1.7851562,0.8652344,0.15136719,68.375,110.09375,-12.5625,0.0,0.0,0.0
1664896870835,-1.0888672,0.85839844,0.7167969,-137.375,4.4375,-12.875,0.0,0.0,0.0
1664896870865,0.24707031,0.296875,-1.9521484,1.1875,-43.84375,-63.53125,0.0,0.0,0.0
1664896870894,-0.17285156,0.9638672,0.23535156,-40.8125,-128.25,-48.21875,0.0,0.0,0.0
1664896870954,-1.1064453,0.6738281,0.21972656,126.5,-163.34375,-26.125,0.0,0.0,0.0
1664896870984,-0.7832031,0.6640625,0.025390625,152.625,-219.625,28.21875,0.0,0.0,0.0
1664896871014,-0.6074219,0.9267578,0.27929688,-34.53125,71.03125,-1.21875,0.0,0.0,0.0
1664896871074,-0.30078125,1.1113281,0.119140625,-35.1875,2.96875,24.3125,0.0,0.0,0.0
1664896871105,-0.67578125,0.6435547,0.15039062,-59.59375,49.375,16.4375,0.0,0.0,0.0
1664896871134,-0.9814453,0.6621094,0.16015625,-45.03125,30.75,36.0625,0.0,0.0,0.0
1664896871195,-0.8066406,0.6308594,0.15332031,-36.40625,26.59375,54.21875,0.0,0.0,0.0
1664896871224,-0.8066406,0.9013672,0.24511719,-93.46875,37.28125,37.0,-56.5625,21.5,-129.9375
1664896871289,-0.984375,0.8623047,0.119140625,-149.21875,45.53125,6.96875,0.0,0.0,0.0
1664896871312,-0.32714844,1.4697266,0.9316406,-196.375,91.0,-73.25,0.0,0.0,0.0
1664896871341,-0.24316406,0.5996094,0.53125,-200.65625,145.84375,-30.21875,0.0,0.0,0.0
1664896871402,-0.47558594,0.6328125,0.36621094,-124.5,90.8125,4.9375,0.0,0.0,0.0
1664896871433,0.0126953125,0.89746094,0.3310547,-94.34375,-33.28125,-0.84375,0.0,0.0,0.0
1664896871463,-0.14941406,0.4140625,0.390625,-77.0,125.65625,42.25,0.0,0.0,0.0
1664896871494,-1.3193359,-0.2109375,0.45117188,13.625,87.5625,31.8125,0.0,0.0,0.0
1664896871555,-0.72558594,-0.14160156,0.0029296875,26.34375,42.78125,-8.125,0.0,0.0,0.0
1664896871584,-0.28027344,-0.0048828125,0.29492188,69.59375,68.90625,-25.9375,0.0,0.0,0.0
1664896871613,-0.68359375,0.51464844,0.27734375,68.4375,46.75,-25.15625,0.0,0.0,0.0
1664896871673,-0.4951172,0.9628906,0.32714844,-84.875,8.71875,-69.40625,0.0,0.0,0.0
1664896871703,-0.265625,0.16308594,0.22851562,-89.21875,-41.875,-60.34375,0.0,0.0,0.0
1664896871734,-1.7255859,0.8457031,0.3876953,-8.53125,85.25,-55.84375,-63.125,11.5625,-130.25
1664896871793,-0.9707031,0.40234375,0.43554688,-27.6875,-3.125,-112.3125,0.0,0.0,0.0
1664896871823,-0.7998047,0.21191406,0.37304688,-34.71875,-19.96875,-73.40625,0.0,0.0,0.0
1664896871853,-1.2148438,0.453125,0.55566406,-26.96875,9.3125,-71.46875,0.0,0.0,0.0
1664896871912,-1.2763672,0.20507812,0.56640625,-33.78125,-48.46875,-76.84375,0.0,0.0,0.0
1664896871943,-0.96972656,0.043945312,0.56347656,-31.46875,-90.96875,-62.6875,0.0,0.0,0.0
1664896871973,-0.8095703,0.056640625,0.6376953,-30.96875,-113.28125,-40.28125,0.0,0.0,0.0
1664896872033,-1.1845703,0.009765625,0.7597656,-34.59375,-122.5,-21.125,0.0,0.0,0.0
1664896872063,-0.9794922,0.23535156,0.5029297,-32.8125,-128.125,12.75,0.0,0.0,0.0
1664896872094,-0.64160156,0.20996094,0.67089844,-41.90625,-121.71875,8.0625,0.0,0.0,0.0
1664896872153,-0.515625,-0.11035156,0.7421875,-37.75,-107.5625,-0.0625,0.0,0.0,0.0
1664896872183,-0.54589844,-0.0107421875,0.9355469,-24.9375,-73.5,-13.0,0.0,0.0,0.0
1664896872214,-0.5283203,-0.0029296875,0.88378906,-13.84375,-25.96875,-32.46875,-58.8125,-6.4375,-105.9375
1664896872273,-0.32128906,-0.015625,0.875,-8.875,0.65625,-36.5625,0.0,0.0,0.0
1664896872304,-0.47558594,-0.12597656,0.8925781,8.625,6.46875,-28.9375,0.0,0.0,0.0
1664896872333,-0.6308594,-0.2890625,0.73535156,17.59375,-0.4375,-30.15625,0.0,0.0,0.0
1664896872393,-0.6904297,-0.2919922,0.57421875,28.28125,43.0,-32.96875,0.0,0.0,0.0
1664896872423,-0.9238281,0.18066406,0.796875,58.96875,91.53125,-38.75,0.0,0.0,0.0
1664896872454,-0.49804688,-0.07910156,0.9980469,6.125,-41.03125,-45.84375,0.0,0.0,0.0
1664896872513,-0.45410156,-0.09765625,0.8388672,-10.0,-7.9375,-28.125,0.0,0.0,0.0
1664896872543,-0.38378906,-0.23046875,0.6699219,-18.84375,-1.71875,-12.1875,0.0,0.0,0.0
1664896872574,-0.65625,-0.0087890625,0.6435547,5.21875,-0.4375,-6.21875,0.0,0.0,0.0
1664896872632,-0.57128906,-0.18945312,0.8261719,22.59375,8.96875,-1.21875,0.0,0.0,0.0
1664896872663,-0.5214844,0.041992188,0.78125,14.1875,39.28125,7.625,0.0,0.0,0.0
1664896872693,-0.640625,-0.056640625,0.92285156,10.9375,11.46875,20.40625,0.0,0.0,0.0
1664896872754,-0.8730469,0.19140625,0.8964844,-7.3125,-14.3125,8.6875,-60.875,-10.1875,-108.9375
1664896872784,-0.5253906,-0.07519531,0.75390625,-13.65625,13.59375,-5.3125,0.0,0.0,0.0
1664896872813,-0.51464844,-0.18164062,0.6435547,-22.4375,-42.5625,24.53125,0.0,0.0,0.0
1664896872874,-0.6699219,-0.0048828125,0.85253906,-11.5625,-36.46875,33.03125,0.0,0.0,0.0
1664896872904,-0.6796875,-0.18554688,0.8203125,-8.15625,-48.21875,23.0,0.0,0.0,0.0
1664896872934,-0.44335938,-0.119140625,0.8652344,-7.125,-2.21875,22.28125,0.0,0.0,0.0
1664896872995,-0.38964844,-0.0546875,0.8232422,-10.90625,-65.09375,33.34375,0.0,0.0,0.0
1664896873024,-0.39257812,0.12597656,0.9082031,-10.34375,-54.59375,41.4375,0.0,0.0,0.0
1664896873053,-0.515625,-0.01171875,0.90527344,-16.46875,-78.9375,42.0,0.0,0.0,0.0
1664896873113,-0.5019531,-0.23535156,0.85839844,-2.84375,-52.1875,56.09375,0.0,0.0,0.0
1664896873143,-0.41796875,-0.31640625,1.1289062,31.09375,-21.1875,61.53125,0.0,0.0,0.0
1664896873174,-0.25683594,-0.19042969,1.0292969,82.65625,171.125,34.6875,0.0,0.0,0.0
1664896873233,-0.7558594,0.14453125,1.1787109,127.34375,209.8125,39.3125,-56.5625,-0.875,-106.5625
1664896873263,-0.6953125,-0.045898438,0.8535156,84.1875,118.34375,60.375,0.0,0.0,0.0
1664896873292,-1.0908203,0.8847656,1.3056641,94.9375,165.4375,65.75,0.0,0.0,0.0
1664896873352,-0.64746094,0.3798828,0.7138672,60.625,10.96875,60.1875,0.0,0.0,0.0
1664896873413,-0.80859375,0.57714844,0.7167969,41.78125,-9.90625,61.46875,0.0,0.0,0.0
1664896873414,-0.67089844,0.7685547,0.7832031,56.53125,14.625,68.375,0.0,0.0,0.0
1664896873474,-0.51171875,0.59765625,0.6777344,59.65625,-6.65625,62.125,0.0,0.0,0.0
1664896873503,-0.5517578,0.53125,0.50683594,78.40625,11.71875,54.4375,0.0,0.0,0.0
1664896873532,-0.67285156,0.5722656,0.2626953,94.875,41.375,56.53125,0.0,0.0,0.0
1664896873593,-0.81640625,0.54785156,0.25097656,47.4375,12.0,45.40625,0.0,0.0,0.0
1664896873623,-0.4326172,0.5966797,0.16894531,65.6875,2.375,36.5,0.0,0.0,0.0
1664896873685,-0.7792969,0.6123047,0.296875,54.78125,-0.125,17.59375,0.0,0.0,0.0
1664896873713,-0.8203125,0.4267578,0.13085938,79.3125,-11.0625,12.40625,0.0,0.0,0.0
1664896873743,-0.7236328,0.3359375,0.14550781,129.125,-65.4375,-9.09375,-56.5625,22.8125,-131.75
1664896873772,-0.515625,0.7246094,-0.14746094,142.25,32.21875,67.5,0.0,0.0,0.0
1664896873834,-0.19335938,0.9824219,0.13378906,70.59375,39.15625,33.03125,0.0,0.0,0.0
1664896873863,-0.033203125,0.7207031,0.14648438,51.34375,35.8125,29.25,0.0,0.0,0.0
1664896873892,-0.12597656,0.9658203,-0.021484375,-3.59375,74.15625,32.53125,0.0,0.0,0.0
1664896873954,-1.0136719,0.89453125,-0.3330078,-23.71875,50.78125,14.46875,0.0,0.0,0.0
1664896873983,-1.1855469,0.63964844,-0.43066406,-4.75,-46.21875,-6.03125,0.0,0.0,0.0
1664896874013,-0.5214844,0.8925781,0.0546875,42.375,-34.125,-38.09375,0.0,0.0,0.0
1664896874073,-0.13183594,0.9277344,0.015625,26.6875,-86.3125,-15.875,0.0,0.0,0.0
1664896874104,-0.19042969,0.93847656,0.08691406,-40.3125,9.75,-8.125,0.0,0.0,0.0
1664896874133,-0.6933594,0.7324219,-0.053710938,-73.65625,65.53125,3.53125,0.0,0.0,0.0
1664896874223,-0.9560547,0.75878906,-0.029296875,-62.90625,41.84375,9.84375,0.0,0.0,0.0
1664896874227,-0.7734375,0.53808594,0.08203125,-24.8125,-65.09375,1.09375,-52.625,26.0,-140.125
1664896874252,-0.9140625,0.5566406,-0.03515625,24.125,-134.21875,-8.1875,0.0,0.0,0.0
1664896874314,-0.64941406,0.70703125,-0.0390625,2.53125,-100.0625,-7.8125,0.0,0.0,0.0
1664896874343,-0.5625,0.93066406,-0.0126953125,-36.46875,-51.59375,-11.53125,0.0,0.0,0.0
1664896874373,-0.56347656,0.9892578,-0.018554688,-111.125,-3.625,-29.46875,0.0,0.0,0.0
1664896874435,-0.11035156,1.3857422,0.9140625,-206.34375,167.84375,-59.8125,0.0,0.0,0.0
1664896874463,-0.44140625,0.85253906,-0.053710938,-169.46875,36.1875,-72.875,0.0,0.0,0.0
1664896874492,-0.20605469,0.49609375,0.21582031,-36.53125,102.59375,-65.1875,0.0,0.0,0.0
1664896874554,-0.31152344,0.81347656,0.63964844,-61.25,74.375,-24.53125,0.0,0.0,0.0
1664896874582,-0.74609375,0.38867188,0.40234375,-54.78125,39.84375,1.65625,0.0,0.0,0.0
1664896874614,-0.6982422,0.021484375,0.4248047,-18.59375,-24.625,-13.25,0.0,0.0,0.0
1664896874673,-0.46289062,0.030273438,0.24121094,-13.15625,-22.21875,-15.375,0.0,0.0,0.0
1664896874704,-0.37597656,0.044921875,0.0390625,31.53125,-44.03125,-55.21875,0.0,0.0,0.0
1664896874763,-0.3623047,0.48828125,0.47070312,19.8125,21.21875,-45.09375,-61.8125,16.25,-126.375
1664896874794,0.0126953125,0.3955078,0.82421875,1.25,-106.28125,-48.53125,0.0,0.0,0.0
1664896874824,-1.1884766,1.5410156,0.98339844,33.53125,223.8125,-93.6875,0.0,0.0,0.0
1664896874854,-0.24902344,-0.26953125,0.06933594,-57.40625,-49.21875,-91.3125,0.0,0.0,0.0
1664896874913,-1.2070312,0.69433594,0.46191406,-57.46875,-17.28125,-72.1875,0.0,0.0,0.0
1664896874943,-0.74609375,0.33007812,0.7050781,-60.21875,-43.84375,-72.875,0.0,0.0,0.0
1664896874972,-0.9814453,0.109375,0.68359375,-55.15625,-31.03125,-47.96875,0.0,0.0,0.0
1664896875033,-1.0791016,-0.017578125,0.7109375,-48.3125,-48.96875,-51.03125,0.0,0.0,0.0
1664896875063,-0.8300781,0.16113281,0.69628906,-39.59375,-49.6875,-42.90625,0.0,0.0,0.0
1664896875093,-1.0048828,0.033203125,0.89941406,-38.5,-21.4375,-27.9375,0.0,0.0,0.0
1664896875152,-1.0595703,0.19335938,0.70996094,-30.4375,-51.84375,-8.25,0.0,0.0,0.0
1664896875183,-0.5390625,-0.08203125,0.6123047,-31.34375,-52.375,-7.875,0.0,0.0,0.0
1664896875214,-0.63183594,-0.016601562,0.7529297,-34.59375,-60.25,-6.53125,-62.375,-4.9375,-112.25
1664896875272,-0.71191406,-0.06933594,0.7949219,-33.0625,-63.0,-8.1875,0.0,0.0,0.0
1664896875304,-0.57910156,0.0546875,0.8515625,-31.71875,-44.21875,-10.90625,0.0,0.0,0.0
1664896875332,-0.63964844,0.068359375,0.8886719,-16.59375,-1.0,-16.90625,0.0,0.0,0.0
1664896875392,-0.5283203,-0.06640625,0.7167969,-20.25,34.65625,-19.46875,0.0,0.0,0.0
1664896875423,-0.5019531,-0.19628906,0.7001953,-5.71875,0.40625,-12.5625,0.0,0.0,0.0
1664896875454,-0.69140625,-0.15917969,0.80566406,-0.71875,0.65625,0.0,0.0,0.0,0.0
1664896875513,-0.5205078,-0.22460938,0.73339844,-6.09375,-16.0,-1.03125,0.0,0.0,0.0
1664896875543,-0.6689453,-0.21972656,0.7734375,16.1875,-3.0625,6.59375,0.0,0.0,0.0
1664896875573,-0.6542969,-0.028320312,0.8652344,3.4375,13.21875,-8.1875,0.0,0.0,0.0
1664896875632,-0.6064453,-0.19433594,0.6376953,11.6875,1.5625,-8.28125,0.0,0.0,0.0
1664896875662,-0.5644531,-0.11425781,0.7949219,24.4375,14.6875,1.09375,0.0,0.0,0.0
1664896875694,-0.5048828,-0.068359375,0.765625,34.4375,8.65625,11.78125,0.0,0.0,0.0
1664896875753,-0.45117188,-0.2734375,1.0019531,46.03125,0.21875,11.25,-60.4375,-8.375,-107.875
1664896875784,-0.8701172,-0.17382812,0.9482422,32.875,47.03125,24.34375,0.0,0.0,0.0
1664896875813,-0.5878906,-0.045898438,0.93359375,100.5,173.5625,45.96875,0.0,0.0,0.0
1664896875873,-1.1601562,-0.20214844,0.73828125,90.53125,77.125,39.6875,0.0,0.0,0.0
1664896875903,-1.0292969,0.029296875,0.7011719,83.59375,113.15625,50.0625,0.0,0.0,0.0
1664896875963,-1.0292969,0.5214844,0.75,59.59375,83.0625,68.375,0.0,0.0,0.0
1664896875993,-0.96191406,0.52441406,0.68652344,48.5,15.96875,103.15625,0.0,0.0,0.0
1664896876023,-0.8251953,0.5888672,0.53222656,43.1875,-16.75,117.8125,0.0,0.0,0.0
1664896876054,-1.0712891,0.8330078,0.5625,36.09375,36.59375,103.21875,0.0,0.0,0.0
1664896876113,-0.8544922,0.89160156,0.5839844,32.625,-18.625,119.875,0.0,0.0,0.0
1664896876142,-0.5185547,1.0166016,0.5625,-2.28125,1.75,98.6875,0.0,0.0,0.0
1664896876174,-0.5263672,0.8623047,0.45410156,-33.0625,0.96875,82.84375,0.0,0.0,0.0
1664896876233,-0.27148438,0.24023438,0.27539062,-21.03125,-22.125,95.71875,-55.1875,21.625,-123.625
1664896876263,-0.0107421875,0.21582031,0.022460938,-9.4375,-29.75,84.59375,0.0,0.0,0.0
1664896876293,-0.18554688,0.5595703,0.08886719,15.34375,0.65625,85.5625,0.0,0.0,0.0
1664896876353,-0.6220703,0.37109375,0.17871094,18.28125,57.96875,58.84375,0.0,0.0,0.0
1664896876382,-0.39746094,0.1171875,0.3017578,6.4375,119.0625,38.59375,0.0,0.0,0.0
1664896876413,-0.7861328,0.42089844,0.41992188,34.15625,81.78125,8.6875,0.0,0.0,0.0
1664896876473,-0.87402344,0.6689453,0.5205078,50.25,-10.8125,-39.59375,0.0,0.0,0.0
1664896876503,-0.39257812,0.7265625,0.24316406,80.46875,-60.625,-12.75,0.0,0.0,0.0
1664896876533,-0.10253906,0.9248047,0.37402344,77.90625,-42.1875,14.03125,0.0,0.0,0.0
1664896876593,-0.0234375,1.0039062,0.36523438,85.40625,-104.8125,21.375,0.0,0.0,0.0
1664896876623,-0.25195312,0.9013672,0.3046875,40.6875,-60.875,14.09375,0.0,0.0,0.0
1664896876653,-0.16894531,1.0439453,0.27246094,17.65625,-5.03125,-1.75,0.0,0.0,0.0
1664896876713,-0.25097656,0.95410156,0.38867188,7.53125,-25.03125,4.78125,0.0,0.0,0.0
1664896876743,-0.14648438,0.98046875,0.3330078,31.6875,-39.3125,7.09375,-46.8125,27.1875,-133.875
1664896876772,-0.22949219,0.8808594,0.41796875,12.65625,-4.28125,0.375,0.0,0.0,0.0
1664896876834,-0.3251953,0.79003906,0.30273438,26.8125,-22.65625,-16.40625,0.0,0.0,0.0
1664896876863,-0.35253906,1.1230469,0.2685547,11.6875,-8.25,-32.40625,0.0,0.0,0.0
1664896876892,-0.6347656,1.1025391,0.015625,-11.40625,64.5625,-22.5625,0.0,0.0,0.0
1664896876954,-0.6152344,0.9169922,0.15722656,-26.65625,66.5,5.75,0.0,0.0,0.0
1664896876982,-0.74609375,0.8515625,-0.16601562,53.90625,-22.90625,-23.125,0.0,0.0,0.0
1664896877013,-1.0507812,0.6464844,0.30566406,46.53125,-128.5,-33.625,0.0,0.0,0.0
1664896877074,-0.359375,0.6435547,-0.080078125,95.0,-78.625,-24.03125,0.0,0.0,0.0
1664896877103,-0.4501953,0.6894531,-0.057617188,76.5625,-86.875,-45.46875,0.0,0.0,0.0
1664896877132,-0.53515625,0.8984375,0.08886719,41.71875,-56.40625,-15.125,0.0,0.0,0.0
1664896877193,-0.49121094,0.7675781,0.21679688,-18.09375,3.40625,-13.0,0.0,0.0,0.0
1664896877224,-0.32128906,0.984375,0.21484375,9.125,-19.65625,-8.96875,-54.125,24.8125,-138.1875
1664896877253,-0.6855469,0.86816406,0.17089844,23.875,-34.25,-10.0,0.0,0.0,0.0
1664896877313,-0.8935547,0.68066406,0.12402344,16.5625,-24.0625,-10.8125,0.0,0.0,0.0
1664896877343,-0.69921875,0.7480469,0.17382812,8.09375,-11.78125,-15.25,0.0,0.0,0.0
1664896877374,-0.5185547,0.6904297,-0.020507812,38.46875,-41.9375,-16.53125,0.0,0.0,0.0
1664896877434,-0.4814453,0.6904297,0.21484375,52.21875,-46.28125,-10.3125,0.0,0.0,0.0
1664896877463,-0.6933594,0.7910156,0.21679688,2.84375,7.3125,-10.0,0.0,0.0,0.0
1664896877493,-0.5175781,0.8261719,0.043945312,-55.34375,34.34375,-12.375,0.0,0.0,0.0
1664896877554,-0.19726562,0.56152344,0.021484375,-121.75,-14.46875,-17.5625,0.0,0.0,0.0
1664896877584,-0.171875,0.3544922,-0.09863281,-56.9375,-68.5,-20.25,0.0,0.0,0.0
1664896877613,-0.32714844,0.018554688,-0.07519531,26.5625,-57.5625,-58.03125,0.0,0.0,0.0
1664896877674,-0.3798828,0.3798828,0.19238281,-5.84375,-129.09375,-33.5,0.0,0.0,0.0
1664896877704,-0.48046875,1.5068359,1.1308594,-264.1875,104.59375,-28.5625,0.0,0.0,0.0
1664896877733,-0.84375,0.15820312,0.4189453,-84.875,-90.71875,-88.5625,-59.375,18.5,-126.5
1664896877792,-1.1708984,1.1582031,0.63671875,-38.625,10.0625,-14.34375,0.0,0.0,0.0
1664896877824,-1.2382812,0.82421875,0.7714844,-99.90625,49.0625,-36.96875,0.0,0.0,0.0
1664896877857,-0.76660156,0.48535156,0.80371094,-38.375,-72.46875,-36.125,0.0,0.0,0.0
1664896877912,-0.8847656,1.2441406,0.71191406,12.21875,-27.1875,-3.09375,0.0,0.0,0.0
1664896877943,-0.9394531,0.8066406,0.69628906,-4.8125,27.75,-6.09375,0.0,0.0,0.0
1664896877974,-1.0175781,1.0214844,0.6767578,21.75,9.75,18.5,0.0,0.0,0.0
1664896878032,-0.6767578,0.79003906,0.5576172,24.5625,12.5,25.46875,0.0,0.0,0.0
1664896878063,-0.76660156,0.9277344,0.65527344,36.59375,8.78125,46.4375,0.0,0.0,0.0
1664896878095,-0.91308594,0.70703125,0.6152344,41.78125,23.25,40.53125,0.0,0.0,0.0
1664896878154,-0.72753906,0.6455078,0.52246094,52.09375,46.90625,57.3125,0.0,0.0,0.0
1664896878184,-0.5253906,0.7109375,0.36035156,70.40625,35.5,50.84375,0.0,0.0,0.0
1664896878244,-0.5722656,0.6044922,0.2705078,68.125,62.59375,49.75,-58.8125,19.8125,-128.75
1664896878274,-0.51464844,0.41601562,0.28320312,54.34375,66.40625,58.28125,0.0,0.0,0.0
1664896878305,-0.4580078,0.38671875,0.18164062,40.96875,44.65625,35.78125,0.0,0.0,0.0
1664896878335,-0.20898438,0.22167969,0.1796875,59.40625,20.125,19.0625,0.0,0.0,0.0
1664896878393,-0.2890625,0.4404297,0.20019531,59.09375,-11.625,22.46875,0.0,0.0,0.0
1664896878426,-0.5546875,0.6503906,0.12402344,18.8125,25.5625,-1.40625,0.0,0.0,0.0
1664896878455,-0.66796875,0.62402344,0.06347656,-25.90625,37.34375,-20.25,0.0,0.0,0.0
1664896878515,-0.66015625,0.7763672,0.25097656,-41.46875,7.375,-32.21875,0.0,0.0,0.0
1664896878544,-0.24804688,0.61816406,-0.052734375,-82.0625,-48.0625,-31.25,0.0,0.0,0.0
1664896878574,0.036132812,0.32714844,0.3330078,-74.1875,-64.71875,-38.8125,0.0,0.0,0.0
1664896878633,-0.6699219,0.53808594,-0.09667969,-48.6875,-32.0625,-23.6875,0.0,0.0,0.0
1664896878663,-0.41015625,0.7060547,0.59765625,-61.375,-15.59375,-31.0,0.0,0.0,0.0
1664896878695,-0.94921875,0.65722656,0.26953125,-51.0,41.65625,-57.78125,0.0,0.0,0.0
1664896878754,-0.5527344,0.74609375,0.40625,-54.375,-41.34375,-47.46875,-59.5625,19.375,-131.875
1664896878784,-0.7060547,0.59375,0.4765625,-36.78125,-58.84375,-48.75,0.0,0.0,0.0
1664896878814,-0.8642578,0.8066406,0.5527344,-36.53125,-51.65625,-22.5625,0.0,0.0,0.0
1664896878874,-0.77246094,0.80078125,0.67578125,-16.21875,-12.59375,-29.34375,0.0,0.0,0.0
1664896878903,-0.9433594,0.7128906,0.7011719,-16.15625,1.6875,-19.21875,0.0,0.0,0.0
1664896878934,-1.0527344,0.9121094,0.60253906,2.71875,12.9375,-6.34375,0.0,0.0,0.0
1664896878994,-0.85839844,0.8652344,0.6484375,10.21875,19.8125,5.25,0.0,0.0,0.0
1664896879025,-0.8691406,1.0078125,0.6533203,24.4375,5.71875,31.9375,0.0,0.0,0.0
1664896879055,-0.9277344,0.8671875,0.59375,36.65625,8.65625,42.5,0.0,0.0,0.0
1664896879115,-0.7861328,0.7734375,0.5029297,52.4375,1.28125,47.3125,0.0,0.0,0.0
1664896879145,-0.7089844,0.84765625,0.37890625,61.65625,23.71875,49.5,0.0,0.0,0.0
1664896879174,-0.56640625,0.7138672,0.31933594,56.90625,58.625,48.46875,0.0,0.0,0.0
1664896879234,-0.5136719,0.609375,0.19335938,58.125,64.5,54.5625,-57.625,20.0,-129.9375
1664896879263,-0.32910156,0.46484375,0.17089844,49.53125,43.5,52.25,0.0,0.0,0.0
1664896879294,-0.18359375,0.2939453,0.23925781,47.3125,35.75,41.875,0.0,0.0,0.0
1664896879355,-0.4375,0.32617188,0.19824219,57.34375,16.65625,41.625,0.0,0.0,0.0
1664896879384,-0.42871094,0.6015625,0.18847656,58.75,13.15625,24.25,0.0,0.0,0.0
1664896879413,-0.6748047,0.87402344,0.12988281,43.0,9.625,3.53125,0.0,0.0,0.0
1664896879476,-0.57421875,1.0224609,0.09082031,9.71875,12.875,-8.28125,0.0,0.0,0.0
1664896879505,-0.3828125,0.8496094,0.11230469,-5.59375,-22.59375,-13.125,0.0,0.0,0.0
1664896879537,-0.4013672,1.2167969,-0.032226562,-31.90625,25.75,-16.15625,0.0,0.0,0.0
1664896879625,-0.32128906,0.8701172,0.059570312,-25.4375,25.9375,-3.34375,0.0,0.0,0.0
1664896879627,-0.3720703,0.8046875,-0.08105469,-31.40625,47.71875,12.34375,0.0,0.0,0.0
1664896879655,-0.62597656,0.82714844,0.016601562,-6.03125,47.96875,19.09375,0.0,0.0,0.0
1664896879745,-0.59277344,0.8623047,0.09277344,6.1875,32.34375,5.5625,-51.625,24.5,-143.3125
1664896879748,-0.6123047,0.8652344,0.13769531,-22.75,8.40625,-2.8125,0.0,0.0,0.0
1664896879774,-0.6689453,0.8417969,0.24121094,-41.0625,10.46875,-11.21875,0.0,0.0,0.0
1664896879836,-0.4560547,0.86328125,0.043945312,-72.78125,22.09375,-12.75,0.0,0.0,0.0
1664896879865,-0.4609375,0.79589844,0.2841797,-56.4375,3.40625,-10.25,0.0,0.0,0.0
1664896879895,-0.6201172,0.82128906,0.20996094,-50.5625,-59.03125,-3.15625,0.0,0.0,0.0
1664896879955,-0.5361328,0.7919922,0.39648438,-43.9375,-22.96875,-2.75,0.0,0.0,0.0
1664896879985,-0.5136719,0.78125,0.16992188,-33.0,-9.125,-5.5,0.0,0.0,0.0
1664896880014,-0.67285156,0.6503906,-0.09375,-23.34375,0.71875,1.90625,0.0,0.0,0.0
1664896880076,-0.3232422,0.7792969,0.42578125,-27.5625,32.21875,13.8125,0.0,0.0,0.0
1664896880105,-0.46777344,0.73828125,0.41308594,6.75,-32.65625,16.0,0.0,0.0,0.0
1664896880136,-0.5078125,0.75683594,0.30566406,26.875,-39.75,17.65625,0.0,0.0,0.0
1664896880195,-0.3779297,0.7871094,0.3076172,29.75,-43.53125,8.3125,0.0,0.0,0.0
1664896880224,-0.37109375,0.80859375,0.359375,23.71875,-43.78125,-0.0625,-51.4375,25.375,-132.8125
1664896880254,-0.34472656,0.8027344,0.4814453,24.625,-34.4375,-5.5625,0.0,0.0,0.0
1664896880315,-0.39257812,0.75390625,0.359375,35.46875,-12.71875,1.59375,0.0,0.0,0.0
1664896880345,-0.35839844,0.6542969,0.3798828,38.71875,-4.53125,-6.90625,0.0,0.0,0.0
1664896880374,-0.23339844,0.6982422,0.25683594,27.90625,-2.40625,-13.125,0.0,0.0,0.0
1664896880464,-0.8642578,1.3564453,0.5576172,50.5,9.8125,-25.625,0.0,0.0,0.0
1664896880466,-0.43945312,1.1083984,-0.6875,-35.3125,14.5625,-28.8125,0.0,0.0,0.0
1664896880523,-0.6298828,0.75683594,0.2529297,-31.71875,16.46875,-2.8125,0.0,0.0,0.0
1664896880585,-0.8808594,1.0,-0.06542969,6.3125,38.6875,10.1875,0.0,0.0,0.0
1664896880587,-0.5371094,0.84472656,-0.049804688,-18.40625,72.0625,5.8125,0.0,0.0,0.0
1664896880615,-0.85058594,0.8515625,0.09667969,-60.03125,149.53125,6.21875,0.0,0.0,0.0
1664896880675,-0.36132812,0.6347656,0.10839844,-62.40625,110.15625,20.03125,0.0,0.0,0.0
1664896880704,-0.390625,0.7792969,0.029296875,-4.0,55.59375,16.84375,0.0,0.0,0.0
1664896880735,-0.38671875,0.79003906,-0.14257812,-29.09375,163.125,12.625,-51.3125,26.3125,-140.125
1664896880794,-0.296875,0.8154297,-0.021484375,-30.0,120.59375,6.21875,0.0,0.0,0.0
1664896880825,-0.58984375,0.9267578,-0.0390625,-83.03125,180.28125,5.9375,0.0,0.0,0.0
1664896880855,-0.8691406,0.6435547,-0.068359375,-93.3125,156.25,5.3125,0.0,0.0,0.0
1664896880913,-0.9951172,0.89453125,-0.115234375,-80.78125,145.0,-1.46875,0.0,0.0,0.0
1664896880945,-0.4091797,0.93652344,0.10253906,-116.875,146.96875,2.1875,0.0,0.0,0.0
1664896880974,-0.54785156,0.859375,-0.24511719,-159.28125,196.53125,5.25,0.0,0.0,0.0
1664896881033,-0.75,1.1845703,-0.50878906,-175.875,198.59375,4.8125,0.0,0.0,0.0
1664896881065,-0.26660156,0.8808594,-0.3857422,-164.21875,187.71875,-9.09375,0.0,0.0,0.0
1664896881095,-0.4423828,1.1884766,-0.17578125,-185.875,241.6875,-7.9375,0.0,0.0,0.0
1664896881153,-0.06347656,0.9609375,-0.18164062,-230.625,222.34375,31.5625,0.0,0.0,0.0
1664896881185,-0.23046875,0.91015625,-0.6435547,-289.53125,276.71875,76.3125,0.0,0.0,0.0
1664896881215,-0.7451172,0.7890625,-0.53222656,-215.5,76.09375,81.78125,-42.3125,30.625,-124.6875
1664896881274,-0.89160156,0.73339844,-0.37304688,-156.84375,117.96875,89.0,0.0,0.0,0.0
1664896881304,-0.76464844,0.5644531,-0.2626953,-123.09375,176.0,89.0,0.0,0.0,0.0
1664896881334,-0.6328125,0.7714844,0.29101562,-117.21875,240.40625,74.78125,0.0,0.0,0.0
1664896881395,-0.61621094,0.79003906,-0.1484375,-96.90625,190.09375,75.1875,0.0,0.0,0.0
1664896881425,-0.57128906,0.62597656,0.0390625,-81.9375,265.125,53.46875,0.0,0.0,0.0
1664896881454,-1.015625,1.2324219,0.42871094,-60.9375,226.78125,37.78125,0.0,0.0,0.0
1664896881514,-0.7949219,0.61816406,-0.68652344,-91.40625,189.6875,2.875,0.0,0.0,0.0
1664896881544,-1.0576172,0.34375,-0.3330078,-117.84375,294.34375,-10.96875,0.0,0.0,0.0
1664896881575,-1.1005859,0.89453125,-0.12109375,-65.40625,126.4375,-11.65625,0.0,0.0,0.0
1664896881634,-0.30078125,1.0478516,0.21191406,-103.8125,161.53125,2.75,0.0,0.0,0.0
1664896881663,-0.34472656,0.87402344,-0.22753906,-141.59375,208.125,24.0625,0.0,0.0,0.0
1664896881694,-0.74609375,0.5732422,-0.46191406,-119.59375,181.1875,34.375,0.0,0.0,0.0
1664896881755,-1.1191406,0.45898438,-0.10449219,-99.90625,170.8125,31.875,-57.875,19.25,-123.0625
1664896881783,-0.78027344,0.6826172,0.11035156,-98.3125,172.15625,22.34375,0.0,0.0,0.0
1664896881815,-0.8466797,0.64746094,-0.07714844,-57.96875,101.78125,22.59375,0.0,0.0,0.0
1664896881875,-0.8574219,0.5546875,0.06738281,-78.15625,120.40625,15.625,0.0,0.0,0.0
1664896881903,-0.80566406,0.5292969,0.0625,-70.46875,132.125,5.5,0.0,0.0,0.0
1664896881934,-0.796875,0.7871094,0.078125,-62.21875,81.84375,-7.0,0.0,0.0,0.0
1664896881995,-0.3310547,1.1298828,-0.06640625,-85.3125,68.53125,-32.78125,0.0,0.0,0.0
1664896882024,-0.3720703,1.3183594,0.18457031,-110.21875,99.40625,-27.40625,0.0,0.0,0.0
1664896882054,-0.080078125,1.3398438,0.13574219,-146.28125,46.25,18.75,0.0,0.0,0.0
1664896882114,-0.51171875,0.6386719,-0.1875,-75.78125,60.65625,8.5,0.0,0.0,0.0
1664896882144,-0.9423828,0.3671875,-0.2265625,-21.9375,43.5625,-4.75,0.0,0.0,0.0
1664896882174,-0.56933594,0.6376953,0.14648438,17.1875,36.375,0.5,0.0,0.0,0.0
1664896882234,-0.17773438,0.65234375,-0.036132812,40.90625,-68.9375,8.0625,-59.6875,16.0625,-131.75
1664896882263,-0.08691406,0.91015625,0.4970703,37.0,-127.53125,40.46875,0.0,0.0,0.0
1664896882293,-1.0048828,1.1240234,-0.015625,20.71875,-28.8125,10.5,0.0,0.0,0.0
1664896882354,-0.6767578,0.81640625,0.5546875,-22.0,-64.40625,-13.0,0.0,0.0,0.0
1664896882383,-0.7919922,0.31152344,0.3544922,18.28125,-54.09375,-34.25,0.0,0.0,0.0
1664896882414,-1.1142578,0.4453125,0.08984375,34.03125,-82.21875,3.46875,0.0,0.0,0.0
1664896882475,-0.4189453,1.0058594,0.19238281,29.125,-40.40625,-28.8125,0.0,0.0,0.0
1664896882504,-0.43164062,0.91015625,0.3017578,2.84375,-78.1875,-26.1875,0.0,0.0,0.0
1664896882534,-0.65625,0.86035156,0.3154297,-2.90625,12.5625,-10.90625,0.0,0.0,0.0
1664896882594,-0.7529297,0.8251953,0.2919922,1.1875,11.03125,0.125,0.0,0.0,0.0
1664896882625,-0.7167969,0.7792969,0.35742188,-3.59375,5.46875,6.71875,0.0,0.0,0.0
1664896882656,-0.5605469,0.65527344,0.29101562,-7.1875,16.46875,1.46875,0.0,0.0,0.0
1664896882716,-0.6738281,0.7939453,0.099609375,5.40625,80.375,3.4375,0.0,0.0,0.0
1664896882744,-0.6308594,1.0820312,0.06542969,-19.6875,86.59375,33.875,-60.875,17.125,-126.5
1664896882804,-0.48339844,0.8203125,-0.025390625,-21.71875,47.71875,26.0625,0.0,0.0,0.0
1664896882834,-0.4375,0.78027344,0.068359375,-33.3125,52.65625,21.0,0.0,0.0,0.0
1664896882864,-0.40429688,0.86328125,0.12792969,-30.0,63.875,17.59375,0.0,0.0,0.0
1664896882892,-0.33984375,0.80371094,-0.1328125,-32.5625,52.15625,14.34375,0.0,0.0,0.0
1664896882954,-0.48339844,0.8417969,0.030273438,-64.1875,127.90625,12.40625,0.0,0.0,0.0
1664896882984,-0.5253906,0.93066406,-9.765625E-4,-72.1875,131.9375,13.75,0.0,0.0,0.0
1664896883015,-0.36621094,0.9580078,-0.053710938,-100.625,127.1875,3.59375,0.0,0.0,0.0
1664896883075,-0.59277344,1.0097656,-0.16308594,-106.96875,129.6875,-1.71875,0.0,0.0,0.0
1664896883104,-0.41503906,1.1347656,0.068359375,-94.28125,138.53125,-0.0625,0.0,0.0,0.0
1664896883135,-0.39257812,0.8691406,-0.14160156,-96.40625,145.5625,8.5625,0.0,0.0,0.0
1664896883224,-0.6923828,0.6953125,0.059570312,-96.15625,157.53125,1.84375,0.0,0.0,0.0
1664896883228,-0.42285156,0.62402344,9.765625E-4,-89.28125,108.8125,-2.9375,-57.4375,20.5625,-139.25
1664896883255,-0.25097656,0.8232422,0.24511719,-133.8125,90.0625,19.59375,0.0,0.0,0.0
1664896883347,-0.4794922,0.6972656,-0.2890625,-142.1875,155.5,76.84375,0.0,0.0,0.0
1664896883350,-0.6767578,0.88378906,0.07714844,-84.8125,9.8125,71.28125,0.0,0.0,0.0
1664896883374,-0.53222656,0.9794922,0.1328125,-35.0625,26.71875,71.78125,0.0,0.0,0.0
1664896883437,-0.5097656,0.6982422,-0.22460938,-64.5625,102.15625,67.625,0.0,0.0,0.0
1664896883464,-0.4453125,0.90234375,0.14160156,-85.71875,208.0625,33.21875,0.0,0.0,0.0
1664896883495,-0.63183594,0.78125,-0.21679688,-93.46875,206.28125,9.53125,0.0,0.0,0.0
1664896883556,-0.95410156,0.57128906,-0.1875,-125.46875,209.09375,-6.15625,0.0,0.0,0.0
1664896883584,-0.9892578,0.8017578,0.051757812,-81.46875,105.625,-10.6875,0.0,0.0,0.0
1664896883614,-0.6875,0.78808594,-0.038085938,-23.59375,-2.875,22.03125,0.0,0.0,0.0
1664896883675,-0.9746094,0.78222656,0.056640625,-37.21875,64.9375,13.875,0.0,0.0,0.0
1664896883706,-0.79296875,0.61035156,0.14160156,-57.03125,125.71875,31.25,0.0,0.0,0.0
1664896883733,-0.34179688,0.74316406,0.34277344,-37.5625,48.6875,20.75,-44.5625,29.0,-138.375
1664896883795,-0.8876953,0.73828125,0.27148438,-22.25,53.5,36.8125,0.0,0.0,0.0
1664896883826,-0.7626953,0.83496094,0.22070312,-14.75,46.5,28.09375,0.0,0.0,0.0
1664896883855,-0.5595703,0.82421875,0.11621094,-25.96875,37.8125,18.75,0.0,0.0,0.0
1664896883913,-0.9238281,0.6113281,0.20117188,-14.4375,38.25,24.0,0.0,0.0,0.0
1664896883945,-0.73828125,0.78027344,0.19921875,7.21875,-6.84375,16.125,0.0,0.0,0.0
1664896883975,-0.5361328,0.80371094,0.17871094,8.6875,5.59375,3.375,0.0,0.0,0.0
1664896884035,-0.5371094,0.7919922,0.21679688,-21.46875,50.34375,4.8125,0.0,0.0,0.0
1664896884064,-0.5439453,0.8544922,0.20996094,-8.09375,32.6875,-3.65625,0.0,0.0,0.0
1664896884094,-0.5517578,0.8652344,0.20800781,-19.75,26.53125,-3.96875,0.0,0.0,0.0
1664896884153,-0.3515625,0.9716797,0.12011719,-19.75,48.6875,-1.34375,0.0,0.0,0.0
1664896884185,-0.3095703,1.0527344,0.18066406,-12.5,8.96875,11.125,0.0,0.0,0.0
1664896884213,-0.49902344,0.8388672,0.14453125,-41.96875,44.96875,15.75,-40.625,33.9375,-137.625
1664896884277,-0.53222656,0.9501953,0.19042969,-36.15625,76.09375,3.4375,0.0,0.0,0.0
1664896884303,-0.27441406,0.8144531,-0.0087890625,-28.78125,37.875,-0.25,0.0,0.0,0.0
1664896884335,-0.1171875,0.8730469,0.24121094,-33.0625,38.5625,-5.0,0.0,0.0,0.0
1664896884394,-0.048828125,0.9589844,0.103515625,-59.0625,58.59375,5.9375,0.0,0.0,0.0
1664896884426,-0.09375,0.95996094,0.049804688,-66.625,65.90625,13.5,0.0,0.0,0.0
1664896884454,-0.3125,0.83691406,0.037109375,-74.9375,75.0625,13.3125,0.0,0.0,0.0
1664896884513,-0.4482422,0.7011719,-0.1015625,-40.5625,95.03125,8.375,0.0,0.0,0.0
1664896884544,-0.7314453,0.95703125,0.13574219,-38.90625,163.625,2.625,0.0,0.0,0.0
1664896884575,-0.9355469,0.9160156,-0.0048828125,-45.25,142.75,-4.28125,0.0,0.0,0.0
1664896884635,-0.2578125,1.0283203,0.27246094,-50.46875,97.09375,-11.21875,0.0,0.0,0.0
1664896884663,-0.06347656,0.87109375,-0.2578125,-51.0625,59.3125,3.90625,0.0,0.0,0.0
1664896884695,-0.98828125,0.7832031,-0.11425781,-67.90625,111.0,10.1875,0.0,0.0,0.0
1664896884754,-0.5810547,0.92871094,-0.057617188,-96.65625,147.9375,-6.59375,-40.625,31.0625,-127.25
1664896884784,-0.6982422,0.75097656,-0.16992188,-84.9375,113.3125,-1.09375,0.0,0.0,0.0
1664896884814,-0.7363281,0.71191406,-0.0546875,-84.3125,109.84375,7.28125,0.0,0.0,0.0
1664896884876,-0.5576172,0.7626953,0.068359375,-76.75,108.8125,23.6875,0.0,0.0,0.0
1664896884906,-0.671875,0.78125,-0.11328125,-77.6875,135.0625,26.0625,0.0,0.0,0.0
1664896884935,-0.6875,0.7402344,0.2626953,-74.9375,108.03125,24.78125,0.0,0.0,0.0
1664896884993,-0.6513672,0.7363281,-0.076171875,-80.0,101.96875,24.0,0.0,0.0,0.0
1664896885024,-0.7001953,0.56152344,-0.08300781,-101.53125,114.1875,17.46875,0.0,0.0,0.0
1664896885084,-1.1328125,0.6826172,-0.037109375,-75.71875,122.84375,14.90625,0.0,0.0,0.0
1664896885114,-0.8417969,0.6503906,0.080078125,-30.96875,15.625,16.3125,0.0,0.0,0.0
1664896885146,-0.74121094,1.0019531,0.24804688,-24.21875,85.25,16.0,0.0,0.0,0.0
1664896885175,-0.79296875,0.5761719,0.21484375,-31.84375,80.0,-4.375,0.0,0.0,0.0
1664896885234,-0.4111328,0.78125,0.375,-69.0,103.75,-10.84375,-46.1875,25.25,-120.8125
1664896885263,-0.5908203,0.9746094,-0.07324219,-63.625,99.28125,-15.625,0.0,0.0,0.0
1664896885295,-0.1875,0.7783203,0.13769531,-78.40625,49.25,1.40625,0.0,0.0,0.0
1664896885353,-0.052734375,0.88964844,0.3828125,-119.59375,49.1875,31.25,0.0,0.0,0.0
1664896885384,-0.25976562,0.98046875,0.125,-136.6875,65.90625,52.9375,0.0,0.0,0.0
1664896885413,-0.38183594,0.9326172,-0.095703125,-96.15625,-1.25,72.28125,0.0,0.0,0.0
1664896885474,-0.83496094,0.6152344,0.03515625,-74.3125,168.5,58.40625,0.0,0.0,0.0
1664896885505,-0.51171875,0.74902344,-0.052734375,-39.09375,153.5,51.09375,0.0,0.0,0.0
1664896885535,-0.4140625,0.625,-0.037109375,-35.0625,210.125,35.28125,0.0,0.0,0.0
1664896885564,-0.9814453,1.5126953,0.6123047,-1.625,185.71875,11.34375,0.0,0.0,0.0
1664896885623,-0.8847656,0.7392578,0.049804688,-90.3125,195.59375,-7.3125,0.0,0.0,0.0
1664896885654,-0.27734375,0.62597656,0.034179688,-45.875,107.96875,-5.0625,0.0,0.0,0.0
1664896885715,-0.6035156,0.6796875,0.10253906,-11.15625,55.46875,10.375,0.0,0.0,0.0
1664896885744,-0.66308594,0.8642578,-0.022460938,-22.9375,79.9375,8.0,-57.4375,19.8125,-124.6875
1664896885774,-0.5439453,0.7871094,-0.23046875,-74.6875,162.8125,11.90625,0.0,0.0,0.0
1664896885834,-1.0185547,0.68066406,-0.02734375,-28.46875,55.59375,7.9375,0.0,0.0,0.0
1664896885894,-0.515625,0.8144531,-0.00390625,-21.46875,77.25,-8.53125,0.0,0.0,0.0
1664896885896,-0.5986328,0.79296875,0.07128906,-43.8125,108.03125,1.96875,0.0,0.0,0.0
1664896885926,-0.6933594,0.7363281,0.2705078,-63.15625,137.625,7.5,0.0,0.0,0.0
1664896885985,-0.9316406,0.6699219,0.1328125,-30.8125,68.09375,18.875,0.0,0.0,0.0
1664896886013,-0.7705078,0.74316406,0.040039062,-62.28125,58.40625,11.96875,0.0,0.0,0.0
1664896886042,-0.5800781,0.64746094,-0.103515625,-88.78125,48.09375,-12.6875,0.0,0.0,0.0
1664896886104,-0.40527344,0.5517578,-0.005859375,-142.25,129.75,-65.59375,0.0,0.0,0.0
1664896886135,-0.4033203,1.3925781,0.5292969,-187.53125,156.40625,-80.3125,0.0,0.0,0.0
1664896886164,-0.2607422,1.4013672,-0.0126953125,-178.6875,50.34375,-26.125,0.0,0.0,0.0
1664896886225,-0.96777344,0.6220703,0.17871094,-147.4375,94.71875,-16.0,-63.125,14.75,-131.3125
1664896886254,-0.6611328,0.4296875,0.17382812,-98.375,34.34375,8.25,0.0,0.0,0.0
1664896886284,-0.4716797,0.4169922,0.14160156,-68.8125,14.03125,44.5625,0.0,0.0,0.0
1664896886345,-0.26660156,0.4560547,0.08203125,-28.0,80.5,54.875,0.0,0.0,0.0
1664896886376,-0.31445312,0.50683594,0.06542969,-32.8125,92.28125,58.71875,0.0,0.0,0.0
1664896886404,-0.74121094,0.9033203,0.4951172,-41.0625,-17.65625,38.46875,0.0,0.0,0.0
1664896886465,-1.1289062,0.8984375,-0.47070312,-40.125,114.5625,28.15625,0.0,0.0,0.0
1664896886494,-0.57128906,0.8417969,0.33203125,-80.46875,135.71875,-4.375,0.0,0.0,0.0
1664896886523,-0.7871094,0.91796875,0.28027344,-22.1875,-90.40625,17.09375,0.0,0.0,0.0
1664896886586,-0.6738281,0.77441406,0.28710938,5.21875,-105.71875,16.25,0.0,0.0,0.0
1664896886614,-0.6035156,0.7734375,-0.0087890625,18.40625,-41.34375,11.0625,0.0,0.0,0.0
1664896886644,-0.61621094,0.6542969,0.15234375,-6.1875,46.125,5.3125,0.0,0.0,0.0
1664896886705,-0.6455078,0.6425781,0.4248047,-9.125,64.125,5.3125,0.0,0.0,0.0
1664896886735,-0.4609375,0.7792969,0.40722656,-2.78125,26.40625,12.40625,-56.25,21.625,-133.6875
1664896886764,-0.51464844,0.6933594,0.2109375,-11.21875,-0.8125,19.90625,0.0,0.0,0.0
1664896886825,-0.6591797,0.7607422,0.29296875,-32.5625,29.53125,24.84375,0.0,0.0,0.0
1664896886854,-0.7841797,0.6738281,0.12402344,-32.875,52.96875,33.03125,0.0,0.0,0.0
1664896886914,-0.7783203,0.64160156,0.12207031,-34.65625,50.78125,42.375,0.0,0.0,0.0
1664896886947,-0.6582031,0.79589844,0.19433594,-35.5,19.28125,31.8125,0.0,0.0,0.0
1664896886974,-0.60839844,0.94433594,0.11230469,-58.8125,15.90625,8.84375,0.0,0.0,0.0
1664896887003,-0.6044922,1.5380859,0.11230469,-69.9375,-15.8125,-11.96875,0.0,0.0,0.0
1664896887067,-0.044921875,0.9423828,0.76464844,-101.46875,147.1875,-20.375,0.0,0.0,0.0
1664896887096,-0.73828125,0.7910156,0.3203125,-123.875,201.53125,-41.8125,0.0,0.0,0.0
1664896887186,-0.18164062,0.79785156,0.41601562,-80.3125,121.5,-53.8125,0.0,0.0,0.0
1664896887189,0.14453125,0.9267578,0.052734375,-53.125,7.4375,-18.375,0.0,0.0,0.0
1664896887215,-0.671875,0.78515625,0.41992188,-53.75,-46.28125,23.8125,-57.625,20.3125,-131.4375
1664896887307,-0.6660156,0.51171875,0.375,-62.53125,-20.53125,18.625,0.0,0.0,0.0
1664896887309,-0.2861328,0.296875,0.3515625,-33.4375,-9.78125,17.40625,0.0,0.0,0.0
1664896887365,-0.3564453,0.17382812,0.064453125,-13.90625,13.84375,5.5,0.0,0.0,0.0
1664896887367,-0.6533203,0.13671875,0.12109375,6.125,10.53125,-4.8125,0.0,0.0,0.0
1664896887425,-0.9550781,0.41796875,0.4609375,46.46875,24.46875,-33.8125,0.0,0.0,0.0
1664896887454,-1.0888672,0.8613281,0.9628906,-54.53125,-50.96875,-59.0625,0.0,0.0,0.0
1664896887483,0.13476562,1.0595703,0.58203125,-63.8125,-84.4375,-56.625,0.0,0.0,0.0
1664896887543,0.123046875,0.09667969,0.20898438,-37.03125,-86.4375,-45.46875,0.0,0.0,0.0
1664896887576,-1.2675781,0.93066406,0.6171875,-53.75,88.84375,-68.65625,0.0,0.0,0.0
1664896887605,-0.97753906,0.45507812,0.50097656,-52.96875,12.9375,-81.46875,0.0,0.0,0.0
1664896887664,-0.6503906,0.42285156,0.6376953,-43.8125,-14.65625,-71.09375,0.0,0.0,0.0
1664896887695,-0.609375,0.3359375,0.6015625,-64.90625,14.875,-58.09375,0.0,0.0,0.0
1664896887754,-0.8798828,0.3466797,0.6152344,-65.96875,3.28125,-57.125,-64.625,6.1875,-118.375
1664896887783,-0.9609375,0.09082031,0.6826172,-56.25,-10.625,-49.25,0.0,0.0,0.0
1664896887814,-0.82910156,0.12792969,0.7480469,-54.71875,-27.40625,-46.6875,0.0,0.0,0.0
1664896887844,-0.90722656,0.076171875,0.80566406,-43.75,-48.90625,-39.5,0.0,0.0,0.0
1664896887938,-0.765625,0.045898438,0.9580078,-47.40625,-44.875,-36.0625,0.0,0.0,0.0
1664896887941,-0.68359375,0.13574219,1.0097656,-45.4375,-28.6875,-12.1875,0.0,0.0,0.0
1664896887965,-0.73339844,0.13769531,0.82714844,-34.875,-21.0625,-6.84375,0.0,0.0,0.0
1664896888024,-0.64746094,-0.03125,0.69921875,-38.4375,-20.40625,-5.25,0.0,0.0,0.0
1664896888055,-0.63671875,-0.16796875,0.6123047,-34.46875,9.5625,-16.53125,0.0,0.0,0.0
1664896888115,-0.84375,-0.033203125,0.61328125,-38.625,-24.3125,-7.6875,0.0,0.0,0.0
1664896888144,-0.984375,-0.15722656,0.6640625,-29.03125,-2.6875,-13.96875,0.0,0.0,0.0
1664896888176,-0.8261719,-0.080078125,0.57714844,-6.03125,72.8125,-40.21875,0.0,0.0,0.0
1664896888235,-0.78027344,-0.203125,0.59472656,2.40625,-7.46875,-31.5,-63.0,-10.1875,-113.75
1664896888263,-0.7236328,-0.16992188,0.7480469,9.375,-9.0,-28.625,0.0,0.0,0.0
1664896888294,-0.67871094,-0.18652344,0.7060547,0.75,6.21875,-32.09375,0.0,0.0,0.0
1664896888325,-0.63183594,-0.2919922,0.6699219,17.0,15.5,-28.4375,0.0,0.0,0.0
1664896888384,-0.7138672,-0.18066406,0.6816406,18.9375,31.96875,-24.90625,0.0,0.0,0.0
1664896888413,-0.68359375,-0.21484375,0.6191406,30.28125,43.0625,-17.75,0.0,0.0,0.0
1664896888444,-0.6748047,-0.13183594,0.70996094,19.25,24.15625,-7.75,0.0,0.0,0.0
1664896888503,-0.75878906,-0.115234375,0.65722656,18.6875,7.96875,5.3125,0.0,0.0,0.0
1664896888534,-0.7402344,-0.09667969,0.6533203,9.125,1.9375,9.84375,0.0,0.0,0.0
1664896888564,-0.7128906,-0.080078125,0.6435547,5.53125,-2.40625,16.65625,0.0,0.0,0.0
1664896888624,-0.67089844,-0.09667969,0.7441406,-0.34375,-22.96875,29.0625,0.0,0.0,0.0
1664896888655,-0.7050781,-0.15820312,0.734375,6.25,-19.25,36.75,0.0,0.0,0.0
1664896888686,-0.74316406,-0.23144531,0.66503906,8.5,-18.25,45.96875,0.0,0.0,0.0
1664896888745,-0.8095703,0.072265625,0.8144531,-5.09375,-94.0625,73.0625,-63.875,-8.5,-113.625
1664896888775,-0.7919922,-0.19335938,0.390625,8.75,-6.1875,41.5,0.0,0.0,0.0
1664896888804,-0.88378906,-0.28027344,0.9482422,60.15625,51.4375,62.125,0.0,0.0,0.0
1664896888864,-0.9042969,0.10253906,0.8144531,58.375,31.25,45.71875,0.0,0.0,0.0
1664896888895,-0.8125,0.20507812,0.8359375,63.8125,47.96875,52.96875,0.0,0.0,0.0
1664896888924,-0.90722656,0.25390625,0.7470703,49.09375,48.625,63.46875,0.0,0.0,0.0
1664896888984,-0.9121094,0.3017578,0.70703125,63.5625,43.625,82.40625,0.0,0.0,0.0
1664896889013,-0.9580078,0.421875,0.6035156,62.71875,38.75,83.9375,0.0,0.0,0.0
1664896889044,-0.9482422,0.4580078,0.640625,64.28125,51.1875,81.84375,0.0,0.0,0.0
1664896889105,-0.92285156,0.43554688,0.50683594,71.5625,43.375,84.53125,0.0,0.0,0.0
1664896889133,-0.7910156,0.5253906,0.38964844,85.53125,51.375,103.65625,0.0,0.0,0.0
1664896889164,-0.5263672,0.72265625,0.29296875,90.15625,27.21875,123.25,0.0,0.0,0.0
1664896889225,-0.56152344,0.7470703,0.25097656,85.78125,47.59375,91.5625,-57.625,20.75,-132.0625
1664896889254,-0.45996094,0.4765625,0.13867188,78.28125,37.8125,70.75,0.0,0.0,0.0
1664896889284,-0.3173828,0.5263672,0.14160156,59.28125,11.03125,72.5625,0.0,0.0,0.0
1664896889344,-0.30664062,0.60546875,0.040039062,59.65625,7.90625,45.84375,0.0,0.0,0.0
1664896889374,-0.3251953,0.67578125,0.08496094,49.46875,15.90625,26.8125,0.0,0.0,0.0
1664896889404,-0.25683594,0.65722656,-0.049804688,27.25,14.9375,16.25,0.0,0.0,0.0
1664896889464,-0.38378906,0.92285156,0.0,16.0625,40.34375,-0.96875,0.0,0.0,0.0
1664896889495,-0.38867188,0.87109375,-0.11816406,-6.6875,11.71875,-4.625,0.0,0.0,0.0
1664896889524,-0.5410156,0.87597656,-0.009765625,-14.0,7.0625,-14.40625,0.0,0.0,0.0
1664896889583,-0.48828125,0.92578125,0.0087890625,-10.0,7.6875,-11.96875,0.0,0.0,0.0
1664896889645,-0.45898438,0.7792969,0.017578125,-13.09375,-10.09375,-15.125,0.0,0.0,0.0
1664896889647,-0.47070312,0.8691406,0.021484375,-8.71875,-1.0,-16.34375,0.0,0.0,0.0
1664896889705,-0.4560547,0.859375,-0.0546875,-11.40625,-5.21875,-12.25,0.0,0.0,0.0
1664896889734,-0.44726562,0.9296875,0.06933594,-10.0625,-16.75,-10.75,-49.8125,26.0,-143.0
1664896889766,-0.33203125,0.7480469,-0.06738281,-29.6875,-48.34375,-20.0625,0.0,0.0,0.0
1664896889824,-0.17871094,0.7890625,0.040039062,-46.3125,-61.59375,-5.96875,0.0,0.0,0.0
1664896889855,-0.4716797,0.7216797,0.22949219,-36.53125,-114.9375,4.15625,0.0,0.0,0.0
1664896889884,-0.6230469,0.41992188,0.2998047,-67.78125,-67.34375,-27.03125,0.0,0.0,0.0
1664896889945,-0.49609375,0.5263672,0.18457031,-72.3125,-102.0625,-59.0625,0.0,0.0,0.0
1664896889975,-0.3330078,0.5449219,0.42089844,-77.75,-52.1875,-34.71875,0.0,0.0,0.0
1664896890004,-0.55859375,0.45117188,0.51464844,-87.0625,0.0,-55.65625,0.0,0.0,0.0
1664896890067,-0.8808594,0.5595703,0.5341797,-88.96875,-22.40625,-79.53125,0.0,0.0,0.0
1664896890124,-0.7705078,0.5234375,0.6542969,-74.6875,2.65625,-94.21875,0.0,0.0,0.0
1664896890128,-0.5341797,0.3046875,0.71777344,-71.875,-0.8125,-84.71875,0.0,0.0,0.0
1664896890185,-1.0839844,0.6542969,0.76171875,-73.40625,15.96875,-90.375,0.0,0.0,0.0
1664896890215,-0.7607422,0.36328125,0.71777344,-70.46875,-14.3125,-65.5,0.0,0.0,0.0
1664896890273,-0.9277344,0.16113281,0.82128906,-59.59375,-4.71875,-66.78125,-60.875,5.5625,-114.8125
1664896890304,-1.1201172,0.33984375,0.9873047,-56.0625,-0.125,-55.0,0.0,0.0,0.0
1664896890335,-1.1083984,0.20410156,0.9345703,-40.3125,-32.71875,-40.46875,0.0,0.0,0.0
1664896890394,-0.77734375,0.29589844,0.59375,-31.40625,-40.71875,-11.21875,0.0,0.0,0.0
1664896890424,-0.44921875,0.015625,0.59765625,-27.5625,-46.65625,-16.15625,0.0,0.0,0.0
1664896890454,-0.63671875,-0.080078125,0.8330078,-38.78125,-60.875,-16.90625,0.0,0.0,0.0
1664896890484,-0.70996094,-0.115234375,0.85058594,-26.34375,-36.21875,-14.8125,0.0,0.0,0.0
1664896890544,-0.50683594,0.08203125,0.7919922,-31.53125,-7.71875,-20.4375,0.0,0.0,0.0
1664896890575,-0.54589844,-0.009765625,0.79785156,-20.375,-1.1875,-22.625,0.0,0.0,0.0
1664896890604,-0.6425781,0.038085938,0.8515625,-16.8125,7.5625,-21.46875,0.0,0.0,0.0
1664896890663,-0.6113281,-0.099609375,0.7949219,-13.96875,-10.625,-26.1875,0.0,0.0,0.0
1664896890695,-0.72753906,-0.17382812,0.76171875,-7.78125,-19.3125,-17.375,0.0,0.0,0.0
1664896890753,-0.81933594,-0.16113281,0.6933594,-9.25,35.8125,-16.15625,-58.8125,-9.5625,-106.6875
1664896890783,-0.6142578,-0.11816406,0.75,-8.21875,19.875,-17.15625,0.0,0.0,0.0
1664896890815,-0.6738281,-0.07910156,0.7548828,0.8125,17.8125,-11.03125,0.0,0.0,0.0
1664896890846,-0.63378906,-0.1015625,0.80371094,5.15625,29.21875,-10.375,0.0,0.0,0.0
1664896890903,-0.69628906,-0.12011719,0.79296875,4.78125,52.40625,-16.09375,0.0,0.0,0.0
1664896890935,-0.7841797,-0.020507812,0.8154297,3.125,59.96875,-11.53125,0.0,0.0,0.0
1664896890965,-0.63183594,-0.12890625,0.7734375,-25.125,-5.09375,-0.59375,0.0,0.0,0.0
1664896891023,-0.6767578,0.16796875,0.9169922,-39.59375,-47.875,0.5,0.0,0.0,0.0
1664896891055,-0.640625,-0.11816406,0.8076172,-28.78125,-56.59375,19.78125,0.0,0.0,0.0
1664896891085,-0.63378906,-0.11230469,0.6855469,-52.34375,-52.875,14.46875,0.0,0.0,0.0
1664896891144,-0.640625,-0.15722656,0.71191406,-43.0,-40.0,27.28125,0.0,0.0,0.0
1664896891175,-0.59277344,-0.15234375,0.6699219,-35.9375,-35.40625,32.40625,0.0,0.0,0.0
1664896891204,-0.63378906,-0.19042969,0.74316406,-32.625,-25.65625,37.0625,0.0,0.0,0.0
1664896891263,-0.5839844,-0.080078125,0.78515625,-29.21875,-26.875,37.125,-58.5,-12.4375,-104.625
1664896891295,-0.43359375,-0.30371094,0.6904297,-29.28125,-27.3125,33.28125,0.0,0.0,0.0
1664896891327,-0.578125,-0.2939453,0.68847656,-5.78125,-22.53125,46.5625,0.0,0.0,0.0
1664896891384,-0.5810547,-0.2626953,0.76660156,8.375,-15.46875,39.6875,0.0,0.0,0.0
1664896891411,-0.4951172,-0.265625,0.70996094,14.78125,-44.875,31.3125,0.0,0.0,0.0
1664896891441,-0.51660156,-0.22265625,0.8203125,20.84375,-39.03125,22.03125,0.0,0.0,0.0
1664896891504,-0.6142578,-0.16992188,0.95703125,3.625,-44.15625,7.21875,0.0,0.0,0.0
1664896891534,-0.734375,0.22851562,1.1503906,-21.9375,-2.34375,-11.34375,0.0,0.0,0.0
1664896891563,-0.4345703,-0.34179688,0.73339844,-32.625,5.71875,-23.25,0.0,0.0,0.0
1664896891622,-0.33398438,-0.29003906,0.64160156,28.15625,21.65625,-12.75,0.0,0.0,0.0
1664896891652,-0.6376953,-0.017578125,0.9980469,22.78125,-16.25,1.09375,0.0,0.0,0.0
1664896891686,-0.60253906,0.03125,0.9814453,-3.875,-4.96875,-9.28125,0.0,0.0,0.0
1664896891742,-0.40429688,-0.17675781,0.79589844,-0.90625,23.1875,-16.59375,-53.25,-9.125,-101.3125
1664896891772,-0.40722656,-0.07714844,0.8730469,17.84375,11.8125,-1.75,0.0,0.0,0.0
1664896891805,-0.54589844,-0.049804688,0.921875,1.71875,-21.875,3.71875,0.0,0.0,0.0
