# Sensor type: Thingy
# Activity type: Sitting
# Activity code: 0
# Subject id: s1912575
# Notes: 
timestamp,accel_x,accel_y,accel_z,gyro_x,gyro_y,gyro_z,mag_x,mag_y,mag_z
1664366005301,-0.4482422,-0.4091797,0.80078125,-0.0625,0.0625,0.0625,0.0,0.0,0.0
1664366005328,-0.4453125,-0.41210938,0.8066406,-0.15625,0.375,0.125,-56.5625,-37.0,-89.625
1664366005386,-0.4580078,-0.4091797,0.79003906,-0.21875,-0.125,0.1875,0.0,0.0,0.0
1664366005417,-0.44628906,-0.40820312,0.8095703,0.0,0.375,-0.0625,0.0,0.0,0.0
1664366005447,-0.45507812,-0.4111328,0.796875,0.375,-0.0625,0.1875,0.0,0.0,0.0
1664366005508,-0.45214844,-0.41210938,0.81347656,0.0625,-0.25,0.25,0.0,0.0,0.0
1664366005536,-0.44140625,-0.41210938,0.80371094,0.125,-0.25,0.25,0.0,0.0,0.0
1664366005568,-0.44921875,-0.40039062,0.8027344,0.0625,-0.1875,0.25,0.0,0.0,0.0
1664366005627,-0.4482422,-0.41015625,0.8017578,-0.21875,-0.4375,0.0625,0.0,0.0,0.0
1664366005656,-0.453125,-0.4189453,0.8066406,-0.28125,-0.25,0.0,0.0,0.0,0.0
1664366005686,-0.453125,-0.4091797,0.80371094,-0.15625,0.125,0.25,0.0,0.0,0.0
1664366005747,-0.4560547,-0.40820312,0.7910156,-0.09375,-0.5625,0.5,0.0,0.0,0.0
1664366005778,-0.4609375,-0.4091797,0.7998047,-0.21875,-0.375,0.5,0.0,0.0,0.0
1664366005806,-0.45117188,-0.40820312,0.80371094,-0.28125,-0.4375,0.25,0.0,0.0,0.0
1664366005868,-0.45117188,-0.41796875,0.8017578,-0.0625,-0.25,0.1875,-57.0,-37.1875,-90.0625
1664366005899,-0.45214844,-0.40625,0.80078125,-0.09375,-0.3125,0.25,0.0,0.0,0.0
1664366005928,-0.4560547,-0.40820312,0.7998047,-0.21875,-0.6875,0.25,0.0,0.0,0.0
1664366005988,-0.4580078,-0.40625,0.79003906,-0.0625,-0.375,0.25,0.0,0.0,0.0
1664366006016,-0.45410156,-0.40234375,0.80566406,-0.0625,-0.375,0.3125,0.0,0.0,0.0
1664366006047,-0.45117188,-0.41601562,0.8046875,-0.15625,-0.0625,0.375,0.0,0.0,0.0
1664366006107,-0.4580078,-0.4111328,0.8154297,-0.0625,-0.0625,0.5,0.0,0.0,0.0
1664366006137,-0.4609375,-0.41308594,0.8027344,-0.40625,-0.3125,0.75,0.0,0.0,0.0
1664366006166,-0.4423828,-0.4013672,0.78808594,-0.28125,-0.125,0.5625,0.0,0.0,0.0
1664366006227,-0.45117188,-0.40722656,0.79589844,-0.34375,-0.0625,0.5,0.0,0.0,0.0
1664366006256,-0.4609375,-0.4169922,0.78125,-0.34375,-0.6875,0.0,0.0,0.0,0.0
1664366006318,-0.45117188,-0.40625,0.7841797,-0.09375,-0.375,0.0625,0.0,0.0,0.0
1664366006346,-0.4423828,-0.4140625,0.79589844,0.0625,-0.5625,0.3125,-56.6875,-37.9375,-89.4375
1664366006377,-0.45703125,-0.41015625,0.79589844,-0.0625,-0.5625,0.3125,0.0,0.0,0.0
1664366006409,-0.4453125,-0.41015625,0.8095703,-0.28125,-0.625,-0.0625,0.0,0.0,0.0
1664366006467,-0.4501953,-0.4140625,0.7890625,0.0,-0.25,-0.25,0.0,0.0,0.0
1664366006498,-0.45507812,-0.4111328,0.80371094,0.375,-0.3125,0.125,0.0,0.0,0.0
1664366006527,-0.44921875,-0.40625,0.80371094,-0.09375,-0.125,0.5625,0.0,0.0,0.0
1664366006587,-0.4501953,-0.4091797,0.80078125,-0.21875,-0.4375,0.8125,0.0,0.0,0.0
1664366006618,-0.4560547,-0.41601562,0.79785156,-0.53125,-0.1875,0.625,0.0,0.0,0.0
1664366006646,-0.4580078,-0.41210938,0.80566406,-0.21875,-0.1875,0.625,0.0,0.0,0.0
1664366006707,-0.44921875,-0.4091797,0.80371094,-0.21875,-0.625,0.25,0.0,0.0,0.0
1664366006738,-0.44335938,-0.41015625,0.79589844,-0.34375,-0.1875,0.1875,0.0,0.0,0.0
1664366006766,-0.4580078,-0.40722656,0.796875,-0.09375,-0.5625,0.375,0.0,0.0,0.0
1664366006828,-0.45214844,-0.4111328,0.80078125,-0.21875,-0.5625,0.4375,0.0,0.0,0.0
1664366006857,-0.4404297,-0.3955078,0.79785156,-0.28125,-0.3125,0.3125,-56.25,-37.1875,-90.5
1664366006887,-0.453125,-0.4091797,0.80566406,-0.28125,-0.5,0.3125,0.0,0.0,0.0
1664366006947,-0.44726562,-0.41308594,0.80078125,-0.34375,-0.5,0.1875,0.0,0.0,0.0
1664366006977,-0.45214844,-0.41601562,0.80078125,-0.34375,-0.375,0.1875,0.0,0.0,0.0
1664366007007,-0.4453125,-0.4140625,0.79785156,-0.40625,-0.5,0.4375,0.0,0.0,0.0
1664366007067,-0.4404297,-0.41601562,0.8144531,-0.28125,-0.6875,0.5625,0.0,0.0,0.0
1664366007097,-0.45117188,-0.4033203,0.78808594,-0.34375,-0.5,0.25,0.0,0.0,0.0
1664366007127,-0.44433594,-0.40527344,0.7919922,-0.28125,-0.3125,0.375,0.0,0.0,0.0
1664366007188,-0.45898438,-0.4091797,0.8017578,-0.15625,-0.4375,0.625,0.0,0.0,0.0
1664366007217,-0.45214844,-0.4091797,0.80566406,0.0625,-0.5,0.5625,0.0,0.0,0.0
1664366007247,-0.45507812,-0.40527344,0.81640625,-0.28125,-0.125,0.4375,0.0,0.0,0.0
1664366007308,-0.45410156,-0.40234375,0.7919922,-0.21875,-0.3125,0.75,0.0,0.0,0.0
1664366007339,-0.44921875,-0.4111328,0.7841797,-0.09375,-0.5,0.9375,-56.6875,-37.1875,-90.0625
1664366007368,-0.453125,-0.4013672,0.7949219,0.125,-0.6875,0.75,0.0,0.0,0.0
1664366007427,-0.4453125,-0.4111328,0.80859375,-0.28125,-0.375,0.3125,0.0,0.0,0.0
1664366007458,-0.4560547,-0.4140625,0.8066406,-0.15625,-0.125,0.5625,0.0,0.0,0.0
1664366007487,-0.4580078,-0.40429688,0.8154297,-0.34375,-0.78125,0.625,0.0,0.0,0.0
1664366007546,-0.4482422,-0.4169922,0.7939453,-0.40625,-0.4375,0.5,0.0,0.0,0.0
1664366007577,-0.453125,-0.41210938,0.80566406,0.125,0.0,0.4375,0.0,0.0,0.0
1664366007607,-0.4580078,-0.40527344,0.80371094,0.1875,-0.1875,0.875,0.0,0.0,0.0
1664366007666,-0.45214844,-0.40820312,0.7949219,0.0,-0.5,0.9375,0.0,0.0,0.0
1664366007697,-0.4580078,-0.40722656,0.8017578,-0.0625,-0.78125,0.8125,0.0,0.0,0.0
1664366007728,-0.44433594,-0.40527344,0.79589844,-0.09375,-0.625,0.5,0.0,0.0,0.0
1664366007788,-0.44921875,-0.4013672,0.8066406,-0.28125,-0.5,0.375,0.0,0.0,0.0
1664366007818,-0.45117188,-0.40722656,0.79785156,-0.78125,0.0,0.375,0.0,0.0,0.0
1664366007847,-0.4501953,-0.41308594,0.7988281,-0.21875,-0.5625,0.625,-56.875,-36.6875,-88.875
1664366007906,-0.45117188,-0.4091797,0.80371094,0.0625,-0.5,0.375,0.0,0.0,0.0
1664366007937,-0.453125,-0.40039062,0.80566406,-0.09375,-0.25,0.375,0.0,0.0,0.0
1664366007967,-0.4482422,-0.4033203,0.8105469,-0.15625,-0.5,0.4375,0.0,0.0,0.0
1664366008026,-0.45117188,-0.41015625,0.7939453,-0.15625,-0.3125,0.5625,0.0,0.0,0.0
1664366008057,-0.45703125,-0.40234375,0.81152344,-0.15625,-0.4375,0.4375,0.0,0.0,0.0
1664366008088,-0.45214844,-0.40820312,0.8066406,-0.34375,-0.5,0.25,0.0,0.0,0.0
1664366008149,-0.45117188,-0.41210938,0.80859375,-0.28125,-0.1875,0.3125,0.0,0.0,0.0
1664366008177,-0.453125,-0.40722656,0.80078125,-0.0625,-0.5,0.75,0.0,0.0,0.0
1664366008208,-0.4560547,-0.39941406,0.8076172,-0.28125,-0.78125,0.625,0.0,0.0,0.0
1664366008268,-0.44921875,-0.4033203,0.7832031,-0.15625,0.125,0.3125,0.0,0.0,0.0
1664366008296,-0.45214844,-0.40820312,0.79785156,-0.34375,-0.25,0.5,0.0,0.0,0.0
1664366008328,-0.45117188,-0.4111328,0.8027344,-0.34375,-0.375,0.3125,-56.5625,-36.25,-90.625
1664366008386,-0.45410156,-0.40722656,0.80859375,-0.0625,-0.375,0.3125,0.0,0.0,0.0
1664366008416,-0.45898438,-0.40429688,0.7988281,-0.28125,-0.375,0.4375,0.0,0.0,0.0
1664366008450,-0.4580078,-0.40234375,0.7939453,-0.59375,-0.6875,0.5625,0.0,0.0,0.0
1664366008508,-0.4560547,-0.40722656,0.7949219,-0.65625,-0.5,0.5625,0.0,0.0,0.0
1664366008536,-0.46777344,-0.39746094,0.7939453,-0.15625,0.78125,0.875,0.0,0.0,0.0
1664366008597,-0.453125,-0.40625,0.81347656,-0.15625,-0.625,1.09375,0.0,0.0,0.0
1664366008627,-0.4501953,-0.4091797,0.796875,-1.03125,0.0,-0.0625,0.0,0.0,0.0
1664366008656,-0.4560547,-0.4033203,0.80078125,-0.65625,0.1875,0.0,0.0,0.0,0.0
1664366008687,-0.44335938,-0.41210938,0.78515625,-0.21875,-0.75,0.9375,0.0,0.0,0.0
1664366008747,-0.44726562,-0.41015625,0.80859375,-0.34375,-0.90625,1.09375,0.0,0.0,0.0
1664366008779,-0.45117188,-0.4013672,0.79003906,0.0,0.375,0.96875,0.0,0.0,0.0
1664366008807,-0.4658203,-0.40527344,0.80566406,-0.90625,1.875,0.8125,0.0,0.0,0.0
1664366008867,-0.4580078,-0.40527344,0.7988281,-0.21875,-0.125,1.21875,-57.125,-35.1875,-88.5625
1664366008896,-0.46777344,-0.421875,0.8125,-0.34375,-0.375,0.8125,0.0,0.0,0.0
1664366008927,-0.45898438,-0.4111328,0.7998047,-0.40625,-0.375,0.25,0.0,0.0,0.0
1664366008988,-0.45898438,-0.4013672,0.80371094,-0.09375,-0.5625,0.0625,0.0,0.0,0.0
1664366009017,-0.45214844,-0.4033203,0.7939453,-0.09375,-0.625,0.5,0.0,0.0,0.0
1664366009047,-0.4580078,-0.40722656,0.7988281,-0.53125,-0.375,0.6875,0.0,0.0,0.0
1664366009106,-0.4609375,-0.4111328,0.79785156,-0.46875,0.0,0.5,0.0,0.0,0.0
1664366009137,-0.46484375,-0.4091797,0.79785156,-0.09375,0.375,-0.25,0.0,0.0,0.0
1664366009166,-0.4560547,-0.4013672,0.7939453,0.0,-0.3125,-0.0625,0.0,0.0,0.0
1664366009227,-0.45117188,-0.4091797,0.7988281,-0.21875,-0.375,-0.0625,0.0,0.0,0.0
1664366009256,-0.45117188,-0.40527344,0.796875,0.0,-0.1875,0.0,0.0,0.0,0.0
1664366009286,-0.46191406,-0.40039062,0.7939453,0.0625,-0.3125,0.0,0.0,0.0,0.0
1664366009348,-0.4716797,-0.40820312,0.8076172,-0.0625,-0.25,0.0,-57.875,-36.25,-90.1875
1664366009377,-0.45996094,-0.40820312,0.80859375,-0.09375,-0.625,0.125,0.0,0.0,0.0
1664366009407,-0.4501953,-0.41308594,0.7949219,-0.21875,-0.375,0.1875,0.0,0.0,0.0
1664366009468,-0.45898438,-0.40429688,0.8105469,-0.15625,-0.6875,0.5625,0.0,0.0,0.0
1664366009497,-0.45703125,-0.4091797,0.7988281,-0.40625,-0.75,0.3125,0.0,0.0,0.0
1664366009527,-0.45996094,-0.40722656,0.7939453,-0.21875,-0.5625,0.4375,0.0,0.0,0.0
1664366009588,-0.4560547,-0.4033203,0.78808594,-0.34375,-0.75,0.375,0.0,0.0,0.0
1664366009622,-0.45996094,-0.40234375,0.7998047,-0.09375,-0.4375,0.375,0.0,0.0,0.0
1664366009646,-0.46875,-0.40722656,0.7988281,-0.21875,-0.90625,0.5625,0.0,0.0,0.0
1664366009706,-0.45410156,-0.4111328,0.8046875,-0.53125,-0.625,0.25,0.0,0.0,0.0
1664366009736,-0.4638672,-0.4091797,0.78808594,-0.21875,-0.625,0.375,0.0,0.0,0.0
1664366009768,-0.45703125,-0.41308594,0.79785156,0.0625,-0.90625,0.25,0.0,0.0,0.0
1664366009828,-0.453125,-0.3984375,0.80078125,-0.21875,-0.5,0.5,0.0,0.0,0.0
1664366009858,-0.4580078,-0.40039062,0.78515625,-0.15625,-0.6875,0.875,-58.375,-37.0,-89.125
1664366009888,-0.45117188,-0.3984375,0.7988281,-0.09375,-0.75,0.5,0.0,0.0,0.0
1664366009947,-0.4609375,-0.41015625,0.8027344,-0.28125,0.1875,-0.34375,0.0,0.0,0.0
1664366009978,-0.45410156,-0.41503906,0.81347656,-0.34375,0.96875,-0.90625,0.0,0.0,0.0
1664366010009,-0.45507812,-0.41601562,0.7910156,-0.09375,0.59375,-0.3125,0.0,0.0,0.0
1664366010068,-0.4501953,-0.4091797,0.78515625,-0.0625,0.25,-0.1875,0.0,0.0,0.0
1664366010098,-0.4482422,-0.4111328,0.796875,-0.0625,0.25,-0.25,0.0,0.0,0.0
1664366010127,-0.4580078,-0.40527344,0.8066406,-0.09375,0.1875,0.0625,0.0,0.0,0.0
1664366010190,-0.4560547,-0.41015625,0.78808594,-0.0625,-0.1875,0.3125,0.0,0.0,0.0
1664366010219,-0.45996094,-0.4013672,0.79589844,-0.09375,-0.125,-0.0625,0.0,0.0,0.0
1664366010248,-0.46191406,-0.4140625,0.7890625,0.125,-0.0625,-0.0625,0.0,0.0,0.0
1664366010307,-0.46777344,-0.40527344,0.8027344,-0.28125,0.0625,0.3125,0.0,0.0,0.0
1664366010341,-0.4560547,-0.40527344,0.7988281,-0.15625,-0.5625,0.625,-58.8125,-37.9375,-89.75
1664366010366,-0.4580078,-0.40527344,0.80859375,-0.21875,-0.5,0.3125,0.0,0.0,0.0
1664366010426,-0.4560547,-0.41601562,0.79589844,-0.09375,-0.5,0.125,0.0,0.0,0.0
1664366010458,-0.45703125,-0.4033203,0.8076172,-0.21875,-0.125,0.125,0.0,0.0,0.0
1664366010486,-0.4580078,-0.41308594,0.7890625,-0.21875,-0.78125,0.375,0.0,0.0,0.0
1664366010546,-0.46679688,-0.4091797,0.8027344,-0.53125,-0.375,0.0625,0.0,0.0,0.0
1664366010577,-0.4501953,-0.40527344,0.79785156,-0.09375,-0.625,0.0,0.0,0.0,0.0
1664366010607,-0.4580078,-0.4033203,0.79296875,-0.21875,-0.5,0.5,0.0,0.0,0.0
1664366010667,-0.4560547,-0.40429688,0.79785156,-0.46875,-0.3125,0.1875,0.0,0.0,0.0
1664366010700,-0.4580078,-0.4033203,0.7998047,-0.28125,0.84375,-0.46875,0.0,0.0,0.0
1664366010727,-0.46289062,-0.41015625,0.7988281,-0.15625,0.90625,-0.78125,0.0,0.0,0.0
1664366010787,-0.46875,-0.40820312,0.7998047,-0.15625,0.25,-0.40625,0.0,0.0,0.0
1664366010818,-0.45703125,-0.4033203,0.79785156,-0.09375,0.1875,0.125,0.0,0.0,0.0
1664366010878,-0.45703125,-0.40429688,0.78808594,-0.15625,-0.1875,0.3125,-57.625,-37.3125,-89.125
1664366010907,-0.4560547,-0.38867188,0.8027344,-0.09375,0.0,0.0,0.0,0.0,0.0
1664366010938,-0.453125,-0.41015625,0.7890625,-0.28125,0.59375,0.1875,0.0,0.0,0.0
1664366010968,-0.46777344,-0.41210938,0.79589844,0.4375,0.25,0.96875,0.0,0.0,0.0
1664366011027,-0.45214844,-0.41796875,0.79003906,-0.28125,-0.1875,0.5,0.0,0.0,0.0
1664366011056,-0.47265625,-0.4169922,0.7841797,-0.0625,0.375,-0.0625,0.0,0.0,0.0
1664366011087,-0.45996094,-0.4013672,0.796875,0.4375,-0.5,-0.3125,0.0,0.0,0.0
1664366011146,-0.45898438,-0.40527344,0.78808594,-0.0625,-0.1875,0.0,0.0,0.0,0.0
1664366011177,-0.45214844,-0.421875,0.80371094,-0.09375,-0.3125,0.625,0.0,0.0,0.0
1664366011208,-0.44726562,-0.4013672,0.80371094,-0.0625,-0.0625,0.4375,0.0,0.0,0.0
1664366011269,-0.46484375,-0.41210938,0.7910156,-0.0625,-0.125,0.5,0.0,0.0,0.0
1664366011297,-0.45898438,-0.4033203,0.7890625,-0.28125,-0.5,0.1875,0.0,0.0,0.0
1664366011329,-0.45996094,-0.41015625,0.7919922,-0.15625,-0.0625,0.1875,-57.75,-36.875,-91.375
1664366011387,-0.46191406,-0.39746094,0.8066406,0.0,-0.5,0.375,0.0,0.0,0.0
1664366011416,-0.4501953,-0.40820312,0.7998047,-0.09375,-0.0625,0.625,0.0,0.0,0.0
1664366011447,-0.45996094,-0.4091797,0.8076172,-0.28125,-0.375,0.9375,0.0,0.0,0.0
1664366011508,-0.46679688,-0.4140625,0.8046875,-0.09375,-0.5625,0.625,0.0,0.0,0.0
1664366011535,-0.4609375,-0.4169922,0.7890625,-0.09375,-0.375,-0.125,0.0,0.0,0.0
1664366011568,-0.46777344,-0.40527344,0.7998047,0.25,-0.4375,0.0625,0.0,0.0,0.0
1664366011628,-0.45117188,-0.40039062,0.7949219,-0.09375,-0.25,0.125,0.0,0.0,0.0
1664366011657,-0.453125,-0.41503906,0.796875,-0.28125,-0.5,0.8125,0.0,0.0,0.0
1664366011688,-0.46679688,-0.4091797,0.7910156,-0.40625,-0.625,0.4375,0.0,0.0,0.0
1664366011747,-0.4580078,-0.40429688,0.7949219,-0.09375,-0.1875,0.3125,0.0,0.0,0.0
1664366011777,-0.46679688,-0.39746094,0.7841797,-0.21875,-0.78125,0.75,0.0,0.0,0.0
1664366011807,-0.4560547,-0.4140625,0.7919922,-0.53125,-0.625,0.5,0.0,0.0,0.0
1664366011867,-0.45898438,-0.4111328,0.7871094,-0.40625,-0.4375,0.375,-57.75,-36.875,-89.75
1664366011896,-0.45898438,-0.41308594,0.80078125,-0.21875,-0.5625,0.3125,0.0,0.0,0.0
1664366011928,-0.46484375,-0.41015625,0.7949219,-0.09375,-0.25,0.3125,0.0,0.0,0.0
1664366011988,-0.46484375,-0.41015625,0.7919922,-0.21875,-0.5,0.5625,0.0,0.0,0.0
1664366012017,-0.4658203,-0.40820312,0.7919922,-0.53125,-0.5,0.6875,0.0,0.0,0.0
1664366012049,-0.47070312,-0.40722656,0.7998047,-0.34375,-0.4375,0.5625,0.0,0.0,0.0
1664366012108,-0.4638672,-0.4140625,0.7988281,-0.34375,-0.3125,0.4375,0.0,0.0,0.0
1664366012138,-0.45996094,-0.41308594,0.80371094,-0.09375,-0.25,0.4375,0.0,0.0,0.0
1664366012167,-0.46289062,-0.4091797,0.7919922,-0.21875,-0.3125,0.3125,0.0,0.0,0.0
1664366012227,-0.4609375,-0.40820312,0.7998047,-0.09375,-0.25,0.125,0.0,0.0,0.0
1664366012258,-0.4609375,-0.40820312,0.7998047,-0.28125,-0.3125,0.125,0.0,0.0,0.0
1664366012286,-0.45703125,-0.4140625,0.79589844,-0.28125,-0.375,0.125,0.0,0.0,0.0
1664366012348,-0.46484375,-0.40527344,0.7832031,-0.09375,-0.0625,0.1875,-57.0,-36.4375,-90.8125
1664366012378,-0.46191406,-0.4140625,0.7949219,-0.21875,-0.375,0.1875,0.0,0.0,0.0
1664366012406,-0.4638672,-0.41601562,0.796875,-0.34375,-0.0625,0.1875,0.0,0.0,0.0
1664366012468,-0.46484375,-0.40625,0.796875,-0.15625,-0.5,0.4375,0.0,0.0,0.0
1664366012497,-0.46875,-0.41503906,0.79296875,-0.34375,-0.3125,0.1875,0.0,0.0,0.0
1664366012529,-0.47265625,-0.40625,0.7919922,0.0625,-0.625,0.375,0.0,0.0,0.0
1664366012587,-0.4638672,-0.40722656,0.7949219,0.25,-0.125,0.1875,0.0,0.0,0.0
1664366012617,-0.4609375,-0.40429688,0.80078125,0.1875,-0.5,0.4375,0.0,0.0,0.0
1664366012646,-0.45996094,-0.40722656,0.79589844,-0.15625,-0.1875,0.1875,0.0,0.0,0.0
1664366012710,-0.47070312,-0.4091797,0.80859375,-0.09375,-0.3125,0.3125,0.0,0.0,0.0
1664366012737,-0.45703125,-0.40234375,0.79589844,-0.21875,-0.3125,0.25,0.0,0.0,0.0
1664366012767,-0.46191406,-0.4033203,0.79296875,-0.21875,-0.1875,0.4375,0.0,0.0,0.0
1664366012828,-0.46289062,-0.40429688,0.79296875,-0.40625,-0.125,0.375,0.0,0.0,0.0
1664366012859,-0.46191406,-0.40820312,0.7841797,-0.21875,-0.375,0.375,-57.75,-37.625,-91.125
1664366012887,-0.46484375,-0.40527344,0.7910156,0.0,0.0,0.3125,0.0,0.0,0.0
1664366012947,-0.46972656,-0.40820312,0.79003906,-0.21875,-0.25,0.0625,0.0,0.0,0.0
1664366012977,-0.4580078,-0.4013672,0.8027344,-0.21875,-0.25,0.125,0.0,0.0,0.0
1664366013007,-0.46972656,-0.40625,0.7949219,-0.0625,-0.1875,0.3125,0.0,0.0,0.0
1664366013066,-0.46875,-0.4111328,0.78515625,-0.46875,-0.4375,0.25,0.0,0.0,0.0
1664366013098,-0.46679688,-0.40722656,0.79296875,-0.15625,-0.125,0.125,0.0,0.0,0.0
1664366013157,-0.46972656,-0.40527344,0.7832031,0.0,-0.25,0.3125,0.0,0.0,0.0
1664366013187,-0.45507812,-0.40722656,0.77734375,-0.28125,-0.6875,0.25,0.0,0.0,0.0
1664366013218,-0.46191406,-0.41308594,0.79003906,-0.28125,-0.0625,0.1875,0.0,0.0,0.0
1664366013247,-0.46875,-0.40722656,0.7919922,0.0625,-0.21875,-0.09375,0.0,0.0,0.0
1664366013309,-0.46679688,-0.39941406,0.796875,-0.0625,-0.09375,-0.09375,0.0,0.0,0.0
1664366013339,-0.46484375,-0.41015625,0.7939453,-0.25,-0.21875,-0.15625,-57.875,-37.0,-89.625
1664366013367,-0.47460938,-0.40625,0.78808594,-0.25,0.09375,0.0,0.0,0.0,0.0
1664366013426,-0.45996094,-0.40625,0.796875,0.0,-0.03125,-0.09375,0.0,0.0,0.0
1664366013458,-0.46289062,-0.41796875,0.78808594,0.125,0.03125,-0.21875,0.0,0.0,0.0
1664366013487,-0.4560547,-0.41308594,0.79003906,-0.1875,-0.09375,-0.0625,0.0,0.0,0.0
1664366013546,-0.46484375,-0.41308594,0.80078125,-0.0625,-0.21875,0.0,0.0,0.0,0.0
1664366013578,-0.46484375,-0.40429688,0.79003906,0.125,0.03125,0.0625,0.0,0.0,0.0
1664366013607,-0.4609375,-0.4033203,0.79785156,0.0,0.09375,0.1875,0.0,0.0,0.0
1664366013667,-0.46972656,-0.39648438,0.7919922,-0.25,-0.21875,-0.09375,0.0,0.0,0.0
1664366013700,-0.4765625,-0.40039062,0.79589844,-0.125,0.03125,-0.21875,0.0,0.0,0.0
1664366013727,-0.46875,-0.41503906,0.78515625,0.0625,0.09375,-0.40625,0.0,0.0,0.0
1664366013787,-0.46191406,-0.41015625,0.7949219,-0.0625,0.09375,-0.09375,0.0,0.0,0.0
1664366013817,-0.4580078,-0.4013672,0.79296875,-0.0625,-0.15625,0.1875,0.0,0.0,0.0
1664366013848,-0.45996094,-0.4033203,0.7949219,-0.1875,-0.09375,0.0625,-57.125,-36.25,-89.625
1664366013906,-0.4658203,-0.40429688,0.80371094,0.0,0.21875,-0.15625,0.0,0.0,0.0
1664366013937,-0.4609375,-0.41015625,0.79589844,-0.0625,-0.09375,-0.21875,0.0,0.0,0.0
1664366013967,-0.46777344,-0.4013672,0.7939453,0.1875,0.09375,0.0625,0.0,0.0,0.0
1664366014026,-0.46289062,-0.39746094,0.8125,0.0625,0.21875,0.0625,0.0,0.0,0.0
1664366014057,-0.4580078,-0.40625,0.7861328,-0.46875,-0.09375,0.0625,0.0,0.0,0.0
1664366014087,-0.4638672,-0.41015625,0.796875,-0.1875,-0.15625,0.0,0.0,0.0,0.0
1664366014147,-0.4609375,-0.3984375,0.7792969,0.0,0.34375,0.0,0.0,0.0,0.0
1664366014177,-0.45507812,-0.40625,0.796875,0.0625,-0.15625,0.0,0.0,0.0,0.0
1664366014206,-0.46777344,-0.40429688,0.80566406,-0.1875,0.09375,-0.09375,0.0,0.0,0.0
1664366014268,-0.45703125,-0.40429688,0.78515625,-0.0625,-0.03125,-0.15625,0.0,0.0,0.0
1664366014298,-0.46972656,-0.4013672,0.79296875,-0.1875,-0.03125,-0.09375,0.0,0.0,0.0
1664366014328,-0.4638672,-0.40039062,0.7998047,-0.0625,-0.21875,-0.15625,-57.75,-36.4375,-90.5
1664366014387,-0.46679688,-0.40527344,0.7949219,-0.125,-0.03125,0.0625,0.0,0.0,0.0
1664366014417,-0.4580078,-0.40625,0.8027344,-0.0625,-0.34375,0.0,0.0,0.0,0.0
1664366014447,-0.4658203,-0.3984375,0.78027344,-0.3125,0.09375,0.0,0.0,0.0,0.0
1664366014508,-0.4638672,-0.40039062,0.79785156,-0.3125,-0.28125,0.3125,0.0,0.0,0.0
1664366014536,-0.45410156,-0.40234375,0.7841797,-0.46875,-0.28125,0.0625,0.0,0.0,0.0
1664366014567,-0.46972656,-0.4033203,0.8066406,0.5,0.28125,-0.09375,0.0,0.0,0.0
1664366014627,-0.46484375,-0.4013672,0.7910156,0.375,-0.15625,-0.21875,0.0,0.0,0.0
1664366014656,-0.45410156,-0.4013672,0.7890625,0.1875,-0.09375,0.0,0.0,0.0,0.0
1664366014686,-0.46289062,-0.40625,0.7890625,-0.125,-0.15625,0.125,0.0,0.0,0.0
1664366014747,-0.4580078,-0.40429688,0.7871094,-0.25,0.03125,-0.0625,0.0,0.0,0.0
1664366014776,-0.46289062,-0.40429688,0.7949219,-0.125,-0.15625,-0.0625,0.0,0.0,0.0
1664366014806,-0.4638672,-0.3984375,0.79296875,-0.3125,-0.21875,0.0,0.0,0.0,0.0
1664366014867,-0.4609375,-0.40527344,0.8154297,-0.25,-0.15625,-0.09375,-57.0,-36.875,-89.75
1664366014897,-0.46972656,-0.4033203,0.80566406,-0.0625,0.03125,-0.21875,0.0,0.0,0.0
1664366014927,-0.46289062,-0.4091797,0.7988281,-0.0625,-0.03125,-0.15625,0.0,0.0,0.0
1664366014987,-0.46484375,-0.3984375,0.7998047,-0.0625,0.15625,0.125,0.0,0.0,0.0
1664366015018,-0.46972656,-0.41503906,0.796875,-0.125,0.03125,-0.09375,0.0,0.0,0.0
1664366015048,-0.4638672,-0.40722656,0.8076172,0.0625,-0.09375,0.0,0.0,0.0,0.0
1664366015107,-0.46777344,-0.39941406,0.8046875,-0.125,0.03125,-0.09375,0.0,0.0,0.0
1664366015138,-0.45898438,-0.40429688,0.7890625,-0.0625,-0.09375,-0.09375,0.0,0.0,0.0
1664366015168,-0.4638672,-0.4111328,0.7910156,-0.0625,-0.03125,0.125,0.0,0.0,0.0
1664366015227,-0.46289062,-0.40820312,0.7998047,-0.34375,-0.21875,-0.15625,0.0,0.0,0.0
1664366015257,-0.4716797,-0.40722656,0.7910156,-0.125,0.15625,-0.40625,0.0,0.0,0.0
1664366015286,-0.46679688,-0.3955078,0.7949219,-0.125,-0.15625,-0.21875,0.0,0.0,0.0
1664366015347,-0.46679688,-0.4111328,0.7949219,-0.0625,-0.15625,-0.0625,-58.8125,-36.4375,-90.8125
1664366015378,-0.45996094,-0.40429688,0.7919922,-0.0625,0.15625,-0.0625,0.0,0.0,0.0
1664366015436,-0.4638672,-0.4111328,0.7871094,-0.125,-0.21875,0.1875,0.0,0.0,0.0
1664366015467,-0.46679688,-0.39941406,0.7841797,-0.1875,0.03125,-0.09375,0.0,0.0,0.0
1664366015496,-0.46484375,-0.4091797,0.78515625,-0.0625,0.15625,0.0,0.0,0.0,0.0
1664366015528,-0.4609375,-0.40722656,0.79785156,-0.125,-0.09375,0.0,0.0,0.0,0.0
1664366015586,-0.45996094,-0.40234375,0.7949219,-0.125,0.03125,-0.0625,0.0,0.0,0.0
1664366015618,-0.46972656,-0.4033203,0.7988281,-0.0625,-0.09375,-0.09375,0.0,0.0,0.0
1664366015647,-0.46972656,-0.40039062,0.79003906,-0.0625,0.21875,-0.15625,0.0,0.0,0.0
1664366015708,-0.46191406,-0.41015625,0.7919922,0.0,0.09375,0.125,0.0,0.0,0.0
1664366015738,-0.4609375,-0.40820312,0.796875,-0.125,-0.03125,0.0625,0.0,0.0,0.0
1664366015766,-0.4794922,-0.4091797,0.796875,-0.125,-0.09375,-0.15625,0.0,0.0,0.0
1664366015827,-0.45996094,-0.40625,0.78515625,-0.125,-0.15625,-0.21875,0.0,0.0,0.0
1664366015858,-0.47265625,-0.39746094,0.8027344,0.1875,0.28125,0.0625,-58.625,-36.6875,-90.625
1664366015887,-0.4736328,-0.40625,0.8076172,-0.1875,-0.40625,-0.09375,0.0,0.0,0.0
1664366015948,-0.46191406,-0.40039062,0.7988281,-0.1875,-0.09375,-0.34375,0.0,0.0,0.0
1664366015978,-0.46875,-0.4091797,0.7939453,-0.0625,-0.03125,0.0,0.0,0.0,0.0
1664366016008,-0.46875,-0.40625,0.80859375,-0.125,-0.09375,-0.09375,0.0,0.0,0.0
1664366016067,-0.47070312,-0.39941406,0.7871094,-0.0625,-0.03125,-0.0625,0.0,0.0,0.0
1664366016097,-0.4658203,-0.4091797,0.7949219,-0.25,-0.40625,0.0,0.0,0.0,0.0
1664366016126,-0.4609375,-0.40820312,0.7949219,-0.1875,0.21875,-0.15625,0.0,0.0,0.0
1664366016187,-0.46972656,-0.4033203,0.79785156,-0.0625,-0.15625,-0.0625,0.0,0.0,0.0
1664366016219,-0.4638672,-0.40722656,0.78515625,-0.1875,-0.03125,-0.0625,0.0,0.0,0.0
1664366016246,-0.4580078,-0.40429688,0.7871094,0.0625,0.03125,0.0625,0.0,0.0,0.0
1664366016308,-0.46777344,-0.40820312,0.7910156,0.0625,0.03125,-0.0625,0.0,0.0,0.0
1664366016338,-0.46777344,-0.40429688,0.7939453,-0.0625,0.03125,-0.40625,-59.125,-35.9375,-89.875
1664366016368,-0.45898438,-0.40234375,0.796875,-0.0625,0.09375,-0.15625,0.0,0.0,0.0
1664366016426,-0.4716797,-0.40722656,0.7988281,0.0,-0.28125,0.3125,0.0,0.0,0.0
1664366016457,-0.46484375,-0.40722656,0.79003906,-0.3125,-0.03125,0.0,0.0,0.0,0.0
1664366016487,-0.46875,-0.4091797,0.78808594,-0.0625,0.03125,-0.21875,0.0,0.0,0.0
1664366016545,-0.46875,-0.40722656,0.7919922,0.0625,0.28125,-0.15625,0.0,0.0,0.0
1664366016577,-0.46191406,-0.40039062,0.80859375,0.0625,-0.28125,0.25,0.0,0.0,0.0
1664366016608,-0.4638672,-0.4169922,0.7988281,-0.34375,-0.21875,-0.15625,0.0,0.0,0.0
1664366016667,-0.4658203,-0.40722656,0.79785156,-0.0625,0.03125,-0.15625,0.0,0.0,0.0
1664366016698,-0.45898438,-0.4091797,0.79589844,0.125,-0.15625,0.0,0.0,0.0,0.0
1664366016727,-0.46875,-0.40625,0.7939453,-0.3125,0.03125,-0.09375,0.0,0.0,0.0
1664366016787,-0.46777344,-0.40039062,0.78515625,-0.1875,-0.09375,-0.0625,0.0,0.0,0.0
1664366016818,-0.46191406,-0.40234375,0.80078125,-0.3125,-0.03125,-0.0625,0.0,0.0,0.0
1664366016847,-0.45996094,-0.40625,0.7988281,-0.0625,-0.03125,-0.21875,-57.4375,-37.625,-89.75
1664366016907,-0.46484375,-0.4091797,0.79785156,-0.25,0.03125,-0.21875,0.0,0.0,0.0
1664366016938,-0.46191406,-0.41015625,0.7861328,0.0,-0.03125,0.0625,0.0,0.0,0.0
1664366016966,-0.47070312,-0.3984375,0.7763672,0.0,0.21875,0.0625,0.0,0.0,0.0
1664366017027,-0.46875,-0.40820312,0.7998047,0.1875,0.28125,-0.0625,0.0,0.0,0.0
1664366017056,-0.4638672,-0.39746094,0.80371094,0.0625,0.09375,0.0,0.0,0.0,0.0
1664366017089,-0.46289062,-0.40527344,0.7792969,-0.1875,-0.28125,0.0,0.0,0.0,0.0
1664366017147,-0.47265625,-0.40234375,0.78515625,-0.34375,-0.15625,-0.21875,0.0,0.0,0.0
1664366017176,-0.4609375,-0.4091797,0.8027344,0.125,-0.15625,0.0,0.0,0.0,0.0
1664366017208,-0.4638672,-0.40722656,0.7861328,-0.0625,-0.21875,-0.15625,0.0,0.0,0.0
1664366017267,-0.46777344,-0.4033203,0.7998047,-0.1875,-0.09375,0.1875,0.0,0.0,0.0
1664366017296,-0.45996094,-0.40820312,0.79003906,-0.25,-0.53125,0.0,0.0,0.0,0.0
1664366017327,-0.4638672,-0.4033203,0.79785156,-0.1875,-0.09375,-0.40625,-58.375,-35.9375,-90.9375
1664366017387,-0.47070312,-0.39941406,0.79589844,-0.0625,0.15625,-0.15625,0.0,0.0,0.0
1664366017419,-0.45996094,-0.41015625,0.8046875,0.1875,-0.09375,0.0625,0.0,0.0,0.0
1664366017447,-0.46777344,-0.41308594,0.796875,-0.125,-0.09375,-0.0625,0.0,0.0,0.0
1664366017507,-0.46777344,-0.4013672,0.8027344,-0.1875,-0.03125,-0.15625,0.0,0.0,0.0
1664366017537,-0.45898438,-0.40722656,0.7939453,-0.0625,-0.15625,0.0,0.0,0.0,0.0
1664366017567,-0.46875,-0.3984375,0.79785156,-0.3125,0.09375,-0.09375,0.0,0.0,0.0
1664366017629,-0.46777344,-0.40429688,0.7919922,-0.3125,-0.21875,0.0625,0.0,0.0,0.0
1664366017657,-0.4638672,-0.4140625,0.7841797,0.0625,-0.03125,0.125,0.0,0.0,0.0
1664366017718,-0.4609375,-0.4091797,0.79589844,0.0,-0.09375,-0.21875,0.0,0.0,0.0
1664366017776,-0.4560547,-0.3955078,0.79296875,-0.0625,0.03125,-0.09375,0.0,0.0,0.0
1664366017778,-0.46484375,-0.39648438,0.7792969,-0.0625,-0.09375,-0.15625,0.0,0.0,0.0
1664366017806,-0.4716797,-0.40234375,0.81152344,-0.3125,-0.03125,0.0,0.0,0.0,0.0
1664366017867,-0.46679688,-0.40527344,0.8017578,-0.3125,-0.03125,0.0,-58.0625,-36.875,-89.0
1664366017899,-0.46289062,-0.41210938,0.8027344,-0.125,-0.28125,0.0,0.0,0.0,0.0
1664366017927,-0.4638672,-0.40625,0.8046875,-0.1875,-0.09375,-0.21875,0.0,0.0,0.0
1664366017987,-0.46972656,-0.3984375,0.8076172,0.125,0.21875,-0.15625,0.0,0.0,0.0
1664366018018,-0.46777344,-0.40429688,0.7871094,-0.125,-0.28125,0.0625,0.0,0.0,0.0
1664366018048,-0.46777344,-0.40527344,0.7949219,-0.1875,-0.03125,-0.0625,0.0,0.0,0.0
1664366018108,-0.47265625,-0.40820312,0.78808594,0.0,-0.03125,-0.09375,0.0,0.0,0.0
1664366018138,-0.4560547,-0.3935547,0.80566406,0.25,-0.15625,-0.09375,0.0,0.0,0.0
1664366018167,-0.4736328,-0.40234375,0.7949219,-0.0625,0.09375,-0.09375,0.0,0.0,0.0
1664366018227,-0.46777344,-0.4091797,0.796875,-0.34375,-0.09375,0.125,0.0,0.0,0.0
1664366018258,-0.4609375,-0.39941406,0.7783203,-0.1875,0.09375,0.1875,0.0,0.0,0.0
1664366018286,-0.46484375,-0.40429688,0.7949219,-0.125,-0.15625,-0.15625,0.0,0.0,0.0
1664366018348,-0.4638672,-0.3955078,0.7939453,0.0,0.21875,0.0,-58.8125,-36.4375,-91.375
1664366018377,-0.4716797,-0.41308594,0.8046875,-0.0625,-0.21875,0.125,0.0,0.0,0.0
1664366018407,-0.46679688,-0.40527344,0.78027344,0.0,0.09375,-0.09375,0.0,0.0,0.0
1664366018467,-0.4609375,-0.4111328,0.7890625,0.15625,0.125,-0.125,0.0,0.0,0.0
1664366018497,-0.4638672,-0.39746094,0.8125,0.03125,0.0625,-0.25,0.0,0.0,0.0
1664366018528,-0.46289062,-0.39941406,0.7841797,0.03125,-0.03125,0.125,0.0,0.0,0.0
1664366018587,-0.45703125,-0.40625,0.7910156,-0.09375,-0.09375,0.125,0.0,0.0,0.0
1664366018617,-0.46679688,-0.40527344,0.79589844,-0.15625,-0.09375,0.0625,0.0,0.0,0.0
1664366018647,-0.46484375,-0.4091797,0.7939453,0.03125,0.0625,-0.0625,0.0,0.0,0.0
1664366018707,-0.4609375,-0.40234375,0.80078125,0.15625,0.125,-0.125,0.0,0.0,0.0
1664366018738,-0.47460938,-0.4013672,0.80078125,0.21875,0.03125,0.21875,0.0,0.0,0.0
1664366018767,-0.45898438,-0.40234375,0.7861328,-0.15625,-0.15625,0.125,0.0,0.0,0.0
1664366018827,-0.46972656,-0.40234375,0.80566406,-0.03125,0.1875,0.0,0.0,0.0,0.0
1664366018857,-0.46972656,-0.40625,0.78027344,0.375,-0.34375,0.0625,-56.875,-35.5,-89.625
1664366018889,-0.46679688,-0.40234375,0.796875,0.28125,0.1875,-0.1875,0.0,0.0,0.0
1664366018946,-0.46191406,-0.4013672,0.7998047,-0.09375,-0.03125,-0.0625,0.0,0.0,0.0
1664366018977,-0.46191406,-0.4033203,0.79296875,-0.28125,-0.15625,0.0625,0.0,0.0,0.0
1664366019007,-0.46484375,-0.4013672,0.7939453,-0.03125,0.03125,-0.125,0.0,0.0,0.0
1664366019066,-0.46679688,-0.40429688,0.7910156,-0.09375,0.125,-0.1875,0.0,0.0,0.0
1664366019097,-0.4638672,-0.40039062,0.7763672,-0.09375,-0.09375,0.34375,0.0,0.0,0.0
1664366019127,-0.4716797,-0.40820312,0.7871094,-0.09375,0.125,-0.125,0.0,0.0,0.0
1664366019186,-0.46777344,-0.4013672,0.8027344,0.28125,0.3125,0.0,0.0,0.0,0.0
1664366019218,-0.46191406,-0.38964844,0.80078125,0.03125,-0.15625,-0.125,0.0,0.0,0.0
1664366019247,-0.4609375,-0.39941406,0.79589844,-0.15625,0.03125,-0.1875,0.0,0.0,0.0
1664366019308,-0.47070312,-0.40429688,0.7890625,0.15625,0.03125,0.0625,0.0,0.0,0.0
1664366019338,-0.46289062,-0.40527344,0.79003906,0.03125,-0.03125,0.1875,-58.375,-36.25,-89.125
1664366019368,-0.4658203,-0.4033203,0.7988281,-0.03125,0.125,0.1875,0.0,0.0,0.0
1664366019428,-0.4609375,-0.40820312,0.7998047,-0.15625,0.03125,-0.25,0.0,0.0,0.0
1664366019457,-0.46191406,-0.4013672,0.80859375,0.09375,0.125,-0.0625,0.0,0.0,0.0
1664366019487,-0.46679688,-0.4091797,0.7939453,-0.03125,-0.09375,0.125,0.0,0.0,0.0
1664366019546,-0.46484375,-0.40234375,0.79003906,-0.15625,-0.15625,0.0625,0.0,0.0,0.0
1664366019578,-0.46875,-0.40625,0.8105469,0.03125,0.03125,0.125,0.0,0.0,0.0
1664366019606,-0.46679688,-0.40429688,0.7988281,0.03125,-0.28125,-0.125,0.0,0.0,0.0
1664366019666,-0.4716797,-0.39941406,0.79785156,-0.03125,-0.09375,-0.0625,0.0,0.0,0.0
1664366019697,-0.46191406,-0.4091797,0.796875,-0.15625,0.03125,0.0625,0.0,0.0,0.0
1664366019726,-0.4638672,-0.40429688,0.7998047,-0.21875,0.125,0.0,0.0,0.0,0.0
1664366019786,-0.4580078,-0.4091797,0.78515625,0.03125,0.03125,0.0,0.0,0.0,0.0
1664366019816,-0.4638672,-0.39648438,0.79785156,0.09375,0.25,0.0,0.0,0.0,0.0
1664366019847,-0.45898438,-0.40722656,0.80371094,0.03125,0.03125,0.0,-57.125,-36.6875,-89.875
1664366019906,-0.4765625,-0.40722656,0.7949219,0.03125,0.1875,-0.1875,0.0,0.0,0.0
1664366019938,-0.4609375,-0.4013672,0.8144531,0.03125,0.1875,-0.4375,0.0,0.0,0.0
1664366019997,-0.46484375,-0.39746094,0.7919922,0.15625,0.25,-0.125,0.0,0.0,0.0
1664366020026,-0.46875,-0.40722656,0.8027344,0.09375,0.25,-0.1875,0.0,0.0,0.0
1664366020057,-0.46484375,-0.4013672,0.7919922,0.03125,0.0625,-0.3125,0.0,0.0,0.0
1664366020088,-0.4609375,-0.41015625,0.796875,0.15625,0.25,-0.125,0.0,0.0,0.0
1664366020149,-0.4658203,-0.39746094,0.7910156,0.09375,0.25,-0.1875,0.0,0.0,0.0
1664366020176,-0.45703125,-0.4091797,0.80371094,0.09375,0.0625,0.0,0.0,0.0,0.0
1664366020206,-0.45996094,-0.41015625,0.81640625,0.21875,0.25,0.125,0.0,0.0,0.0
1664366020268,-0.47070312,-0.3935547,0.8183594,0.03125,0.1875,-0.125,0.0,0.0,0.0
1664366020296,-0.4609375,-0.40039062,0.81152344,0.03125,0.1875,-0.3125,0.0,0.0,0.0
1664366020328,-0.45996094,-0.4091797,0.7949219,-0.03125,0.1875,0.0,-57.875,-36.25,-90.9375
1664366020387,-0.4716797,-0.39453125,0.7910156,0.03125,0.125,-0.125,0.0,0.0,0.0
1664366020422,-0.47265625,-0.40429688,0.80078125,0.03125,0.125,-0.125,0.0,0.0,0.0
1664366020447,-0.47460938,-0.41308594,0.7919922,-0.03125,0.0625,-0.1875,0.0,0.0,0.0
1664366020508,-0.4580078,-0.40527344,0.7832031,-0.21875,0.375,0.0,0.0,0.0,0.0
1664366020535,-0.4716797,-0.39941406,0.7949219,0.03125,0.1875,-0.0625,0.0,0.0,0.0
1664366020567,-0.46679688,-0.39648438,0.78808594,-0.09375,0.3125,-0.125,0.0,0.0,0.0
1664366020626,-0.46972656,-0.40429688,0.79589844,0.03125,0.03125,-0.125,0.0,0.0,0.0
1664366020656,-0.46289062,-0.40527344,0.7919922,0.28125,0.375,-0.1875,0.0,0.0,0.0
1664366020687,-0.46972656,-0.4013672,0.80566406,0.03125,0.0625,-0.0625,0.0,0.0,0.0
1664366020747,-0.47265625,-0.41210938,0.7988281,0.03125,0.0625,0.0,0.0,0.0,0.0
1664366020777,-0.4638672,-0.40527344,0.78808594,0.03125,0.1875,-0.125,0.0,0.0,0.0
1664366020837,-0.4638672,-0.3935547,0.80078125,0.09375,0.03125,0.0625,0.0,0.0,0.0
1664366020867,-0.46289062,-0.40234375,0.7988281,0.09375,0.3125,-0.125,-58.8125,-36.125,-89.75
1664366020896,-0.46679688,-0.4013672,0.796875,-0.03125,0.3125,-0.3125,0.0,0.0,0.0
1664366020926,-0.4736328,-0.40625,0.7861328,0.15625,0.125,-0.25,0.0,0.0,0.0
1664366020987,-0.4716797,-0.39941406,0.80859375,0.15625,-0.03125,0.0,0.0,0.0,0.0
1664366021018,-0.46484375,-0.39160156,0.79785156,0.09375,0.375,-0.1875,0.0,0.0,0.0
1664366021047,-0.46777344,-0.4033203,0.8027344,0.15625,0.3125,-0.1875,0.0,0.0,0.0
1664366021108,-0.46777344,-0.40234375,0.8017578,-0.21875,-0.0625,0.0625,0.0,0.0,0.0
1664366021137,-0.4638672,-0.40820312,0.79003906,0.03125,-0.0625,-0.125,0.0,0.0,0.0
1664366021167,-0.47070312,-0.40429688,0.79589844,0.03125,0.40625,-0.1875,0.0,0.0,0.0
1664366021228,-0.4638672,-0.4013672,0.7919922,0.09375,-0.1875,0.0625,0.0,0.0,0.0
1664366021258,-0.47265625,-0.3984375,0.7841797,-0.15625,0.1875,-0.0625,0.0,0.0,0.0
1664366021287,-0.46484375,-0.40625,0.8125,-0.09375,0.0625,-0.125,0.0,0.0,0.0
1664366021348,-0.47070312,-0.40722656,0.79296875,-0.03125,-0.125,0.0,-57.625,-37.0,-90.9375
1664366021379,-0.46679688,-0.39257812,0.7998047,0.09375,0.0625,0.0,0.0,0.0,0.0
1664366021406,-0.4638672,-0.4013672,0.7919922,0.09375,0.0,-0.125,0.0,0.0,0.0
1664366021468,-0.46777344,-0.4033203,0.7890625,0.09375,0.125,0.0625,0.0,0.0,0.0
1664366021498,-0.46777344,-0.40722656,0.80078125,-0.09375,-0.125,0.09375,0.0,0.0,0.0
1664366021527,-0.45898438,-0.40527344,0.7841797,0.09375,0.0625,-0.0625,0.0,0.0,0.0
1664366021588,-0.48242188,-0.39648438,0.80078125,0.34375,0.0,-0.0625,0.0,0.0,0.0
1664366021617,-0.45898438,-0.39746094,0.80371094,-0.15625,-0.0625,0.0625,0.0,0.0,0.0
1664366021648,-0.46484375,-0.40429688,0.80566406,-0.03125,0.0,0.09375,0.0,0.0,0.0
1664366021708,-0.46777344,-0.4111328,0.81152344,-0.03125,-0.0625,0.0,0.0,0.0,0.0
1664366021737,-0.46972656,-0.40429688,0.7988281,0.15625,-0.0625,0.0,0.0,0.0,0.0
1664366021767,-0.46191406,-0.4091797,0.7949219,0.03125,-0.125,-0.125,0.0,0.0,0.0
1664366021828,-0.46679688,-0.39746094,0.796875,-0.03125,0.125,-0.0625,0.0,0.0,0.0
1664366021859,-0.46777344,-0.4013672,0.8027344,-0.15625,0.0,0.0625,-58.0625,-36.125,-90.8125
1664366021888,-0.47070312,-0.40722656,0.7988281,0.15625,0.0625,-0.1875,0.0,0.0,0.0
1664366021947,-0.46679688,-0.40527344,0.7890625,-0.28125,0.25,-0.3125,0.0,0.0,0.0
1664366021978,-0.46875,-0.4033203,0.7910156,-0.15625,-0.125,0.0625,0.0,0.0,0.0
1664366022008,-0.4658203,-0.4033203,0.7792969,-0.28125,-0.125,0.21875,0.0,0.0,0.0
1664366022067,-0.46777344,-0.40234375,0.7841797,0.03125,0.1875,-0.125,0.0,0.0,0.0
1664366022097,-0.47265625,-0.4091797,0.7988281,0.03125,-0.1875,-0.125,0.0,0.0,0.0
1664366022127,-0.4716797,-0.4013672,0.79589844,0.34375,0.125,0.0,0.0,0.0,0.0
1664366022185,-0.4638672,-0.40429688,0.7998047,0.09375,-0.0625,-0.0625,0.0,0.0,0.0
1664366022217,-0.46484375,-0.4140625,0.8046875,-0.15625,-0.0625,0.0,0.0,0.0,0.0
1664366022277,-0.47070312,-0.4013672,0.80371094,0.03125,0.125,-0.1875,0.0,0.0,0.0
1664366022309,-0.4638672,-0.4033203,0.80371094,0.09375,0.125,-0.1875,0.0,0.0,0.0
1664366022338,-0.47070312,-0.40527344,0.8017578,0.15625,0.0625,0.15625,-58.625,-37.75,-91.6875
1664366022369,-0.46679688,-0.40429688,0.7841797,-0.21875,-0.25,0.0625,0.0,0.0,0.0
1664366022427,-0.4716797,-0.40820312,0.78515625,-0.21875,0.125,0.0625,0.0,0.0,0.0
1664366022458,-0.45898438,-0.40722656,0.79785156,0.09375,-0.125,-0.25,0.0,0.0,0.0
1664366022487,-0.4638672,-0.40039062,0.8017578,0.40625,0.1875,0.0,0.0,0.0,0.0
1664366022547,-0.4638672,-0.4013672,0.7949219,-0.21875,-0.3125,0.15625,0.0,0.0,0.0
1664366022578,-0.46191406,-0.4091797,0.7919922,-0.09375,0.0,-0.0625,0.0,0.0,0.0
1664366022608,-0.46972656,-0.41015625,0.8017578,0.03125,-0.1875,-0.0625,0.0,0.0,0.0
1664366022667,-0.4736328,-0.40429688,0.8017578,0.15625,0.125,-0.0625,0.0,0.0,0.0
1664366022697,-0.47070312,-0.39648438,0.7949219,-0.03125,0.0,0.0625,0.0,0.0,0.0
1664366022728,-0.46484375,-0.4091797,0.78808594,-0.28125,0.0625,0.0,0.0,0.0,0.0
1664366022787,-0.46679688,-0.40722656,0.7734375,-0.21875,0.0625,-0.0625,0.0,0.0,0.0
1664366022817,-0.47070312,-0.40039062,0.7919922,-0.03125,0.125,-0.25,0.0,0.0,0.0
1664366022848,-0.45996094,-0.41503906,0.7910156,0.03125,-0.125,0.15625,-57.75,-35.8125,-91.125
1664366022907,-0.46679688,-0.4013672,0.796875,-0.09375,-0.0625,0.09375,0.0,0.0,0.0
1664366022939,-0.47265625,-0.40527344,0.7919922,0.03125,0.3125,0.0625,0.0,0.0,0.0
1664366022967,-0.4658203,-0.40625,0.7988281,-0.15625,-0.3125,-0.0625,0.0,0.0,0.0
1664366023028,-0.46679688,-0.40234375,0.80078125,0.03125,0.1875,0.0,0.0,0.0,0.0
1664366023057,-0.46484375,-0.4013672,0.7919922,0.15625,0.125,-0.125,0.0,0.0,0.0
1664366023088,-0.46777344,-0.40234375,0.796875,-0.03125,0.0,0.15625,0.0,0.0,0.0
1664366023148,-0.46191406,-0.40625,0.79785156,-0.09375,-0.1875,0.09375,0.0,0.0,0.0
1664366023176,-0.47070312,-0.40820312,0.80566406,-0.28125,-0.0625,-0.25,0.0,0.0,0.0
1664366023208,-0.46972656,-0.4033203,0.7949219,0.34375,0.1875,0.15625,0.0,0.0,0.0
1664366023267,-0.46289062,-0.40722656,0.7998047,-0.15625,-0.125,0.15625,0.0,0.0,0.0
1664366023296,-0.46289062,-0.40820312,0.79589844,-0.09375,-0.1875,-0.0625,0.0,0.0,0.0
1664366023327,-0.4638672,-0.4111328,0.79003906,0.03125,0.0625,-0.0625,-56.25,-38.9375,-90.0625
1664366023385,-0.4658203,-0.4033203,0.796875,0.28125,0.125,-0.0625,0.0,0.0,0.0
1664366023415,-0.47265625,-0.3984375,0.7988281,0.03125,0.0625,-0.125,0.0,0.0,0.0
1664366023446,-0.47265625,-0.40429688,0.79003906,-0.09375,0.0,-0.1875,0.0,0.0,0.0
1664366023510,-0.4658203,-0.40039062,0.78808594,-0.09375,0.0,-0.125,0.0,0.0,0.0
1664366023537,-0.4658203,-0.4033203,0.79003906,0.15625,0.0,0.09375,0.0,0.0,0.0
1664366023568,-0.45507812,-0.40039062,0.7998047,-0.09375,-0.0625,-0.0625,0.0,0.0,0.0
1664366023628,-0.47265625,-0.39746094,0.7763672,-0.03125,-0.0625,0.0625,0.0,0.0,0.0
1664366023657,-0.46972656,-0.4091797,0.7998047,0.03125,-0.125,-0.1875,0.0,0.0,0.0
1664366023687,-0.4609375,-0.40234375,0.8017578,0.15625,0.1875,-0.0625,0.0,0.0,0.0
1664366023748,-0.46191406,-0.4091797,0.79785156,0.03125,0.0,-0.0625,0.0,0.0,0.0
1664366023777,-0.46875,-0.4111328,0.7998047,-0.03125,-0.0625,0.0625,0.0,0.0,0.0
1664366023806,-0.46875,-0.3984375,0.7988281,0.03125,0.125,0.0625,0.0,0.0,0.0
1664366023867,-0.46972656,-0.41210938,0.7919922,-0.03125,-0.125,-0.3125,-57.4375,-36.875,-89.4375
1664366023897,-0.4638672,-0.40625,0.7832031,0.03125,0.1875,0.0,0.0,0.0,0.0
1664366023927,-0.47070312,-0.40722656,0.8105469,-0.03125,-0.1875,0.0,0.0,0.0,0.0
1664366023987,-0.4580078,-0.40527344,0.78515625,0.09375,0.1875,-0.0625,0.0,0.0,0.0
1664366024018,-0.46289062,-0.40039062,0.8017578,-0.03125,-0.125,-0.125,0.0,0.0,0.0
1664366024046,-0.46679688,-0.41601562,0.796875,0.09375,0.0,-0.125,0.0,0.0,0.0
1664366024108,-0.46875,-0.4033203,0.78808594,-0.03125,-0.125,0.0,0.0,0.0,0.0
1664366024137,-0.46484375,-0.4033203,0.8027344,-0.03125,0.0,-0.25,0.0,0.0,0.0
1664366024167,-0.4580078,-0.40234375,0.796875,0.03125,0.3125,-0.125,0.0,0.0,0.0
1664366024227,-0.47460938,-0.40429688,0.80078125,-0.03125,0.0,0.0625,0.0,0.0,0.0
1664366024258,-0.4658203,-0.40429688,0.7988281,-0.21875,0.0625,0.0,0.0,0.0,0.0
1664366024286,-0.45996094,-0.39648438,0.80566406,0.03125,0.0625,0.0,0.0,0.0,0.0
1664366024347,-0.46484375,-0.40234375,0.7792969,0.15625,0.0625,-0.0625,-57.0,-37.625,-89.4375
1664366024379,-0.47265625,-0.4091797,0.7910156,-0.15625,0.0,0.0625,0.0,0.0,0.0
1664366024407,-0.4609375,-0.40234375,0.8066406,0.03125,-0.0625,0.0,0.0,0.0,0.0
1664366024467,-0.46191406,-0.40722656,0.7919922,0.03125,0.25,-0.0625,0.0,0.0,0.0
1664366024498,-0.4765625,-0.4033203,0.7919922,-0.03125,0.0,0.0,0.0,0.0,0.0
1664366024556,-0.46777344,-0.39648438,0.78027344,-0.03125,-0.125,0.0,0.0,0.0,0.0
1664366024588,-0.4638672,-0.40429688,0.7939453,-0.03125,0.0,0.0625,0.0,0.0,0.0
1664366024616,-0.4609375,-0.41308594,0.7832031,-0.03125,-0.0625,0.0625,0.0,0.0,0.0
1664366024650,-0.4638672,-0.40722656,0.7919922,0.03125,0.0625,-0.0625,0.0,0.0,0.0
1664366024707,-0.46777344,-0.40234375,0.8027344,0.09375,-0.0625,0.09375,0.0,0.0,0.0
1664366024737,-0.45996094,-0.3984375,0.7753906,-0.21875,-0.125,-0.125,0.0,0.0,0.0
1664366024766,-0.46875,-0.40820312,0.7861328,-0.03125,0.0,-0.0625,0.0,0.0,0.0
1664366024826,-0.46972656,-0.40039062,0.79589844,0.03125,-0.25,0.0625,0.0,0.0,0.0
1664366024857,-0.46289062,-0.40527344,0.7919922,0.15625,0.125,-0.0625,-58.375,-36.6875,-91.25
1664366024888,-0.46679688,-0.39746094,0.7841797,-0.03125,0.0,-0.0625,0.0,0.0,0.0
1664366024946,-0.4609375,-0.40625,0.796875,-0.03125,0.0,0.21875,0.0,0.0,0.0
1664366024979,-0.46875,-0.4013672,0.7871094,-0.15625,0.0,0.0,0.0,0.0,0.0
1664366025009,-0.46777344,-0.40527344,0.78808594,0.09375,0.03125,0.125,0.0,0.0,0.0
1664366025067,-0.46777344,-0.4111328,0.80371094,-0.03125,-0.25,0.0625,0.0,0.0,0.0
1664366025097,-0.46484375,-0.39746094,0.80371094,-0.03125,0.09375,-0.125,0.0,0.0,0.0
1664366025127,-0.4638672,-0.40722656,0.7949219,0.03125,-0.09375,0.0,0.0,0.0,0.0
1664366025186,-0.46679688,-0.39648438,0.8066406,-0.03125,-0.03125,0.0625,0.0,0.0,0.0
1664366025217,-0.46875,-0.40625,0.8046875,0.03125,-0.09375,-0.25,0.0,0.0,0.0
1664366025247,-0.46289062,-0.40625,0.7832031,0.28125,0.09375,-0.0625,0.0,0.0,0.0
1664366025306,-0.46679688,-0.41015625,0.7841797,0.21875,0.03125,0.125,0.0,0.0,0.0
1664366025337,-0.46289062,-0.40429688,0.80566406,-0.15625,-0.21875,0.0625,-58.375,-35.5,-89.625
1664366025367,-0.45507812,-0.40527344,0.8046875,-0.15625,-0.09375,-0.125,0.0,0.0,0.0
1664366025426,-0.4658203,-0.39648438,0.7871094,0.3125,0.03125,-0.0625,0.0,0.0,0.0
1664366025458,-0.46289062,-0.39257812,0.7910156,-0.09375,-0.03125,-0.0625,0.0,0.0,0.0
1664366025487,-0.46484375,-0.39746094,0.80078125,-0.21875,-0.09375,0.0,0.0,0.0,0.0
1664366025546,-0.4716797,-0.4111328,0.8076172,-0.09375,-0.15625,0.0,0.0,0.0,0.0
1664366025579,-0.46679688,-0.39453125,0.79296875,0.15625,0.15625,-0.0625,0.0,0.0,0.0
1664366025607,-0.4638672,-0.40039062,0.7910156,-0.03125,-0.21875,-0.125,0.0,0.0,0.0
1664366025666,-0.47851562,-0.40039062,0.8027344,-0.09375,0.15625,-0.0625,0.0,0.0,0.0
1664366025696,-0.46679688,-0.40625,0.7792969,-0.21875,-0.21875,0.0,0.0,0.0,0.0
1664366025727,-0.46484375,-0.41015625,0.78515625,-0.09375,-0.03125,0.0,0.0,0.0,0.0
1664366025786,-0.47558594,-0.3984375,0.79296875,-0.03125,-0.09375,0.125,0.0,0.0,0.0
1664366025817,-0.4658203,-0.40429688,0.7949219,0.15625,-0.09375,0.0625,0.0,0.0,0.0
1664366025847,-0.46972656,-0.40722656,0.7890625,0.03125,0.09375,-0.25,-56.6875,-37.9375,-89.4375
1664366025906,-0.46484375,-0.39648438,0.8027344,-0.03125,-0.03125,-0.1875,0.0,0.0,0.0
1664366025938,-0.4580078,-0.3984375,0.79003906,0.21875,0.09375,0.0,0.0,0.0,0.0
1664366025967,-0.4638672,-0.40625,0.7871094,0.21875,0.03125,0.125,0.0,0.0,0.0
1664366026027,-0.4638672,-0.4033203,0.8076172,-0.15625,-0.25,0.125,0.0,0.0,0.0
1664366026057,-0.47265625,-0.41015625,0.79296875,0.03125,0.03125,-0.125,0.0,0.0,0.0
1664366026087,-0.46777344,-0.40429688,0.79589844,0.3125,0.03125,0.0625,0.0,0.0,0.0
1664366026147,-0.46777344,-0.40722656,0.8017578,-0.21875,-0.15625,0.0625,0.0,0.0,0.0
1664366026176,-0.4580078,-0.4091797,0.79589844,-0.15625,-0.15625,-0.0625,0.0,0.0,0.0
1664366026207,-0.4716797,-0.4111328,0.7949219,0.03125,0.03125,-0.125,0.0,0.0,0.0
1664366026267,-0.4638672,-0.3984375,0.7861328,0.21875,-0.15625,-0.125,0.0,0.0,0.0
1664366026296,-0.47070312,-0.4033203,0.796875,0.03125,0.03125,0.0,0.0,0.0,0.0
1664366026327,-0.47070312,-0.40625,0.79296875,-0.15625,-0.15625,-0.125,-57.625,-37.0,-89.875
1664366026387,-0.46191406,-0.4013672,0.7949219,-0.15625,0.03125,-0.125,0.0,0.0,0.0
1664366026416,-0.47460938,-0.4013672,0.79296875,0.03125,-0.03125,0.0,0.0,0.0,0.0
1664366026447,-0.46484375,-0.4013672,0.8046875,-0.03125,0.15625,0.1875,0.0,0.0,0.0
1664366026507,-0.4638672,-0.40527344,0.78808594,0.03125,0.03125,0.125,0.0,0.0,0.0
1664366026537,-0.46875,-0.4091797,0.79785156,0.03125,0.09375,0.0625,0.0,0.0,0.0
1664366026566,-0.4638672,-0.40429688,0.7939453,0.15625,0.34375,-0.3125,0.0,0.0,0.0
1664366026627,-0.46777344,-0.3935547,0.7910156,0.3125,-0.15625,-0.0625,0.0,0.0,0.0
1664366026657,-0.45898438,-0.39648438,0.8046875,0.09375,-0.15625,0.125,0.0,0.0,0.0
1664366026689,-0.4716797,-0.40527344,0.79296875,-0.09375,-0.15625,0.125,0.0,0.0,0.0
1664366026778,-0.46875,-0.39648438,0.7998047,0.09375,-0.03125,-0.0625,0.0,0.0,0.0
1664366026780,-0.4658203,-0.3955078,0.7841797,0.03125,0.03125,0.0,0.0,0.0,0.0
1664366026838,-0.4716797,-0.41992188,0.7949219,-0.09375,-0.25,0.3125,0.0,0.0,0.0
1664366026869,-0.47070312,-0.40527344,0.7890625,-0.15625,-0.09375,0.0,-58.0625,-36.125,-89.4375
1664366026897,-0.46289062,-0.39648438,0.7998047,-0.03125,-0.09375,-0.25,0.0,0.0,0.0
1664366026927,-0.46679688,-0.40039062,0.7998047,0.03125,0.03125,0.125,0.0,0.0,0.0
1664366027017,-0.46972656,-0.40429688,0.8017578,0.03125,-0.21875,0.1875,0.0,0.0,0.0
1664366027019,-0.46777344,-0.40039062,0.7949219,0.09375,0.09375,0.125,0.0,0.0,0.0
1664366027048,-0.46289062,-0.390625,0.7861328,0.03125,-0.21875,0.0,0.0,0.0,0.0
1664366027108,-0.46875,-0.40234375,0.8125,-0.21875,0.15625,0.125,0.0,0.0,0.0
1664366027138,-0.47070312,-0.39941406,0.7949219,-0.03125,-0.25,0.125,0.0,0.0,0.0
1664366027167,-0.45703125,-0.40722656,0.7949219,-0.34375,-0.21875,0.0625,0.0,0.0,0.0
1664366027227,-0.4716797,-0.39941406,0.79785156,0.09375,0.03125,0.125,0.0,0.0,0.0
1664366027257,-0.47851562,-0.40234375,0.7988281,-0.15625,-0.25,0.1875,0.0,0.0,0.0
1664366027287,-0.4736328,-0.3955078,0.79589844,-0.15625,-0.03125,-0.0625,0.0,0.0,0.0
1664366027377,-0.46777344,-0.4013672,0.8027344,0.09375,-0.03125,0.125,-57.4375,-37.9375,-90.8125
1664366027380,-0.46972656,-0.38867188,0.7949219,0.09375,-0.03125,0.125,0.0,0.0,0.0
1664366027407,-0.46191406,-0.40429688,0.7949219,-0.03125,-0.3125,0.0625,0.0,0.0,0.0
1664366027467,-0.46875,-0.39941406,0.7861328,0.03125,-0.25,0.0,0.0,0.0,0.0
1664366027500,-0.4658203,-0.40429688,0.79589844,0.03125,0.09375,-0.125,0.0,0.0,0.0
1664366027527,-0.46191406,-0.39648438,0.7988281,0.09375,-0.15625,0.0,0.0,0.0,0.0
1664366027588,-0.46679688,-0.3984375,0.79785156,0.03125,-0.03125,-0.125,0.0,0.0,0.0
1664366027617,-0.46289062,-0.39257812,0.7919922,-0.03125,-0.15625,-0.4375,0.0,0.0,0.0
1664366027648,-0.46484375,-0.4091797,0.7890625,0.0625,0.1875,-0.21875,0.0,0.0,0.0
1664366027738,-0.46875,-0.39941406,0.78808594,-0.0625,-0.09375,-0.15625,0.0,0.0,0.0
1664366027743,-0.4814453,-0.40429688,0.78515625,0.0,0.25,-0.21875,0.0,0.0,0.0
1664366027767,-0.46875,-0.4013672,0.7949219,0.0625,0.125,-0.21875,0.0,0.0,0.0
1664366027856,-0.4638672,-0.3984375,0.80078125,-0.1875,0.0625,-0.03125,-57.125,-37.75,-90.625
1664366027858,-0.46289062,-0.40429688,0.78222656,0.0625,0.125,-0.09375,0.0,0.0,0.0
1664366027886,-0.47460938,-0.39941406,0.7988281,0.0,0.4375,-0.03125,0.0,0.0,0.0
1664366027945,-0.46679688,-0.40527344,0.7861328,0.0625,0.03125,0.03125,0.0,0.0,0.0
1664366027977,-0.46972656,-0.4033203,0.79003906,0.0,0.1875,-0.28125,0.0,0.0,0.0
1664366028005,-0.46972656,-0.39160156,0.7919922,0.25,0.1875,-0.15625,0.0,0.0,0.0
1664366028066,-0.4736328,-0.39941406,0.79785156,0.125,0.25,-0.21875,0.0,0.0,0.0
1664366028097,-0.46484375,-0.40429688,0.79785156,-0.125,0.125,-0.15625,0.0,0.0,0.0
1664366028127,-0.47851562,-0.40625,0.8017578,-0.0625,0.03125,-0.21875,0.0,0.0,0.0
1664366028186,-0.46679688,-0.3984375,0.7949219,0.0,0.0625,-0.34375,0.0,0.0,0.0
1664366028217,-0.46191406,-0.39257812,0.796875,0.0,0.25,-0.34375,0.0,0.0,0.0
1664366028247,-0.46484375,-0.40429688,0.79296875,0.0,0.0625,0.15625,0.0,0.0,0.0
1664366028306,-0.46777344,-0.4033203,0.7939453,-0.0625,0.125,-0.28125,0.0,0.0,0.0
1664366028337,-0.47070312,-0.40234375,0.7919922,0.0625,0.03125,-0.34375,-58.8125,-35.8125,-91.875
1664366028367,-0.4716797,-0.3935547,0.7939453,0.0,0.125,-0.03125,0.0,0.0,0.0
1664366028427,-0.46289062,-0.40429688,0.8105469,0.1875,-0.21875,-0.03125,0.0,0.0,0.0
1664366028459,-0.47070312,-0.4013672,0.79003906,0.0625,0.3125,-0.09375,0.0,0.0,0.0
1664366028488,-0.47460938,-0.40234375,0.7871094,0.0,0.0625,-0.03125,0.0,0.0,0.0
1664366028547,-0.45898438,-0.3984375,0.8027344,-0.1875,0.1875,-0.03125,0.0,0.0,0.0
1664366028577,-0.4638672,-0.39941406,0.7910156,0.1875,0.125,-0.21875,0.0,0.0,0.0
1664366028608,-0.46777344,-0.4013672,0.80078125,-0.0625,0.0625,-0.28125,0.0,0.0,0.0
1664366028666,-0.4580078,-0.4033203,0.7939453,0.0,0.03125,-0.15625,0.0,0.0,0.0
1664366028699,-0.45507812,-0.39746094,0.79785156,-0.0625,0.0625,-0.09375,0.0,0.0,0.0
1664366028727,-0.4609375,-0.39648438,0.7890625,0.0,0.125,0.03125,0.0,0.0,0.0
1664366028786,-0.4638672,-0.40722656,0.79003906,-0.1875,-0.15625,-0.09375,0.0,0.0,0.0
1664366028817,-0.46484375,-0.39453125,0.8046875,0.0,0.125,-0.03125,0.0,0.0,0.0
1664366028847,-0.46972656,-0.40234375,0.8076172,-0.0625,-0.09375,-0.09375,-57.875,-37.3125,-90.1875
1664366028907,-0.46875,-0.40039062,0.78222656,-0.25,-0.09375,-0.03125,0.0,0.0,0.0
1664366028938,-0.4716797,-0.40039062,0.7988281,-0.0625,0.125,-0.03125,0.0,0.0,0.0
1664366028968,-0.4736328,-0.40527344,0.8105469,0.0,-0.15625,0.21875,0.0,0.0,0.0
1664366029027,-0.4716797,-0.4013672,0.7949219,-0.34375,-0.28125,-0.03125,0.0,0.0,0.0
1664366029058,-0.46777344,-0.40039062,0.7861328,-0.1875,-0.09375,0.03125,0.0,0.0,0.0
1664366029118,-0.47851562,-0.39941406,0.7783203,-0.0625,-0.34375,0.09375,0.0,0.0,0.0
1664366029146,-0.47753906,-0.40429688,0.80078125,-0.0625,-0.15625,0.09375,0.0,0.0,0.0
1664366029177,-0.46777344,-0.4013672,0.8017578,-0.125,-0.34375,0.28125,0.0,0.0,0.0
1664366029206,-0.46875,-0.4033203,0.79589844,-0.25,-0.15625,0.21875,0.0,0.0,0.0
1664366029268,-0.45703125,-0.40039062,0.8027344,-0.28125,-0.28125,0.4375,0.0,0.0,0.0
1664366029296,-0.46972656,-0.39746094,0.7919922,-0.28125,-0.65625,0.34375,0.0,0.0,0.0
1664366029327,-0.46191406,-0.40527344,0.79003906,-0.0625,-0.28125,0.34375,-57.125,-35.5,-89.875
1664366029387,-0.47265625,-0.39941406,0.79296875,0.0625,-0.15625,0.40625,0.0,0.0,0.0
1664366029416,-0.46875,-0.39941406,0.80078125,-0.1875,-0.03125,-0.09375,0.0,0.0,0.0
1664366029446,-0.4560547,-0.39746094,0.79003906,0.0,-0.03125,0.21875,0.0,0.0,0.0
1664366029506,-0.4736328,-0.39453125,0.7949219,-0.0625,-0.03125,0.09375,0.0,0.0,0.0
1664366029542,-0.47070312,-0.40039062,0.78222656,-0.0625,-0.03125,-0.46875,0.0,0.0,0.0
1664366029568,-0.46972656,-0.39746094,0.80078125,0.1875,0.125,-0.46875,0.0,0.0,0.0
1664366029628,-0.46289062,-0.40429688,0.7919922,0.0625,0.125,-0.21875,0.0,0.0,0.0
1664366029658,-0.45410156,-0.40527344,0.80566406,-0.125,0.03125,-0.09375,0.0,0.0,0.0
1664366029687,-0.47851562,-0.40039062,0.8027344,-0.0625,0.03125,-0.15625,0.0,0.0,0.0
1664366029747,-0.4716797,-0.4111328,0.80371094,-0.1875,0.03125,-0.40625,0.0,0.0,0.0
1664366029778,-0.4638672,-0.39746094,0.79589844,0.1875,0.3125,-0.46875,0.0,0.0,0.0
1664366029806,-0.46679688,-0.3935547,0.8017578,0.0,0.125,-0.28125,0.0,0.0,0.0
1664366029867,-0.45507812,-0.4013672,0.8076172,0.0,0.03125,-0.15625,-57.875,-37.75,-89.625
1664366029897,-0.46777344,-0.40429688,0.7919922,0.0,0.3125,-0.53125,0.0,0.0,0.0
1664366029927,-0.47460938,-0.4013672,0.78222656,0.1875,0.375,-0.15625,0.0,0.0,0.0
1664366029987,-0.47070312,-0.40429688,0.8066406,0.0,0.3125,0.09375,0.0,0.0,0.0
1664366030017,-0.46875,-0.40039062,0.8095703,-0.1875,-0.03125,0.03125,0.0,0.0,0.0
1664366030047,-0.4716797,-0.40625,0.7871094,0.0,0.3125,-0.34375,0.0,0.0,0.0
1664366030107,-0.46875,-0.40625,0.7998047,0.3125,0.3125,-0.53125,0.0,0.0,0.0
1664366030137,-0.46484375,-0.39746094,0.7919922,0.125,0.375,-0.40625,0.0,0.0,0.0
1664366030171,-0.4609375,-0.4033203,0.80078125,0.0,0.3125,-0.03125,0.0,0.0,0.0
1664366030228,-0.46289062,-0.40039062,0.78808594,-0.25,0.0625,-0.09375,0.0,0.0,0.0
1664366030259,-0.4736328,-0.40820312,0.79589844,0.0,0.125,-0.40625,0.0,0.0,0.0
1664366030286,-0.47265625,-0.40039062,0.7890625,0.1875,0.25,-0.21875,0.0,0.0,0.0
1664366030348,-0.46777344,-0.4091797,0.80566406,0.0625,0.125,-0.28125,-57.0,-38.1875,-89.75
1664366030377,-0.46777344,-0.3984375,0.79003906,0.0,0.25,-0.09375,0.0,0.0,0.0
1664366030408,-0.4736328,-0.39453125,0.8027344,0.25,0.3125,0.03125,0.0,0.0,0.0
1664366030466,-0.46484375,-0.40429688,0.80859375,0.0,0.03125,-0.46875,0.0,0.0,0.0
1664366030530,-0.46875,-0.3984375,0.79785156,0.1875,0.125,-0.53125,0.0,0.0,0.0
1664366030533,-0.46875,-0.39257812,0.8066406,-0.1875,0.03125,-0.15625,0.0,0.0,0.0
1664366030587,-0.47070312,-0.4091797,0.80078125,-0.125,0.03125,0.03125,0.0,0.0,0.0
1664366030617,-0.46777344,-0.4033203,0.7998047,0.0,0.1875,-0.15625,0.0,0.0,0.0
1664366030647,-0.47558594,-0.40039062,0.7890625,0.0,0.25,0.03125,0.0,0.0,0.0
1664366030708,-0.47070312,-0.40527344,0.7910156,-0.125,0.03125,-0.03125,0.0,0.0,0.0
1664366030737,-0.45507812,-0.39648438,0.7919922,0.125,0.25,-0.34375,0.0,0.0,0.0
1664366030766,-0.4638672,-0.39941406,0.80859375,0.125,0.375,-0.15625,0.0,0.0,0.0
1664366030828,-0.46289062,-0.39648438,0.7763672,0.0,0.0625,-0.03125,0.0,0.0,0.0
1664366030858,-0.46875,-0.40625,0.8095703,-0.0625,0.03125,-0.03125,-58.0625,-36.875,-89.75
1664366030887,-0.45996094,-0.40234375,0.8046875,-0.0625,0.125,-0.40625,0.0,0.0,0.0
1664366030947,-0.4716797,-0.3955078,0.77246094,-0.0625,0.125,-0.34375,0.0,0.0,0.0
1664366030978,-0.46875,-0.3935547,0.7949219,-0.0625,-0.03125,-0.03125,0.0,0.0,0.0
1664366031008,-0.4658203,-0.4013672,0.7939453,-0.28125,0.03125,-0.03125,0.0,0.0,0.0
1664366031066,-0.47070312,-0.40625,0.7939453,-0.0625,0.03125,-0.03125,0.0,0.0,0.0
1664366031098,-0.46777344,-0.39941406,0.78515625,0.0,0.375,-0.40625,0.0,0.0,0.0
1664366031126,-0.46875,-0.40429688,0.79785156,0.1875,0.0625,0.09375,0.0,0.0,0.0
1664366031186,-0.46679688,-0.40722656,0.79296875,-0.28125,-0.15625,0.28125,0.0,0.0,0.0
1664366031217,-0.46777344,-0.40429688,0.8017578,-0.1875,0.0625,-0.03125,0.0,0.0,0.0
1664366031247,-0.46679688,-0.4013672,0.78515625,-0.0625,0.03125,-0.09375,0.0,0.0,0.0
1664366031307,-0.45703125,-0.39648438,0.78808594,0.0,-0.09375,0.03125,0.0,0.0,0.0
1664366031337,-0.47265625,-0.40527344,0.7861328,-0.28125,-0.15625,0.09375,-57.0,-36.125,-90.0625
1664366031397,-0.4638672,-0.4013672,0.79003906,-0.25,-0.21875,0.09375,0.0,0.0,0.0
1664366031427,-0.46777344,-0.4013672,0.796875,-0.34375,-0.09375,0.21875,0.0,0.0,0.0
1664366031457,-0.46972656,-0.40527344,0.78125,-0.125,-0.15625,0.09375,0.0,0.0,0.0
1664366031487,-0.47460938,-0.39648438,0.79003906,-0.1875,-0.03125,0.21875,0.0,0.0,0.0
1664366031549,-0.46777344,-0.39941406,0.7988281,-0.125,-0.09375,0.34375,0.0,0.0,0.0
1664366031579,-0.46777344,-0.40429688,0.79589844,-0.1875,-0.125,0.3125,0.0,0.0,0.0
1664366031607,-0.47070312,-0.390625,0.79589844,0.0,-0.25,0.125,0.0,0.0,0.0
1664366031666,-0.46972656,-0.3984375,0.7949219,0.0,-0.3125,0.0,0.0,0.0,0.0
1664366031700,-0.46679688,-0.39648438,0.7861328,0.0625,0.125,-0.125,0.0,0.0,0.0
1664366031728,-0.45703125,-0.39941406,0.7949219,-0.0625,-0.375,0.125,0.0,0.0,0.0
1664366031786,-0.4736328,-0.4013672,0.79589844,-0.125,0.1875,0.0625,0.0,0.0,0.0
1664366031817,-0.45996094,-0.40234375,0.79589844,0.0,-0.375,0.0,0.0,0.0,0.0
1664366031848,-0.46679688,-0.4013672,0.79785156,0.1875,0.25,-0.1875,-58.5,-36.875,-90.8125
1664366031909,-0.4638672,-0.39941406,0.8076172,0.25,0.0,-0.0625,0.0,0.0,0.0
1664366031936,-0.4716797,-0.39941406,0.80371094,0.1875,-0.0625,-0.25,0.0,0.0,0.0
1664366031967,-0.4638672,-0.39648438,0.8125,0.25,0.125,-0.40625,0.0,0.0,0.0
1664366032027,-0.45898438,-0.40429688,0.7988281,0.25,0.1875,-0.46875,0.0,0.0,0.0
1664366032057,-0.47460938,-0.40429688,0.80371094,0.3125,0.0625,-0.1875,0.0,0.0,0.0
1664366032088,-0.47265625,-0.39941406,0.7910156,0.0,-0.125,-0.1875,0.0,0.0,0.0
1664366032147,-0.46679688,-0.40625,0.7939453,0.125,0.1875,-0.40625,0.0,0.0,0.0
1664366032177,-0.46875,-0.3984375,0.7988281,0.25,0.4375,-0.28125,0.0,0.0,0.0
1664366032207,-0.4736328,-0.3955078,0.8027344,0.25,0.125,-0.125,0.0,0.0,0.0
1664366032267,-0.4638672,-0.4013672,0.7890625,0.0,-0.125,-0.125,0.0,0.0,0.0
1664366032299,-0.46972656,-0.4033203,0.8027344,0.25,0.3125,-0.34375,0.0,0.0,0.0
1664366032327,-0.46484375,-0.38476562,0.79785156,0.25,0.25,-0.40625,-57.75,-36.875,-90.8125
1664366032387,-0.46484375,-0.4033203,0.7939453,0.0625,0.0625,-0.28125,0.0,0.0,0.0
1664366032416,-0.4716797,-0.39257812,0.8046875,0.0625,0.25,-0.125,0.0,0.0,0.0
1664366032447,-0.46484375,-0.3984375,0.78515625,0.0,-0.125,0.0625,0.0,0.0,0.0
1664366032477,-0.4736328,-0.39941406,0.80566406,0.0625,0.0625,-0.25,0.0,0.0,0.0
1664366032537,-0.47460938,-0.3984375,0.7998047,0.0625,0.0,-0.28125,0.0,0.0,0.0
1664366032566,-0.47460938,-0.40234375,0.7890625,0.125,0.4375,-0.125,0.0,0.0,0.0
1664366032597,-0.46289062,-0.40820312,0.78515625,0.3125,-0.0625,0.125,0.0,0.0,0.0
1664366032658,-0.46679688,-0.39941406,0.79785156,0.0,-0.125,-0.1875,0.0,0.0,0.0
1664366032689,-0.4716797,-0.40527344,0.7792969,0.1875,0.25,-0.34375,0.0,0.0,0.0
1664366032718,-0.45996094,-0.3984375,0.7910156,0.0625,0.0,-0.1875,0.0,0.0,0.0
1664366032778,-0.47070312,-0.3955078,0.7998047,0.0625,-0.125,0.0,0.0,0.0,0.0
1664366032806,-0.46777344,-0.4013672,0.7871094,-0.125,-0.125,-0.0625,0.0,0.0,0.0
1664366032867,-0.46972656,-0.4013672,0.7919922,-0.0625,0.0,-0.1875,-57.75,-37.1875,-90.8125
1664366032898,-0.46484375,-0.41015625,0.78222656,0.0,0.0625,0.0,0.0,0.0,0.0
1664366032926,-0.46777344,-0.39648438,0.79003906,0.1875,-0.0625,-0.0625,0.0,0.0,0.0
1664366032957,-0.453125,-0.4091797,0.7919922,0.0,0.0,0.0625,0.0,0.0,0.0
1664366033017,-0.47265625,-0.40039062,0.7871094,0.125,0.125,0.0,0.0,0.0,0.0
1664366033046,-0.46484375,-0.40039062,0.7988281,0.125,-0.125,0.0,0.0,0.0,0.0
1664366033076,-0.46875,-0.39453125,0.7910156,0.1875,0.0625,-0.1875,0.0,0.0,0.0
1664366033137,-0.4609375,-0.40234375,0.79589844,0.0625,0.0625,-0.125,0.0,0.0,0.0
1664366033167,-0.46972656,-0.40234375,0.7861328,0.0,-0.0625,-0.0625,0.0,0.0,0.0
1664366033196,-0.47265625,-0.39746094,0.8017578,0.0,-0.0625,-0.0625,0.0,0.0,0.0
1664366033257,-0.47265625,-0.3984375,0.80859375,-0.0625,-0.125,-0.125,0.0,0.0,0.0
1664366033287,-0.4638672,-0.40722656,0.796875,0.0625,0.0,-0.1875,0.0,0.0,0.0
1664366033347,-0.4580078,-0.40722656,0.79589844,0.125,0.1875,0.0625,-57.0,-36.125,-89.0
1664366033379,-0.46777344,-0.3955078,0.79589844,0.0,-0.1875,0.1875,0.0,0.0,0.0
1664366033407,-0.47070312,-0.3955078,0.8125,-0.1875,-0.3125,0.125,0.0,0.0,0.0
1664366033437,-0.46777344,-0.4033203,0.8095703,0.0625,0.1875,0.0625,0.0,0.0,0.0
1664366033498,-0.46679688,-0.3955078,0.8017578,0.0,-0.25,0.1875,0.0,0.0,0.0
1664366033528,-0.46289062,-0.39453125,0.79296875,0.0625,-0.0625,0.3125,0.0,0.0,0.0
1664366033557,-0.46972656,-0.40234375,0.79003906,-0.375,-0.375,0.1875,0.0,0.0,0.0
1664366033617,-0.47070312,-0.40527344,0.7861328,-0.4375,-0.1875,0.3125,0.0,0.0,0.0
1664366033678,-0.47070312,-0.39941406,0.7919922,-0.0625,-0.25,0.1875,0.0,0.0,0.0
1664366033681,-0.4716797,-0.39941406,0.7988281,-0.1875,-0.0625,0.125,0.0,0.0,0.0
1664366033737,-0.47070312,-0.39746094,0.79296875,-0.25,-0.25,0.375,0.0,0.0,0.0
1664366033767,-0.47070312,-0.40429688,0.7998047,-0.25,-0.375,0.375,0.0,0.0,0.0
1664366033797,-0.46679688,-0.39746094,0.7841797,-0.0625,-0.25,0.1875,0.0,0.0,0.0
1664366033859,-0.46679688,-0.39257812,0.7890625,-0.125,-0.1875,0.375,-58.0625,-36.4375,-90.8125
1664366033887,-0.46972656,-0.4111328,0.7919922,0.0,-0.375,0.3125,0.0,0.0,0.0
1664366033917,-0.47070312,-0.40039062,0.7939453,-0.1875,-0.0625,0.25,0.0,0.0,0.0
1664366033978,-0.47558594,-0.40820312,0.8076172,0.0,-0.3125,0.1875,0.0,0.0,0.0
1664366034008,-0.4716797,-0.4033203,0.796875,-0.1875,-0.375,0.0625,0.0,0.0,0.0
1664366034037,-0.46777344,-0.3984375,0.79296875,-0.0625,-0.1875,0.0,0.0,0.0,0.0
1664366034098,-0.46777344,-0.4033203,0.7949219,0.0625,0.375,-0.0625,0.0,0.0,0.0
1664366034129,-0.47558594,-0.39453125,0.7949219,0.0625,-0.25,0.0625,0.0,0.0,0.0
1664366034157,-0.4609375,-0.4033203,0.796875,0.0,-0.0625,-0.34375,0.0,0.0,0.0
1664366034218,-0.46777344,-0.40039062,0.7949219,0.21875,0.40625,-0.40625,0.0,0.0,0.0
1664366034247,-0.4638672,-0.39648438,0.79003906,0.34375,0.09375,-0.21875,0.0,0.0,0.0
1664366034277,-0.46875,-0.39941406,0.8046875,0.03125,0.03125,-0.34375,0.0,0.0,0.0
1664366034338,-0.4716797,-0.4013672,0.7949219,0.09375,0.53125,-0.59375,-57.625,-35.5,-89.125
1664366034368,-0.45996094,-0.4013672,0.8076172,0.15625,0.40625,-0.46875,0.0,0.0,0.0
1664366034427,-0.46972656,-0.39648438,0.81152344,0.09375,0.21875,-0.34375,0.0,0.0,0.0
1664366034456,-0.4736328,-0.39941406,0.7910156,0.15625,0.28125,-0.46875,0.0,0.0,0.0
1664366034488,-0.46777344,-0.3984375,0.7998047,0.34375,0.46875,-0.53125,0.0,0.0,0.0
1664366034517,-0.47070312,-0.39648438,0.80371094,0.21875,0.28125,-0.28125,0.0,0.0,0.0
1664366034578,-0.4609375,-0.39257812,0.7949219,0.09375,0.09375,-0.15625,0.0,0.0,0.0
1664366034607,-0.47070312,-0.39648438,0.8027344,0.03125,0.40625,-0.34375,0.0,0.0,0.0
1664366034697,-0.48242188,-0.4013672,0.7919922,0.28125,0.21875,-0.34375,0.0,0.0,0.0
1664366034699,-0.4716797,-0.39746094,0.7910156,0.40625,0.34375,-0.53125,0.0,0.0,0.0
1664366034727,-0.47460938,-0.4013672,0.8076172,0.15625,0.21875,-0.65625,0.0,0.0,0.0
1664366034816,-0.46777344,-0.39746094,0.8046875,0.21875,0.34375,-0.21875,0.0,0.0,0.0
1664366034818,-0.46289062,-0.39257812,0.7861328,-0.09375,0.15625,-0.09375,0.0,0.0,0.0
1664366034848,-0.46191406,-0.39941406,0.7939453,0.15625,0.09375,-0.15625,-57.75,-36.4375,-89.4375
1664366034878,-0.4765625,-0.40429688,0.8144531,0.09375,0.09375,-0.15625,0.0,0.0,0.0
1664366034967,-0.46972656,-0.39941406,0.79296875,0.21875,0.34375,-0.34375,0.0,0.0,0.0
1664366034976,-0.46777344,-0.39453125,0.78515625,0.21875,0.21875,-0.46875,0.0,0.0,0.0
1664366034998,-0.46484375,-0.4013672,0.8017578,0.15625,0.03125,-0.09375,0.0,0.0,0.0
1664366035056,-0.4794922,-0.39746094,0.80078125,0.21875,0.21875,-0.28125,0.0,0.0,0.0
1664366035088,-0.46679688,-0.40039062,0.78515625,0.09375,0.21875,-0.34375,0.0,0.0,0.0
1664366035118,-0.46289062,-0.40234375,0.78125,-0.03125,-0.15625,-0.03125,0.0,0.0,0.0
1664366035176,-0.4638672,-0.39648438,0.796875,-0.09375,-0.09375,0.09375,0.0,0.0,0.0
1664366035208,-0.46972656,-0.39746094,0.79003906,-0.09375,-0.03125,-0.21875,0.0,0.0,0.0
1664366035237,-0.4765625,-0.39941406,0.8027344,0.03125,-0.03125,-0.15625,0.0,0.0,0.0
1664366035297,-0.46972656,-0.4013672,0.7910156,0.15625,0.03125,-0.28125,0.0,0.0,0.0
1664366035327,-0.46875,-0.40039062,0.79296875,0.03125,-0.15625,0.09375,-57.625,-35.9375,-90.1875
1664366035358,-0.47265625,-0.3955078,0.7910156,-0.09375,-0.15625,0.03125,0.0,0.0,0.0
1664366035417,-0.46972656,-0.4013672,0.7949219,0.03125,-0.03125,-0.21875,0.0,0.0,0.0
1664366035446,-0.46679688,-0.39648438,0.8066406,0.03125,-0.03125,-0.03125,0.0,0.0,0.0
1664366035477,-0.46484375,-0.39746094,0.79785156,0.03125,-0.28125,0.21875,0.0,0.0,0.0
1664366035537,-0.46289062,-0.4033203,0.7919922,-0.21875,-0.21875,0.21875,0.0,0.0,0.0
1664366035566,-0.46777344,-0.39648438,0.79003906,0.03125,0.03125,-0.03125,0.0,0.0,0.0
1664366035598,-0.4794922,-0.39941406,0.81933594,0.03125,-0.09375,0.09375,0.0,0.0,0.0
1664366035657,-0.4658203,-0.39453125,0.7998047,-0.03125,-0.40625,0.15625,0.0,0.0,0.0
1664366035688,-0.46679688,-0.40039062,0.796875,-0.21875,-0.03125,0.03125,0.0,0.0,0.0
1664366035719,-0.46679688,-0.3984375,0.796875,-0.15625,-0.34375,0.03125,0.0,0.0,0.0
1664366035778,-0.47558594,-0.39453125,0.796875,0.03125,-0.09375,0.03125,0.0,0.0,0.0
1664366035808,-0.4609375,-0.4013672,0.7949219,-0.03125,-0.15625,0.03125,0.0,0.0,0.0
1664366035838,-0.46484375,-0.39648438,0.79785156,-0.28125,-0.03125,0.34375,-57.625,-35.9375,-89.875
1664366035897,-0.46972656,-0.4013672,0.79003906,-0.03125,-0.34375,0.40625,0.0,0.0,0.0
1664366035957,-0.46679688,-0.39160156,0.79785156,0.03125,-0.28125,0.09375,0.0,0.0,0.0
1664366035960,-0.4658203,-0.39453125,0.78808594,0.03125,0.03125,-0.09375,0.0,0.0,0.0
1664366036018,-0.47265625,-0.4013672,0.78808594,0.09375,-0.03125,0.21875,0.0,0.0,0.0
1664366036046,-0.45898438,-0.3984375,0.78808594,0.28125,-0.34375,0.15625,0.0,0.0,0.0
1664366036076,-0.46679688,-0.40527344,0.8046875,-0.03125,0.09375,0.09375,0.0,0.0,0.0
1664366036138,-0.46777344,-0.39941406,0.79589844,0.15625,0.15625,-0.40625,0.0,0.0,0.0
1664366036166,-0.46777344,-0.40234375,0.796875,0.4375,0.28125,-0.34375,0.0,0.0,0.0
1664366036197,-0.46679688,-0.4013672,0.78125,0.09375,-0.28125,-0.09375,0.0,0.0,0.0
1664366036257,-0.46777344,-0.39453125,0.7832031,-0.15625,-0.03125,-0.15625,0.0,0.0,0.0
1664366036287,-0.4658203,-0.4033203,0.8027344,0.09375,0.28125,-0.53125,0.0,0.0,0.0
1664366036316,-0.47558594,-0.3984375,0.7939453,0.4375,-0.03125,-0.15625,-57.75,-36.4375,-90.8125
1664366036377,-0.4609375,-0.39648438,0.8017578,0.21875,0.15625,-0.34375,0.0,0.0,0.0
1664366036406,-0.4609375,-0.3984375,0.7832031,0.28125,0.40625,-0.34375,0.0,0.0,0.0
1664366036436,-0.46777344,-0.39160156,0.8017578,0.21875,0.09375,-0.28125,0.0,0.0,0.0
1664366036498,-0.47558594,-0.40234375,0.7861328,0.09375,0.28125,-0.53125,0.0,0.0,0.0
1664366036527,-0.46972656,-0.3955078,0.8027344,0.21875,0.15625,-0.28125,0.0,0.0,0.0
1664366036556,-0.46875,-0.3984375,0.7890625,0.03125,0.03125,-0.28125,0.0,0.0,0.0
1664366036618,-0.4716797,-0.3984375,0.7871094,-0.09375,0.03125,-0.28125,0.0,0.0,0.0
1664366036649,-0.46875,-0.39160156,0.8017578,0.09375,0.34375,-0.40625,0.0,0.0,0.0
1664366036706,-0.46875,-0.40039062,0.7919922,-0.03125,0.21875,-0.46875,0.0,0.0,0.0
1664366036737,-0.46972656,-0.39941406,0.80859375,0.28125,0.15625,-0.40625,0.0,0.0,0.0
1664366036766,-0.4609375,-0.3984375,0.7939453,0.15625,0.21875,-0.09375,0.0,0.0,0.0
1664366036797,-0.46972656,-0.3984375,0.7949219,0.09375,0.28125,-0.21875,0.0,0.0,0.0
1664366036858,-0.46289062,-0.39941406,0.7988281,0.15625,0.21875,-0.21875,-57.625,-35.9375,-89.125
1664366036887,-0.47070312,-0.3984375,0.79785156,0.09375,0.21875,-0.34375,0.0,0.0,0.0
1664366036918,-0.4736328,-0.3955078,0.8125,0.28125,0.09375,-0.15625,0.0,0.0,0.0
1664366036977,-0.47753906,-0.390625,0.8046875,0.03125,0.03125,-0.15625,0.0,0.0,0.0
1664366037007,-0.45996094,-0.40429688,0.7861328,0.09375,0.34375,-0.28125,0.0,0.0,0.0
1664366037037,-0.47460938,-0.39648438,0.79296875,0.34375,0.15625,-0.09375,0.0,0.0,0.0
1664366037098,-0.46972656,-0.39160156,0.80078125,-0.09375,-0.09375,-0.03125,0.0,0.0,0.0
1664366037128,-0.47851562,-0.3984375,0.79785156,0.15625,0.28125,-0.21875,0.0,0.0,0.0
1664366037157,-0.47265625,-0.39746094,0.796875,-0.03125,-0.03125,-0.34375,0.0,0.0,0.0
1664366037220,-0.4638672,-0.3984375,0.8017578,0.21875,0.15625,-0.34375,0.0,0.0,0.0
1664366037246,-0.4609375,-0.3955078,0.79296875,0.03125,-0.03125,-0.15625,0.0,0.0,0.0
1664366037278,-0.47460938,-0.40429688,0.7832031,-0.15625,-0.09375,0.03125,0.0,0.0,0.0
1664366037338,-0.46777344,-0.4091797,0.8027344,-0.09375,-0.21875,0.09375,-58.375,-35.1875,-91.6875
1664366037367,-0.47070312,-0.39453125,0.796875,0.09375,0.21875,-0.15625,0.0,0.0,0.0
1664366037397,-0.47265625,-0.40722656,0.8105469,-0.03125,-0.09375,-0.03125,0.0,0.0,0.0
1664366037456,-0.47265625,-0.40234375,0.8125,0.03125,-0.21875,-0.03125,0.0,0.0,0.0
1664366037488,-0.46972656,-0.4013672,0.80371094,0.03125,-0.15625,0.09375,0.0,0.0,0.0
1664366037517,-0.46875,-0.39941406,0.79003906,-0.28125,-0.09375,0.09375,0.0,0.0,0.0
1664366037578,-0.46972656,-0.3984375,0.7988281,-0.03125,-0.03125,0.03125,0.0,0.0,0.0
1664366037607,-0.46484375,-0.39160156,0.796875,-0.21875,-0.09375,0.21875,0.0,0.0,0.0
1664366037638,-0.47265625,-0.39746094,0.7939453,0.03125,-0.03125,0.15625,0.0,0.0,0.0
1664366037697,-0.46679688,-0.40234375,0.8017578,-0.09375,-0.34375,0.09375,0.0,0.0,0.0
1664366037728,-0.47070312,-0.39453125,0.79589844,-0.09375,-0.09375,0.03125,0.0,0.0,0.0
1664366037787,-0.47265625,-0.4013672,0.80371094,-0.03125,-0.71875,0.21875,0.0,0.0,0.0
1664366037816,-0.46484375,-0.40820312,0.796875,-0.46875,-0.28125,-0.03125,0.0,0.0,0.0
1664366037847,-0.4638672,-0.3935547,0.7939453,0.15625,0.15625,0.03125,-59.375,-36.6875,-89.875
1664366037879,-0.46289062,-0.40820312,0.79785156,-0.21875,-0.28125,0.21875,0.0,0.0,0.0
1664366037936,-0.46679688,-0.3955078,0.7890625,-0.09375,-0.21875,0.21875,0.0,0.0,0.0
1664366037968,-0.46289062,-0.4013672,0.7949219,-0.15625,-0.28125,-0.03125,0.0,0.0,0.0
1664366037997,-0.47851562,-0.40429688,0.78808594,-0.03125,-0.03125,0.15625,0.0,0.0,0.0
1664366038056,-0.46777344,-0.40429688,0.78808594,-0.15625,-0.46875,0.28125,0.0,0.0,0.0
1664366038087,-0.47070312,-0.40527344,0.8076172,-0.15625,-0.15625,-0.15625,0.0,0.0,0.0
1664366038117,-0.46777344,-0.4033203,0.7919922,0.03125,-0.21875,-0.09375,0.0,0.0,0.0
1664366038177,-0.46679688,-0.40527344,0.7919922,0.15625,0.34375,-0.21875,0.0,0.0,0.0
1664366038237,-0.46875,-0.39746094,0.79589844,0.40625,-0.03125,-0.03125,0.0,0.0,0.0
1664366038239,-0.4638672,-0.39160156,0.79589844,0.15625,0.34375,-0.15625,0.0,0.0,0.0
1664366038297,-0.47851562,-0.39941406,0.79589844,0.21875,0.28125,-0.40625,0.0,0.0,0.0
1664366038327,-0.47265625,-0.39648438,0.7998047,0.03125,0.03125,-0.15625,-56.6875,-36.875,-90.5
1664366038358,-0.46875,-0.39648438,0.7939453,0.15625,0.28125,-0.28125,0.0,0.0,0.0
1664366038416,-0.46679688,-0.39648438,0.80859375,0.28125,0.21875,-0.21875,0.0,0.0,0.0
1664366038448,-0.47460938,-0.39746094,0.796875,0.09375,0.28125,-0.15625,0.0,0.0,0.0
1664366038478,-0.4736328,-0.4013672,0.8046875,0.09375,0.28125,-0.28125,0.0,0.0,0.0
1664366038538,-0.4736328,-0.4013672,0.7763672,0.09375,0.34375,-0.625,0.0,0.0,0.0
1664366038567,-0.47753906,-0.4013672,0.7939453,0.34375,0.53125,-0.4375,0.0,0.0,0.0
1664366038598,-0.46484375,-0.40722656,0.7988281,0.03125,0.03125,-0.21875,0.0,0.0,0.0
1664366038657,-0.46191406,-0.4033203,0.79296875,0.15625,0.53125,-0.15625,0.0,0.0,0.0
1664366038687,-0.47070312,-0.3984375,0.80078125,0.34375,0.53125,-0.15625,0.0,0.0,0.0
1664366038718,-0.46484375,-0.3955078,0.7998047,0.03125,-0.15625,-0.34375,0.0,0.0,0.0
1664366038778,-0.46777344,-0.4013672,0.8017578,-0.09375,0.65625,-0.6875,0.0,0.0,0.0
1664366038808,-0.4736328,-0.3984375,0.7910156,0.34375,0.15625,-0.40625,0.0,0.0,0.0
1664366038839,-0.4765625,-0.390625,0.7919922,0.09375,0.46875,-0.28125,-57.4375,-36.875,-91.125
1664366038898,-0.47265625,-0.39941406,0.8066406,-0.03125,0.21875,-0.15625,0.0,0.0,0.0
1664366038927,-0.47460938,-0.3955078,0.80371094,-0.03125,0.09375,-0.21875,0.0,0.0,0.0
1664366038990,-0.47070312,-0.3955078,0.7871094,0.15625,0.78125,0.03125,0.0,0.0,0.0
1664366039018,-0.46679688,-0.39160156,0.7919922,-0.03125,-0.15625,0.09375,0.0,0.0,0.0
1664366039046,-0.4716797,-0.3984375,0.7910156,0.21875,0.28125,-0.5,0.0,0.0,0.0
1664366039077,-0.4716797,-0.38964844,0.7861328,0.40625,0.15625,-0.4375,0.0,0.0,0.0
1664366039138,-0.46972656,-0.38964844,0.7783203,0.15625,-0.21875,-0.4375,0.0,0.0,0.0
1664366039167,-0.47265625,-0.39160156,0.8046875,0.21875,0.40625,0.03125,0.0,0.0,0.0
1664366039196,-0.47265625,-0.3955078,0.7998047,0.09375,-0.03125,-0.15625,0.0,0.0,0.0
1664366039258,-0.45898438,-0.3984375,0.78515625,0.15625,0.21875,-0.28125,0.0,0.0,0.0
1664366039287,-0.46875,-0.39257812,0.7939453,0.09375,0.15625,-0.15625,0.0,0.0,0.0
1664366039317,-0.4765625,-0.39746094,0.7871094,-0.09375,-0.28125,0.03125,-57.75,-36.4375,-90.5
1664366039378,-0.46972656,-0.39941406,0.8076172,0.09375,0.34375,-0.40625,0.0,0.0,0.0
1664366039408,-0.4765625,-0.40039062,0.8154297,0.09375,-0.03125,-0.34375,0.0,0.0,0.0
1664366039437,-0.4736328,-0.3984375,0.79589844,-0.375,0.03125,-0.09375,0.0,0.0,0.0
1664366039498,-0.47558594,-0.3984375,0.7998047,-0.03125,0.09375,0.21875,0.0,0.0,0.0
1664366039527,-0.47460938,-0.3935547,0.8017578,-0.09375,-0.15625,-0.21875,0.0,0.0,0.0
1664366039556,-0.4736328,-0.40039062,0.79785156,0.03125,0.03125,-0.03125,0.0,0.0,0.0
1664366039616,-0.4716797,-0.39746094,0.7861328,-0.03125,-0.15625,0.28125,0.0,0.0,0.0
1664366039647,-0.46777344,-0.40234375,0.7988281,-0.15625,-0.09375,0.03125,0.0,0.0,0.0
1664366039676,-0.46191406,-0.40234375,0.80566406,0.03125,0.34375,0.03125,0.0,0.0,0.0
1664366039739,-0.46191406,-0.40429688,0.79785156,-0.03125,-0.34375,0.28125,0.0,0.0,0.0
1664366039767,-0.47558594,-0.39648438,0.7949219,-0.15625,0.15625,-0.09375,0.0,0.0,0.0
1664366039797,-0.47558594,-0.40429688,0.7949219,0.03125,-0.21875,0.03125,0.0,0.0,0.0
1664366039858,-0.46875,-0.390625,0.79785156,-0.21875,-0.15625,0.03125,-56.5625,-36.25,-90.625
1664366039887,-0.47070312,-0.39453125,0.79785156,-0.09375,-0.09375,0.34375,0.0,0.0,0.0
1664366039919,-0.47460938,-0.4033203,0.7988281,-0.03125,0.03125,0.09375,0.0,0.0,0.0
1664366039977,-0.4716797,-0.39453125,0.7949219,0.03125,-0.4375,0.15625,0.0,0.0,0.0
1664366040007,-0.48046875,-0.39648438,0.8027344,-0.03125,0.15625,0.34375,0.0,0.0,0.0
1664366040036,-0.47851562,-0.3955078,0.79785156,0.03125,-0.5,0.15625,0.0,0.0,0.0
1664366040098,-0.47070312,-0.40039062,0.79296875,0.03125,-0.15625,-0.09375,0.0,0.0,0.0
1664366040127,-0.46777344,-0.3955078,0.7871094,0.03125,-0.03125,-0.03125,0.0,0.0,0.0
1664366040158,-0.4716797,-0.3984375,0.80371094,-0.15625,-0.03125,0.21875,0.0,0.0,0.0
1664366040217,-0.46777344,-0.39746094,0.80371094,0.03125,-0.03125,0.21875,0.0,0.0,0.0
1664366040248,-0.46972656,-0.4013672,0.79785156,-0.09375,0.03125,-0.15625,0.0,0.0,0.0
1664366040278,-0.47265625,-0.4013672,0.80566406,0.28125,0.21875,-0.40625,0.0,0.0,0.0
1664366040336,-0.48535156,-0.39648438,0.7890625,0.34375,0.21875,-0.40625,-57.875,-35.9375,-89.125
1664366040367,-0.46679688,-0.4013672,0.8046875,0.03125,0.03125,-0.21875,0.0,0.0,0.0
1664366040399,-0.46679688,-0.39941406,0.7998047,0.09375,0.21875,-0.34375,0.0,0.0,0.0
1664366040456,-0.46875,-0.4091797,0.79296875,0.03125,0.09375,-0.28125,0.0,0.0,0.0
1664366040518,-0.47070312,-0.3876953,0.80078125,0.28125,0.15625,-0.34375,0.0,0.0,0.0
1664366040520,-0.46484375,-0.40234375,0.796875,0.21875,0.21875,-0.15625,0.0,0.0,0.0
1664366040578,-0.4638672,-0.3955078,0.7871094,0.09375,0.21875,-0.21875,0.0,0.0,0.0
1664366040608,-0.46972656,-0.39941406,0.7949219,0.34375,0.34375,-0.15625,0.0,0.0,0.0
1664366040637,-0.46972656,-0.39941406,0.78027344,0.03125,0.09375,-0.28125,0.0,0.0,0.0
1664366040697,-0.46972656,-0.39746094,0.7792969,0.21875,0.34375,-0.4375,0.0,0.0,0.0
1664366040726,-0.47753906,-0.39648438,0.77246094,0.40625,0.40625,-0.5625,0.0,0.0,0.0
1664366040757,-0.46289062,-0.40039062,0.80566406,0.28125,0.21875,-0.4375,0.0,0.0,0.0
1664366040816,-0.46777344,-0.40429688,0.78125,0.03125,0.09375,-0.09375,0.0,0.0,0.0
1664366040849,-0.47070312,-0.40625,0.7910156,0.03125,0.09375,-0.15625,-58.625,-36.25,-89.875
1664366040877,-0.46972656,-0.4013672,0.7998047,0.09375,0.46875,-0.40625,0.0,0.0,0.0
1664366040936,-0.47851562,-0.39453125,0.79589844,0.21875,0.21875,-0.15625,0.0,0.0,0.0
1664366040967,-0.46777344,-0.3984375,0.8066406,-0.09375,0.09375,-0.09375,0.0,0.0,0.0
1664366040997,-0.47851562,-0.39746094,0.796875,-0.03125,0.03125,-0.15625,0.0,0.0,0.0
1664366041058,-0.47070312,-0.40625,0.78125,0.28125,0.40625,-0.28125,0.0,0.0,0.0
1664366041086,-0.46777344,-0.4033203,0.80078125,0.28125,0.15625,-0.28125,0.0,0.0,0.0
1664366041118,-0.46679688,-0.4033203,0.79589844,0.03125,0.21875,-0.09375,0.0,0.0,0.0
1664366041177,-0.46875,-0.40625,0.78808594,0.15625,0.15625,-0.15625,0.0,0.0,0.0
1664366041207,-0.47070312,-0.39453125,0.7832031,0.09375,0.09375,-0.09375,0.0,0.0,0.0
1664366041267,-0.4765625,-0.3984375,0.7841797,0.09375,0.28125,-0.21875,0.0,0.0,0.0
1664366041297,-0.47070312,-0.39257812,0.7910156,0.15625,0.34375,-0.34375,0.0,0.0,0.0
1664366041328,-0.46679688,-0.4013672,0.8095703,0.03125,0.03125,0.03125,-57.875,-35.1875,-89.625
1664366041357,-0.47558594,-0.40039062,0.796875,0.03125,0.03125,-0.15625,0.0,0.0,0.0
1664366041417,-0.47265625,-0.38867188,0.79296875,0.09375,-0.03125,-0.03125,0.0,0.0,0.0
1664366041447,-0.47265625,-0.40234375,0.78808594,0.03125,-0.03125,-0.5,0.0,0.0,0.0
1664366041478,-0.47558594,-0.3955078,0.7998047,0.40625,0.34375,-0.28125,0.0,0.0,0.0
1664366041537,-0.4765625,-0.40625,0.80859375,0.03125,0.03125,-0.03125,0.0,0.0,0.0
1664366041566,-0.4560547,-0.39941406,0.7861328,-0.15625,-0.15625,-0.09375,0.0,0.0,0.0
1664366041597,-0.46679688,-0.4033203,0.7998047,-0.15625,-0.03125,-0.09375,0.0,0.0,0.0
1664366041659,-0.4765625,-0.4013672,0.78027344,0.03125,0.03125,-0.21875,0.0,0.0,0.0
1664366041687,-0.46972656,-0.39648438,0.79296875,0.09375,0.03125,0.03125,0.0,0.0,0.0
1664366041718,-0.46777344,-0.3857422,0.7998047,-0.03125,-0.09375,0.15625,0.0,0.0,0.0
1664366041777,-0.47558594,-0.39746094,0.78125,-0.03125,-0.03125,0.03125,0.0,0.0,0.0
1664366041807,-0.4765625,-0.40039062,0.7861328,0.03125,-0.15625,0.03125,0.0,0.0,0.0
1664366041837,-0.4638672,-0.39648438,0.7871094,-0.15625,0.09375,0.03125,-57.125,-36.6875,-91.25
1664366041898,-0.46972656,-0.40039062,0.7890625,0.03125,-0.21875,0.09375,0.0,0.0,0.0
1664366041926,-0.47070312,-0.39648438,0.8066406,-0.15625,-0.15625,0.28125,0.0,0.0,0.0
1664366041959,-0.4736328,-0.39648438,0.7890625,-0.03125,-0.09375,0.21875,0.0,0.0,0.0
1664366042017,-0.46289062,-0.39746094,0.78808594,-0.03125,-0.21875,0.09375,0.0,0.0,0.0
1664366042046,-0.47070312,-0.3935547,0.78808594,0.09375,0.15625,0.15625,0.0,0.0,0.0
1664366042076,-0.46679688,-0.3935547,0.80566406,-0.03125,-0.28125,0.21875,0.0,0.0,0.0
