# Sensor type: Thingy
# Activity type: Sitting bent backward
# Activity code: 5
# Subject id: s1912575
# Notes: 
timestamp,accel_x,accel_y,accel_z,gyro_x,gyro_y,gyro_z,mag_x,mag_y,mag_z
1664896007164,-0.47070312,-0.6484375,0.58203125,0.0,0.15625,0.03125,0.0,0.0,0.0
1664896007194,-0.4765625,-0.6425781,0.58984375,1.0625,0.65625,0.59375,0.0,0.0,0.0
1664896007225,-0.49121094,-0.6357422,0.59277344,1.0,0.84375,0.84375,0.0,0.0,0.0
1664896007282,-0.47851562,-0.6357422,0.6044922,1.46875,0.40625,0.03125,-52.375,-35.375,-101.125
1664896007314,-0.50683594,-0.61621094,0.5986328,-0.0625,-0.875,0.0,0.0,0.0,0.0
1664896007344,-0.48632812,-0.62109375,0.58984375,-2.6875,-3.0,-1.40625,0.0,0.0,0.0
1664896007405,-0.47753906,-0.65722656,0.5683594,-3.84375,-2.28125,-0.75,0.0,0.0,0.0
1664896007434,-0.45410156,-0.65625,0.5732422,-7.9375,-0.75,-3.5625,0.0,0.0,0.0
1664896007465,-0.45214844,-0.70410156,0.5654297,5.8125,-4.46875,1.9375,0.0,0.0,0.0
1664896007524,-0.48339844,-0.6044922,0.625,10.625,-0.25,4.0,0.0,0.0,0.0
1664896007554,-0.47070312,-0.62402344,0.6152344,2.5,1.09375,-1.125,0.0,0.0,0.0
1664896007585,-0.49023438,-0.61816406,0.5986328,5.8125,-0.625,-1.53125,0.0,0.0,0.0
1664896007644,-0.484375,-0.6015625,0.59375,0.625,2.0,-0.5,0.0,0.0,0.0
1664896007676,-0.49121094,-0.6308594,0.59765625,-1.40625,-1.53125,-1.125,0.0,0.0,0.0
1664896007705,-0.47851562,-0.62890625,0.59277344,-0.78125,-1.65625,-1.25,0.0,0.0,0.0
1664896007763,-0.47265625,-0.63378906,0.60839844,-0.125,-1.78125,-0.625,-52.625,-34.0,-99.0625
1664896007794,-0.48828125,-0.6533203,0.61035156,-0.84375,-1.25,-1.1875,0.0,0.0,0.0
1664896007824,-0.4736328,-0.6425781,0.6064453,0.0,0.71875,-2.625,0.0,0.0,0.0
1664896007885,-0.46972656,-0.6435547,0.6064453,-1.875,0.28125,-1.84375,0.0,0.0,0.0
1664896007913,-0.47460938,-0.6435547,0.5917969,-1.6875,-0.5625,-1.34375,0.0,0.0,0.0
1664896007943,-0.48535156,-0.63964844,0.58691406,0.25,0.21875,-1.34375,0.0,0.0,0.0
1664896008004,-0.46679688,-0.6279297,0.59765625,-0.46875,-0.5,-1.34375,0.0,0.0,0.0
1664896008034,-0.47265625,-0.6357422,0.61328125,-1.03125,-0.0625,-0.0625,0.0,0.0,0.0
1664896008095,-0.47265625,-0.62890625,0.5917969,1.15625,-0.875,0.34375,0.0,0.0,0.0
1664896008124,-0.47265625,-0.62402344,0.5986328,0.3125,-0.0625,-0.0625,0.0,0.0,0.0
1664896008154,-0.4814453,-0.6347656,0.609375,-1.21875,-0.5625,-0.0625,0.0,0.0,0.0
1664896008184,-0.4658203,-0.63378906,0.6074219,-0.34375,-1.0,-0.75,0.0,0.0,0.0
1664896008244,-0.484375,-0.6347656,0.59472656,-0.1875,-0.25,-1.0,0.0,0.0,0.0
1664896008273,-0.4716797,-0.63671875,0.60839844,0.1875,-0.125,-0.3125,-52.0625,-35.375,-100.125
1664896008305,-0.4814453,-0.6357422,0.5996094,0.5625,0.03125,0.09375,0.0,0.0,0.0
1664896008365,-0.47265625,-0.6347656,0.59765625,0.25,-0.0625,0.03125,0.0,0.0,0.0
1664896008393,-0.4716797,-0.6376953,0.6035156,-0.40625,0.0,-0.1875,0.0,0.0,0.0
1664896008425,-0.4658203,-0.6308594,0.61035156,0.0625,-0.3125,0.03125,0.0,0.0,0.0
1664896008485,-0.4716797,-0.6357422,0.60839844,0.0,0.21875,0.15625,0.0,0.0,0.0
1664896008514,-0.47460938,-0.6357422,0.5996094,-0.1875,0.03125,0.21875,0.0,0.0,0.0
1664896008544,-0.47070312,-0.6435547,0.60546875,-0.34375,-0.0625,-0.0625,0.0,0.0,0.0
1664896008604,-0.47558594,-0.6386719,0.5830078,-0.125,0.03125,-0.0625,0.0,0.0,0.0
1664896008634,-0.4716797,-0.6357422,0.5966797,-0.0625,-0.5625,-0.3125,0.0,0.0,0.0
1664896008665,-0.47460938,-0.63964844,0.5996094,-0.28125,-0.5625,-0.3125,0.0,0.0,0.0
1664896008724,-0.46679688,-0.63671875,0.59277344,0.0625,-0.375,-0.3125,0.0,0.0,0.0
1664896008755,-0.47753906,-0.6435547,0.60546875,0.0625,-0.5,-0.25,-53.5625,-34.4375,-100.25
1664896008785,-0.48339844,-0.6376953,0.60839844,0.1875,-0.0625,0.03125,0.0,0.0,0.0
1664896008844,-0.47558594,-0.6386719,0.5966797,0.0625,-0.375,0.03125,0.0,0.0,0.0
1664896008874,-0.46679688,-0.63378906,0.6113281,0.375,-0.25,0.15625,0.0,0.0,0.0
1664896008904,-0.46777344,-0.6376953,0.59765625,0.0625,-0.375,-0.25,0.0,0.0,0.0
1664896008964,-0.46972656,-0.6386719,0.6044922,0.125,-0.125,-0.1875,0.0,0.0,0.0
1664896008993,-0.4794922,-0.6347656,0.6035156,0.0,0.09375,0.09375,0.0,0.0,0.0
1664896009022,-0.46972656,-0.6279297,0.609375,-0.125,-0.0625,0.03125,0.0,0.0,0.0
1664896009085,-0.46875,-0.63964844,0.59375,-0.28125,0.03125,0.03125,0.0,0.0,0.0
1664896009114,-0.46679688,-0.640625,0.5986328,0.125,-0.125,0.09375,0.0,0.0,0.0
1664896009143,-0.47753906,-0.63378906,0.6064453,0.25,0.0,0.34375,0.0,0.0,0.0
1664896009205,-0.47851562,-0.63964844,0.6113281,0.125,-0.0625,0.15625,0.0,0.0,0.0
1664896009235,-0.46777344,-0.6357422,0.5996094,-0.125,-0.0625,0.03125,0.0,0.0,0.0
1664896009264,-0.46875,-0.6376953,0.6035156,-0.40625,-0.125,0.21875,-51.75,-33.125,-100.6875
1664896009326,-0.4765625,-0.6357422,0.60546875,-0.125,-0.0625,0.15625,0.0,0.0,0.0
1664896009355,-0.45996094,-0.63671875,0.6074219,-0.21875,-0.1875,0.03125,0.0,0.0,0.0
1664896009384,-0.46777344,-0.6279297,0.59375,-0.34375,0.15625,0.15625,0.0,0.0,0.0
1664896009447,-0.46777344,-0.6328125,0.59765625,0.0,0.0,0.09375,0.0,0.0,0.0
1664896009475,-0.47460938,-0.6376953,0.58984375,-0.0625,0.09375,0.28125,0.0,0.0,0.0
1664896009504,-0.4794922,-0.63964844,0.6015625,0.0,0.03125,0.40625,0.0,0.0,0.0
1664896009566,-0.48339844,-0.6376953,0.59277344,0.0,0.09375,0.53125,0.0,0.0,0.0
1664896009596,-0.47558594,-0.6308594,0.60839844,0.4375,0.0,0.59375,0.0,0.0,0.0
1664896009624,-0.4794922,-0.6386719,0.5908203,-0.34375,-0.125,0.03125,0.0,0.0,0.0
1664896009686,-0.46972656,-0.63671875,0.60058594,-0.1875,-0.3125,0.0,0.0,0.0,0.0
1664896009714,-0.46679688,-0.62890625,0.5888672,-0.0625,-0.125,0.03125,0.0,0.0,0.0
1664896009744,-0.47265625,-0.63671875,0.60546875,0.0,0.03125,0.28125,-51.125,-34.4375,-101.0
1664896009804,-0.47265625,-0.63378906,0.6142578,-0.0625,-0.0625,0.21875,0.0,0.0,0.0
1664896009835,-0.46484375,-0.63183594,0.6015625,0.0625,0.09375,0.40625,0.0,0.0,0.0
1664896009865,-0.4765625,-0.63378906,0.60546875,0.0,0.03125,-0.0625,0.0,0.0,0.0
1664896009925,-0.47558594,-0.63183594,0.6123047,0.0,-0.25,-0.25,0.0,0.0,0.0
1664896009954,-0.4716797,-0.6347656,0.6035156,-0.125,-0.1875,-0.375,0.0,0.0,0.0
1664896009985,-0.46875,-0.6376953,0.6044922,0.0,-0.4375,-0.25,0.0,0.0,0.0
1664896010045,-0.4814453,-0.6376953,0.6064453,-0.1875,-0.375,-0.1875,0.0,0.0,0.0
1664896010074,-0.46875,-0.63671875,0.5996094,-0.21875,0.03125,-0.125,0.0,0.0,0.0
1664896010104,-0.4765625,-0.6308594,0.6044922,0.125,0.15625,-0.0625,0.0,0.0,0.0
1664896010164,-0.4716797,-0.6328125,0.59765625,-0.21875,-0.5,-0.125,0.0,0.0,0.0
1664896010195,-0.4794922,-0.62597656,0.5986328,-0.0625,0.09375,0.03125,0.0,0.0,0.0
1664896010225,-0.47265625,-0.6376953,0.59277344,-0.1875,-0.1875,0.03125,0.0,0.0,0.0
1664896010283,-0.47753906,-0.6328125,0.5917969,0.4375,-0.3125,-0.3125,-52.0625,-35.0625,-100.125
1664896010316,-0.47558594,-0.6279297,0.5878906,0.1875,-0.375,-0.625,0.0,0.0,0.0
1664896010373,-0.46679688,-0.6298828,0.60058594,-0.21875,-0.25,-0.4375,0.0,0.0,0.0
1664896010404,-0.47558594,-0.63671875,0.59765625,-0.1875,-0.1875,-0.3125,0.0,0.0,0.0
1664896010435,-0.46972656,-0.6298828,0.60253906,-0.0625,0.0,-0.0625,0.0,0.0,0.0
1664896010463,-0.46875,-0.6347656,0.60253906,-0.28125,-0.1875,-0.0625,0.0,0.0,0.0
1664896010524,-0.46679688,-0.63671875,0.60839844,-0.0625,-0.3125,-0.25,0.0,0.0,0.0
1664896010554,-0.4658203,-0.63671875,0.60058594,-0.1875,-0.1875,-0.3125,0.0,0.0,0.0
1664896010586,-0.47070312,-0.6386719,0.59277344,-0.125,-0.4375,-0.3125,0.0,0.0,0.0
1664896010644,-0.47753906,-0.6386719,0.5986328,-0.0625,-0.0625,-0.3125,0.0,0.0,0.0
1664896010676,-0.4765625,-0.63671875,0.6035156,0.3125,0.0,-0.1875,0.0,0.0,0.0
1664896010704,-0.46679688,-0.640625,0.60253906,-0.21875,-0.1875,-0.375,0.0,0.0,0.0
1664896010764,-0.47070312,-0.6376953,0.60546875,-0.125,-0.3125,-0.4375,-50.875,-35.8125,-101.125
1664896010795,-0.46875,-0.64160156,0.60546875,0.0,0.09375,-0.3125,0.0,0.0,0.0
1664896010824,-0.46777344,-0.62597656,0.60253906,0.0,-0.0625,-0.125,0.0,0.0,0.0
1664896010883,-0.4638672,-0.640625,0.60058594,-0.28125,-0.25,-0.125,0.0,0.0,0.0
1664896010917,-0.47851562,-0.6376953,0.5917969,0.125,0.0,0.15625,0.0,0.0,0.0
1664896010944,-0.46679688,-0.6376953,0.58984375,-0.0625,-0.125,-0.0625,0.0,0.0,0.0
1664896011003,-0.46875,-0.640625,0.5917969,0.125,-0.3125,-0.3125,0.0,0.0,0.0
1664896011038,-0.47460938,-0.63671875,0.59375,-0.1875,-0.375,-0.625,0.0,0.0,0.0
1664896011064,-0.47265625,-0.6386719,0.6035156,-0.21875,0.0,-0.4375,0.0,0.0,0.0
1664896011124,-0.47460938,-0.6455078,0.6015625,-0.21875,-0.1875,-0.25,0.0,0.0,0.0
1664896011154,-0.46679688,-0.63378906,0.60058594,0.0,0.03125,0.0,0.0,0.0,0.0
1664896011184,-0.47460938,-0.6455078,0.5996094,-0.1875,0.09375,-0.125,0.0,0.0,0.0
1664896011243,-0.47070312,-0.6298828,0.58984375,-0.0625,-0.25,-0.0625,0.0,0.0,0.0
1664896011275,-0.47851562,-0.640625,0.58691406,-0.125,-0.125,-0.0625,-52.5,-34.4375,-100.25
1664896011304,-0.47460938,-0.63964844,0.6035156,0.0625,0.03125,-0.0625,0.0,0.0,0.0
1664896011364,-0.47558594,-0.63183594,0.60253906,0.125,-0.0625,-0.3125,0.0,0.0,0.0
1664896011393,-0.46484375,-0.6386719,0.6064453,-0.0625,-0.0625,-0.3125,0.0,0.0,0.0
1664896011424,-0.46875,-0.63671875,0.6015625,0.125,-0.25,-0.0625,0.0,0.0,0.0
1664896011485,-0.46972656,-0.63378906,0.60546875,0.0,0.03125,0.0,0.0,0.0,0.0
1664896011513,-0.46972656,-0.6308594,0.609375,0.0,0.09375,0.21875,0.0,0.0,0.0
1664896011545,-0.4736328,-0.6347656,0.6123047,-0.1875,0.15625,0.34375,0.0,0.0,0.0
1664896011603,-0.47265625,-0.6357422,0.61328125,-0.0625,-0.125,-0.0625,0.0,0.0,0.0
1664896011634,-0.4736328,-0.6435547,0.5878906,-0.28125,-0.125,0.09375,0.0,0.0,0.0
1664896011667,-0.46875,-0.6376953,0.60839844,-0.125,0.15625,0.40625,0.0,0.0,0.0
1664896011725,-0.4716797,-0.63378906,0.5996094,0.0,-0.3125,0.28125,0.0,0.0,0.0
1664896011753,-0.46875,-0.6308594,0.5957031,-0.1875,-0.1875,-0.0625,-53.125,-34.0,-100.125
1664896011784,-0.4638672,-0.6425781,0.6064453,-0.125,-0.1875,0.0,0.0,0.0,0.0
1664896011844,-0.46972656,-0.6386719,0.59277344,-0.34375,0.0,0.28125,0.0,0.0,0.0
1664896011874,-0.47265625,-0.6386719,0.6044922,-0.34375,0.15625,0.28125,0.0,0.0,0.0
1664896011904,-0.46972656,-0.6425781,0.60253906,0.0,0.09375,0.21875,0.0,0.0,0.0
1664896011964,-0.46972656,-0.63183594,0.59472656,0.0,0.15625,0.28125,0.0,0.0,0.0
1664896011994,-0.4794922,-0.64160156,0.5966797,-0.0625,0.09375,0.28125,0.0,0.0,0.0
1664896012023,-0.47070312,-0.6484375,0.60253906,-0.0625,-0.125,0.03125,0.0,0.0,0.0
1664896012085,-0.46972656,-0.6357422,0.6064453,-0.125,0.15625,0.28125,0.0,0.0,0.0
1664896012114,-0.4765625,-0.6357422,0.60058594,0.0,0.09375,0.15625,0.0,0.0,0.0
1664896012144,-0.4609375,-0.63671875,0.59375,-0.125,-0.25,0.15625,0.0,0.0,0.0
1664896012205,-0.46972656,-0.62890625,0.6113281,-0.1875,-0.125,0.03125,0.0,0.0,0.0
1664896012235,-0.4765625,-0.6308594,0.6035156,-0.125,-0.125,0.21875,0.0,0.0,0.0
1664896012264,-0.46777344,-0.6357422,0.60546875,-0.28125,0.0,0.21875,-52.1875,-34.4375,-99.1875
1664896012324,-0.4814453,-0.6298828,0.5986328,-0.1875,0.09375,0.09375,0.0,0.0,0.0
1664896012355,-0.4658203,-0.6328125,0.5957031,-0.1875,-0.125,0.03125,0.0,0.0,0.0
1664896012385,-0.4658203,-0.63671875,0.59277344,-0.0625,-0.125,-0.0625,0.0,0.0,0.0
1664896012444,-0.47558594,-0.6376953,0.59472656,-0.125,-0.25,-0.125,0.0,0.0,0.0
1664896012475,-0.4658203,-0.6298828,0.6064453,0.375,-0.4375,-0.625,0.0,0.0,0.0
1664896012504,-0.46875,-0.6357422,0.6123047,-0.125,-0.5625,-0.625,0.0,0.0,0.0
1664896012565,-0.4765625,-0.640625,0.59765625,-0.125,-0.1875,-0.125,0.0,0.0,0.0
1664896012595,-0.46777344,-0.6386719,0.60546875,-0.1875,-0.125,-0.25,0.0,0.0,0.0
1664896012653,-0.48242188,-0.625,0.59472656,0.1875,-0.125,-0.25,0.0,0.0,0.0
1664896012684,-0.46972656,-0.63964844,0.6074219,-0.1875,-0.1875,-0.3125,0.0,0.0,0.0
1664896012714,-0.46777344,-0.63378906,0.59765625,-0.0625,-0.25,-0.375,0.0,0.0,0.0
1664896012744,-0.46777344,-0.63964844,0.59277344,-0.0625,-0.1875,-0.5625,-51.4375,-35.5,-98.875
1664896012805,-0.46875,-0.6347656,0.5996094,-0.0625,-0.1875,-0.3125,0.0,0.0,0.0
1664896012835,-0.47265625,-0.6308594,0.60253906,0.1875,-0.125,-0.3125,0.0,0.0,0.0
1664896012864,-0.47558594,-0.6484375,0.6044922,0.375,-0.25,-0.3125,0.0,0.0,0.0
1664896012926,-0.4658203,-0.63378906,0.5957031,-0.0625,-0.375,-0.4375,0.0,0.0,0.0
1664896012955,-0.46777344,-0.6376953,0.5986328,-0.125,-0.125,-0.5625,0.0,0.0,0.0
1664896012984,-0.48046875,-0.6376953,0.6035156,0.0625,0.09375,-0.5,0.0,0.0,0.0
1664896013045,-0.4765625,-0.6357422,0.59765625,0.25,-0.3125,-0.5,0.0,0.0,0.0
1664896013076,-0.46972656,-0.6347656,0.6035156,0.0,-0.125,-0.375,0.0,0.0,0.0
1664896013106,-0.46972656,-0.6376953,0.6035156,0.125,0.0,-0.3125,0.0,0.0,0.0
1664896013165,-0.47070312,-0.64453125,0.5996094,0.375,-0.375,-0.125,0.0,0.0,0.0
1664896013194,-0.47460938,-0.63964844,0.6035156,0.375,-0.4375,-0.5625,0.0,0.0,0.0
1664896013225,-0.46777344,-0.64160156,0.6015625,-0.28125,-0.5625,-0.875,0.0,0.0,0.0
1664896013284,-0.46777344,-0.6347656,0.59375,-0.21875,-0.3125,-0.25,-52.0625,-34.0,-99.8125
1664896013314,-0.46679688,-0.63964844,0.609375,-0.125,-0.25,0.0,0.0,0.0,0.0
1664896013344,-0.46679688,-0.6328125,0.5996094,0.0,-0.125,0.09375,0.0,0.0,0.0
1664896013405,-0.46972656,-0.6435547,0.6123047,0.125,-0.0625,0.03125,0.0,0.0,0.0
1664896013435,-0.4638672,-0.63671875,0.5966797,0.5,-0.375,-0.0625,0.0,0.0,0.0
1664896013464,-0.4658203,-0.6376953,0.58984375,0.3125,-0.5,-0.25,0.0,0.0,0.0
1664896013524,-0.46777344,-0.64160156,0.5996094,0.25,0.03125,-0.4375,0.0,0.0,0.0
1664896013554,-0.46777344,-0.6357422,0.6064453,0.25,-0.625,-0.125,0.0,0.0,0.0
1664896013587,-0.47070312,-0.6279297,0.6152344,-0.125,-0.4375,-0.4375,0.0,0.0,0.0
1664896013644,-0.46679688,-0.640625,0.6074219,0.1875,-0.4375,-0.25,0.0,0.0,0.0
1664896013677,-0.46679688,-0.6328125,0.6064453,-0.125,-0.0625,-0.0625,0.0,0.0,0.0
1664896013734,-0.46289062,-0.6376953,0.60058594,0.0,-0.25,0.15625,0.0,0.0,0.0
1664896013763,-0.46875,-0.6308594,0.60546875,-0.0625,-0.125,0.03125,-52.5,-34.1875,-99.625
1664896013794,-0.4716797,-0.6464844,0.59375,-0.125,-0.125,0.09375,0.0,0.0,0.0
1664896013824,-0.46484375,-0.640625,0.5996094,0.0625,0.03125,0.34375,0.0,0.0,0.0
1664896013886,-0.4716797,-0.6328125,0.6035156,0.1875,-0.1875,0.34375,0.0,0.0,0.0
1664896013915,-0.46777344,-0.6328125,0.6074219,0.4375,-0.5,-0.25,0.0,0.0,0.0
1664896013944,-0.4609375,-0.63671875,0.60058594,-0.125,-0.375,-0.5625,0.0,0.0,0.0
1664896014004,-0.4560547,-0.6279297,0.61035156,-0.34375,0.0,0.28125,0.0,0.0,0.0
1664896014036,-0.46777344,-0.6347656,0.6113281,-0.0625,0.09375,0.34375,0.0,0.0,0.0
1664896014064,-0.4794922,-0.6347656,0.59472656,-0.1875,0.09375,0.34375,0.0,0.0,0.0
1664896014124,-0.46484375,-0.63671875,0.6035156,-0.0625,0.15625,0.40625,0.0,0.0,0.0
1664896014160,-0.4638672,-0.6328125,0.6035156,-0.125,-0.125,0.40625,0.0,0.0,0.0
1664896014184,-0.47265625,-0.64746094,0.609375,-0.46875,-0.125,0.21875,0.0,0.0,0.0
1664896014243,-0.4736328,-0.6386719,0.61035156,-0.0625,0.15625,0.28125,0.0,0.0,0.0
1664896014273,-0.47070312,-0.63964844,0.5888672,0.0625,0.03125,0.28125,-52.1875,-34.1875,-101.3125
1664896014304,-0.47558594,-0.6308594,0.59277344,0.0,0.0,0.21875,0.0,0.0,0.0
1664896014363,-0.47753906,-0.64453125,0.6015625,-0.34375,0.21875,0.46875,0.0,0.0,0.0
1664896014395,-0.46972656,-0.6347656,0.6064453,-0.34375,0.0,0.40625,0.0,0.0,0.0
1664896014423,-0.47265625,-0.6357422,0.60546875,0.0625,-0.0625,0.09375,0.0,0.0,0.0
1664896014484,-0.46777344,-0.6376953,0.6064453,0.0,0.0,0.28125,0.0,0.0,0.0
1664896014512,-0.46679688,-0.6386719,0.59277344,0.0,0.09375,0.34375,0.0,0.0,0.0
1664896014544,-0.47851562,-0.6269531,0.6035156,0.0,0.15625,0.53125,0.0,0.0,0.0
1664896014605,-0.4638672,-0.6347656,0.61035156,0.5,-0.25,-0.25,0.0,0.0,0.0
1664896014633,-0.47558594,-0.6357422,0.6015625,-0.34375,0.0,-0.625,0.0,0.0,0.0
1664896014665,-0.47753906,-0.63378906,0.609375,-0.28125,-0.125,-0.125,0.0,0.0,0.0
1664896014724,-0.46777344,-0.6279297,0.6064453,-0.34375,-0.125,-0.375,0.0,0.0,0.0
1664896014753,-0.46191406,-0.63964844,0.5986328,-0.28125,-0.1875,-0.25,-51.625,-36.125,-99.375
1664896014784,-0.46875,-0.63671875,0.5996094,0.0625,-0.5,-0.375,0.0,0.0,0.0
1664896014844,-0.4658203,-0.63183594,0.6074219,-0.0625,-0.125,-0.375,0.0,0.0,0.0
1664896014874,-0.46484375,-0.63183594,0.6015625,0.125,-0.3125,-0.375,0.0,0.0,0.0
1664896014936,-0.47265625,-0.6376953,0.58984375,0.25,-0.25,-0.3125,0.0,0.0,0.0
1664896014965,-0.4658203,-0.6347656,0.61621094,-0.0625,-0.125,-0.25,0.0,0.0,0.0
1664896014994,-0.45996094,-0.6357422,0.6035156,0.0625,-0.1875,-0.375,0.0,0.0,0.0
1664896015025,-0.46972656,-0.6376953,0.6074219,0.125,-0.0625,-0.375,0.0,0.0,0.0
1664896015085,-0.46484375,-0.6298828,0.60058594,0.0625,-0.125,-0.0625,0.0,0.0,0.0
1664896015115,-0.47558594,-0.6328125,0.59277344,0.125,-0.375,-0.5,0.0,0.0,0.0
1664896015144,-0.46972656,-0.6425781,0.6064453,-0.34375,-0.125,-0.4375,0.0,0.0,0.0
1664896015203,-0.47070312,-0.6386719,0.5957031,-0.0625,-0.125,-0.1875,0.0,0.0,0.0
1664896015235,-0.47460938,-0.6347656,0.5966797,0.375,-0.1875,-0.125,0.0,0.0,0.0
1664896015265,-0.46875,-0.6308594,0.5996094,0.0625,-0.3125,-0.625,-51.3125,-33.5625,-99.375
1664896015324,-0.47070312,-0.63671875,0.60839844,0.0,-0.0625,-0.5625,0.0,0.0,0.0
1664896015354,-0.46289062,-0.64160156,0.6074219,-0.125,-0.25,0.09375,0.0,0.0,0.0
1664896015384,-0.4794922,-0.6357422,0.6064453,0.5,0.46875,0.15625,0.0,0.0,0.0
1664896015444,-0.4716797,-0.6376953,0.6113281,0.25,0.21875,0.0,0.0,0.0,0.0
1664896015475,-0.46484375,-0.6308594,0.6113281,-0.40625,-0.125,-0.25,0.0,0.0,0.0
1664896015504,-0.46679688,-0.6347656,0.6142578,-0.40625,-0.25,-0.25,0.0,0.0,0.0
1664896015566,-0.47558594,-0.63378906,0.59765625,-0.46875,-0.125,-0.3125,0.0,0.0,0.0
1664896015594,-0.46679688,-0.6376953,0.609375,-0.1875,-0.125,-0.0625,0.0,0.0,0.0
1664896015623,-0.4736328,-0.64453125,0.6044922,-0.125,-0.1875,-0.3125,0.0,0.0,0.0
1664896015686,-0.4609375,-0.64160156,0.61328125,-0.0625,0.0,-0.125,0.0,0.0,0.0
1664896015716,-0.46777344,-0.6308594,0.61035156,0.0,0.09375,0.03125,0.0,0.0,0.0
1664896015743,-0.46972656,-0.63671875,0.62402344,-0.125,0.21875,-0.125,-51.75,-33.875,-99.9375
1664896015807,-0.45703125,-0.63378906,0.60546875,0.0,-0.1875,0.0,0.0,0.0,0.0
1664896015836,-0.46972656,-0.6376953,0.59765625,-0.125,0.09375,0.0,0.0,0.0,0.0
1664896015865,-0.47070312,-0.6376953,0.59765625,-0.34375,-0.1875,0.09375,0.0,0.0,0.0
1664896015925,-0.46875,-0.6425781,0.60839844,0.0625,-0.1875,0.0,0.0,0.0,0.0
1664896015955,-0.4658203,-0.6328125,0.60253906,-0.59375,-0.0625,-0.375,0.0,0.0,0.0
1664896015985,-0.47558594,-0.64453125,0.6074219,-0.1875,-0.1875,-0.3125,0.0,0.0,0.0
1664896016046,-0.47070312,-0.640625,0.61816406,0.0625,-0.125,-0.1875,0.0,0.0,0.0
1664896016075,-0.4609375,-0.6347656,0.5996094,0.0,0.03125,-0.0625,0.0,0.0,0.0
1664896016104,-0.47265625,-0.64453125,0.6044922,-0.0625,-0.1875,0.03125,0.0,0.0,0.0
1664896016166,-0.4609375,-0.6435547,0.6142578,-0.0625,-0.0625,0.15625,0.0,0.0,0.0
1664896016195,-0.46679688,-0.6347656,0.609375,-0.1875,-0.1875,0.15625,0.0,0.0,0.0
1664896016225,-0.4638672,-0.63671875,0.60058594,-0.0625,-0.0625,0.21875,0.0,0.0,0.0
1664896016284,-0.46972656,-0.6308594,0.60058594,0.0,0.15625,0.28125,-52.375,-34.0,-100.375
1664896016314,-0.46191406,-0.64160156,0.6015625,-0.125,0.09375,0.34375,0.0,0.0,0.0
1664896016345,-0.47265625,-0.640625,0.61035156,-0.28125,0.03125,0.09375,0.0,0.0,0.0
1664896016402,-0.4638672,-0.6425781,0.5966797,-0.0625,-0.0625,0.28125,0.0,0.0,0.0
1664896016437,-0.47070312,-0.640625,0.61035156,0.0625,0.03125,0.21875,0.0,0.0,0.0
1664896016463,-0.4580078,-0.6347656,0.6074219,-0.1875,0.0,0.15625,0.0,0.0,0.0
1664896016524,-0.4716797,-0.6386719,0.5878906,0.0,0.15625,0.40625,0.0,0.0,0.0
1664896016555,-0.4736328,-0.6279297,0.60839844,-0.21875,0.09375,0.59375,0.0,0.0,0.0
1664896016584,-0.47070312,-0.63378906,0.6142578,-0.0625,-0.125,0.21875,0.0,0.0,0.0
1664896016642,-0.4658203,-0.63671875,0.609375,-0.46875,0.0,0.0,0.0,0.0,0.0
1664896016677,-0.4658203,-0.6376953,0.60253906,-0.34375,0.21875,0.40625,0.0,0.0,0.0
1664896016704,-0.47265625,-0.640625,0.6064453,-0.53125,0.15625,0.34375,0.0,0.0,0.0
1664896016764,-0.46679688,-0.63964844,0.5996094,-0.28125,0.34375,0.34375,-50.5625,-34.75,-99.8125
1664896016794,-0.4716797,-0.63964844,0.6035156,-0.34375,0.28125,0.28125,0.0,0.0,0.0
1664896016824,-0.46972656,-0.6435547,0.5917969,0.0625,0.03125,0.40625,0.0,0.0,0.0
1664896016883,-0.4765625,-0.63964844,0.6064453,-0.28125,0.0,0.15625,0.0,0.0,0.0
1664896016916,-0.46679688,-0.64453125,0.5996094,-0.0625,0.09375,0.34375,0.0,0.0,0.0
1664896016945,-0.46972656,-0.63183594,0.6035156,0.0,0.21875,0.40625,0.0,0.0,0.0
1664896017003,-0.47460938,-0.6386719,0.59765625,0.0,0.21875,0.28125,0.0,0.0,0.0
1664896017035,-0.46875,-0.63964844,0.60058594,-0.0625,0.21875,0.21875,0.0,0.0,0.0
1664896017064,-0.47070312,-0.63378906,0.5996094,-0.0625,0.0,0.34375,0.0,0.0,0.0
1664896017123,-0.47070312,-0.6347656,0.5996094,-0.0625,-0.25,-0.0625,0.0,0.0,0.0
1664896017154,-0.48046875,-0.6435547,0.5986328,-0.21875,0.03125,-0.1875,0.0,0.0,0.0
1664896017215,-0.46875,-0.6386719,0.5917969,0.0,0.09375,0.15625,0.0,0.0,0.0
1664896017243,-0.46972656,-0.6386719,0.61328125,0.25,-0.3125,-0.3125,0.0,0.0,0.0
1664896017274,-0.46777344,-0.6357422,0.60058594,0.25,-0.4375,-0.5,-51.625,-32.9375,-99.8125
1664896017305,-0.4609375,-0.6328125,0.6035156,-0.0625,-0.25,-0.4375,0.0,0.0,0.0
1664896017364,-0.4658203,-0.6347656,0.5966797,-0.28125,-0.3125,-0.25,0.0,0.0,0.0
1664896017394,-0.47753906,-0.6386719,0.5878906,0.0625,0.03125,-0.125,0.0,0.0,0.0
1664896017425,-0.46972656,-0.6357422,0.59765625,0.0625,0.09375,0.09375,0.0,0.0,0.0
1664896017485,-0.47070312,-0.6347656,0.61328125,0.0625,-0.3125,-0.125,0.0,0.0,0.0
1664896017514,-0.46484375,-0.6425781,0.60839844,-0.0625,-0.125,-0.5625,0.0,0.0,0.0
1664896017545,-0.47460938,-0.6425781,0.58984375,-0.0625,-0.25,-0.4375,0.0,0.0,0.0
1664896017606,-0.4736328,-0.6357422,0.59277344,0.0625,-0.0625,-0.4375,0.0,0.0,0.0
1664896017633,-0.47070312,-0.6425781,0.6015625,0.0625,-0.1875,-0.375,0.0,0.0,0.0
1664896017663,-0.46875,-0.63964844,0.62109375,0.0625,-0.25,-0.125,0.0,0.0,0.0
1664896017727,-0.4658203,-0.6464844,0.61035156,0.0625,0.0,0.0,0.0,0.0,0.0
1664896017753,-0.47460938,-0.63671875,0.5986328,0.0,0.09375,-0.1875,-52.5,-33.875,-100.6875
1664896017785,-0.4658203,-0.63183594,0.60546875,0.0625,-0.1875,-0.25,0.0,0.0,0.0
1664896017846,-0.4814453,-0.6376953,0.5996094,0.0,0.21875,-0.125,0.0,0.0,0.0
1664896017874,-0.46875,-0.63378906,0.62109375,-0.0625,-0.125,-0.0625,0.0,0.0,0.0
1664896017905,-0.4716797,-0.6376953,0.6074219,0.375,-0.25,-0.125,0.0,0.0,0.0
1664896017965,-0.46777344,-0.6376953,0.61035156,-0.34375,-0.3125,-0.6875,0.0,0.0,0.0
1664896017994,-0.46875,-0.6376953,0.60253906,-0.21875,-0.375,-0.5,0.0,0.0,0.0
1664896018024,-0.46484375,-0.64160156,0.6015625,-0.34375,0.09375,-0.0625,0.0,0.0,0.0
1664896018085,-0.47070312,-0.63964844,0.5966797,0.125,0.15625,0.09375,0.0,0.0,0.0
1664896018115,-0.4658203,-0.6347656,0.609375,-0.0625,0.09375,0.0,0.0,0.0,0.0
1664896018143,-0.4638672,-0.640625,0.6035156,0.0,0.03125,0.0,0.0,0.0,0.0
1664896018206,-0.47558594,-0.63671875,0.6035156,-0.125,-0.25,-0.25,0.0,0.0,0.0
1664896018236,-0.46484375,-0.6308594,0.5917969,0.0,0.09375,-0.125,0.0,0.0,0.0
1664896018264,-0.47460938,-0.640625,0.60546875,-0.0625,0.0,-0.1875,-52.375,-34.75,-100.125
1664896018325,-0.4638672,-0.63183594,0.609375,0.1875,0.0,0.0,0.0,0.0,0.0
1664896018355,-0.4638672,-0.6279297,0.60058594,0.0,0.03125,-0.1875,0.0,0.0,0.0
1664896018384,-0.46484375,-0.6425781,0.609375,-0.0625,-0.0625,-0.0625,0.0,0.0,0.0
1664896018446,-0.46972656,-0.6425781,0.6015625,0.0625,0.03125,0.0,0.0,0.0,0.0
1664896018475,-0.47460938,-0.6425781,0.59765625,0.0,-0.0625,-0.0625,0.0,0.0,0.0
1664896018502,-0.45996094,-0.63964844,0.60253906,0.0,0.0,0.0,0.0,0.0,0.0
1664896018565,-0.4638672,-0.6464844,0.6015625,-0.1875,0.0,0.15625,0.0,0.0,0.0
1664896018594,-0.46289062,-0.64453125,0.6113281,0.5625,-0.25,0.09375,0.0,0.0,0.0
1664896018622,-0.4638672,-0.63671875,0.60253906,0.125,0.03125,-0.1875,0.0,0.0,0.0
1664896018685,-0.47851562,-0.6386719,0.6123047,0.125,-0.1875,-0.25,0.0,0.0,0.0
1664896018714,-0.46777344,-0.6328125,0.61035156,-0.1875,-0.0625,0.15625,0.0,0.0,0.0
1664896018745,-0.4658203,-0.6298828,0.6074219,-0.125,0.09375,0.21875,-52.5,-34.1875,-99.9375
1664896018805,-0.46972656,-0.63671875,0.60253906,-0.1875,0.0,0.09375,0.0,0.0,0.0
1664896018836,-0.4638672,-0.6357422,0.6064453,0.0,0.09375,0.28125,0.0,0.0,0.0
1664896018864,-0.46679688,-0.63671875,0.5986328,-0.21875,-0.0625,0.03125,0.0,0.0,0.0
1664896018926,-0.47460938,-0.640625,0.6015625,-0.0625,0.09375,0.09375,0.0,0.0,0.0
1664896018955,-0.4765625,-0.63964844,0.5996094,-0.1875,0.15625,0.28125,0.0,0.0,0.0
1664896018985,-0.4736328,-0.63671875,0.5888672,-0.0625,-0.0625,0.15625,0.0,0.0,0.0
1664896019044,-0.46191406,-0.6328125,0.5888672,-0.1875,0.03125,0.09375,0.0,0.0,0.0
1664896019075,-0.46875,-0.62890625,0.6064453,-0.125,0.0,0.34375,0.0,0.0,0.0
1664896019105,-0.46191406,-0.6357422,0.60253906,-0.0625,0.0,0.40625,0.0,0.0,0.0
1664896019164,-0.46679688,-0.6376953,0.6044922,0.0,0.09375,0.34375,0.0,0.0,0.0
1664896019196,-0.45898438,-0.6328125,0.6015625,-0.125,-0.0625,0.34375,0.0,0.0,0.0
1664896019224,-0.46679688,-0.6376953,0.60839844,0.0,0.15625,0.15625,0.0,0.0,0.0
1664896019284,-0.45898438,-0.63671875,0.60253906,-0.28125,0.09375,0.46875,-52.5,-35.9375,-100.6875
1664896019314,-0.4638672,-0.6376953,0.60546875,0.1875,-0.125,0.59375,0.0,0.0,0.0
1664896019344,-0.4580078,-0.640625,0.5986328,-0.125,-0.125,-0.0625,0.0,0.0,0.0
1664896019404,-0.4716797,-0.6376953,0.60253906,-0.28125,-0.0625,0.09375,0.0,0.0,0.0
1664896019435,-0.46289062,-0.6435547,0.59472656,-0.34375,0.09375,0.46875,0.0,0.0,0.0
1664896019494,-0.4716797,-0.6347656,0.60253906,0.125,0.15625,0.53125,0.0,0.0,0.0
1664896019524,-0.4716797,-0.64160156,0.6220703,-0.0625,0.09375,0.40625,0.0,0.0,0.0
1664896019554,-0.46875,-0.6386719,0.60546875,0.0625,0.0,0.34375,0.0,0.0,0.0
1664896019585,-0.46679688,-0.6376953,0.60253906,-0.0625,0.0,0.28125,0.0,0.0,0.0
1664896019646,-0.47070312,-0.63378906,0.5957031,-0.0625,0.0,0.09375,0.0,0.0,0.0
1664896019676,-0.4794922,-0.62890625,0.6015625,0.0625,-0.125,-0.1875,0.0,0.0,0.0
1664896019704,-0.4765625,-0.6279297,0.60058594,0.0,-0.125,-0.3125,0.0,0.0,0.0
1664896019765,-0.4658203,-0.6357422,0.61328125,0.0625,-0.1875,-0.375,-52.625,-33.25,-99.375
1664896019795,-0.47753906,-0.6376953,0.6015625,-0.125,-0.0625,-0.1875,0.0,0.0,0.0
1664896019824,-0.47070312,-0.6298828,0.59375,-0.1875,-0.0625,-0.125,0.0,0.0,0.0
1664896019883,-0.46777344,-0.6347656,0.60058594,0.0625,0.0,-0.1875,0.0,0.0,0.0
1664896019915,-0.45996094,-0.6357422,0.6113281,-0.21875,-0.25,-0.375,0.0,0.0,0.0
1664896019945,-0.47558594,-0.6425781,0.5966797,0.0625,0.03125,-0.125,0.0,0.0,0.0
1664896020007,-0.46777344,-0.63671875,0.6142578,-0.0625,-0.125,0.0,0.0,0.0,0.0
1664896020034,-0.46875,-0.63378906,0.61035156,0.4375,-0.125,-0.125,0.0,0.0,0.0
1664896020064,-0.46777344,-0.6435547,0.59375,-0.1875,-0.4375,-0.6875,0.0,0.0,0.0
1664896020124,-0.4716797,-0.6376953,0.59472656,-0.125,-0.1875,-0.375,0.0,0.0,0.0
1664896020155,-0.47460938,-0.6386719,0.6044922,-0.21875,-0.0625,-0.125,0.0,0.0,0.0
1664896020184,-0.47265625,-0.64160156,0.60253906,-0.125,0.03125,-0.1875,0.0,0.0,0.0
1664896020245,-0.47070312,-0.63964844,0.59472656,-0.1875,-0.125,-0.3125,0.0,0.0,0.0
1664896020275,-0.46679688,-0.63183594,0.62402344,-0.0625,-0.125,-0.1875,-51.4375,-33.875,-100.25
1664896020304,-0.46484375,-0.6347656,0.6113281,-0.21875,-0.0625,-0.375,0.0,0.0,0.0
1664896020366,-0.4638672,-0.63183594,0.5966797,0.0625,0.0,-0.125,0.0,0.0,0.0
1664896020394,-0.46777344,-0.62890625,0.61816406,0.0,0.03125,-0.0625,0.0,0.0,0.0
1664896020425,-0.46972656,-0.6328125,0.59472656,-0.0625,-0.0625,-0.3125,0.0,0.0,0.0
1664896020485,-0.46875,-0.6425781,0.59375,-0.125,-0.125,-0.1875,0.0,0.0,0.0
1664896020514,-0.46679688,-0.6455078,0.60546875,-0.125,-0.25,-0.3125,0.0,0.0,0.0
1664896020546,-0.46484375,-0.6347656,0.6113281,0.0,0.03125,-0.1875,0.0,0.0,0.0
1664896020605,-0.48242188,-0.640625,0.61816406,0.0,0.0,-0.125,0.0,0.0,0.0
1664896020633,-0.4658203,-0.6357422,0.5996094,0.0,-0.125,-0.25,0.0,0.0,0.0
1664896020663,-0.47070312,-0.640625,0.59765625,0.0,0.03125,-0.1875,0.0,0.0,0.0
1664896020725,-0.47753906,-0.6425781,0.5966797,-0.125,-0.125,0.0,0.0,0.0,0.0
1664896020753,-0.46484375,-0.63964844,0.60546875,0.25,-0.1875,0.21875,-52.1875,-34.1875,-99.9375
1664896020784,-0.47070312,-0.6347656,0.60058594,0.0,-0.0625,-0.4375,0.0,0.0,0.0
1664896020845,-0.47070312,-0.63378906,0.58984375,-0.0625,-0.1875,-0.4375,0.0,0.0,0.0
1664896020875,-0.46777344,-0.63964844,0.6035156,-0.34375,-0.0625,0.0,0.0,0.0,0.0
1664896020903,-0.46679688,-0.6357422,0.61328125,0.0,0.15625,0.09375,0.0,0.0,0.0
1664896020964,-0.46875,-0.63378906,0.6074219,-0.0625,0.0,0.03125,0.0,0.0,0.0
1664896020993,-0.4736328,-0.63671875,0.5888672,-0.0625,-0.0625,0.09375,0.0,0.0,0.0
1664896021023,-0.47558594,-0.63671875,0.6152344,-0.125,-0.0625,0.0,0.0,0.0,0.0
1664896021085,-0.4658203,-0.6357422,0.609375,-0.0625,-0.0625,-0.0625,0.0,0.0,0.0
1664896021115,-0.4658203,-0.63671875,0.59765625,0.0,0.15625,0.0,0.0,0.0,0.0
1664896021144,-0.4638672,-0.63183594,0.5986328,0.125,0.0,-0.125,0.0,0.0,0.0
1664896021205,-0.46777344,-0.6435547,0.5996094,0.125,-0.0625,-0.125,0.0,0.0,0.0
1664896021234,-0.4658203,-0.64160156,0.60253906,0.125,-0.0625,0.03125,0.0,0.0,0.0
1664896021265,-0.47070312,-0.6376953,0.59765625,0.0,-0.125,0.0,-52.1875,-33.875,-100.25
1664896021325,-0.4716797,-0.64160156,0.5986328,0.0,0.15625,0.15625,0.0,0.0,0.0
1664896021354,-0.46679688,-0.63378906,0.61035156,-0.0625,0.0,0.21875,0.0,0.0,0.0
1664896021385,-0.46777344,-0.6347656,0.6064453,-0.0625,-0.0625,0.03125,0.0,0.0,0.0
1664896021446,-0.46289062,-0.64746094,0.6113281,0.0,0.0,0.09375,0.0,0.0,0.0
1664896021475,-0.4658203,-0.6376953,0.5966797,0.0,0.03125,0.40625,0.0,0.0,0.0
1664896021503,-0.46875,-0.6455078,0.6074219,0.0,0.09375,0.59375,0.0,0.0,0.0
1664896021565,-0.47070312,-0.63183594,0.6044922,-0.125,-0.0625,0.0,0.0,0.0,0.0
1664896021594,-0.46679688,-0.6347656,0.609375,-0.34375,-0.0625,-0.25,0.0,0.0,0.0
1664896021623,-0.46484375,-0.625,0.6123047,-0.28125,0.0,0.34375,0.0,0.0,0.0
1664896021685,-0.46972656,-0.63378906,0.6044922,-0.21875,0.21875,0.59375,0.0,0.0,0.0
1664896021714,-0.47070312,-0.63183594,0.61816406,-0.125,0.34375,0.46875,0.0,0.0,0.0
1664896021774,-0.46972656,-0.63183594,0.5996094,0.0,0.0,0.46875,-52.625,-34.3125,-99.8125
1664896021805,-0.46679688,-0.640625,0.59375,0.0,0.0,0.40625,0.0,0.0,0.0
1664896021834,-0.46484375,-0.6347656,0.59375,-0.1875,-0.1875,0.09375,0.0,0.0,0.0
1664896021864,-0.46777344,-0.63378906,0.6123047,-0.28125,0.21875,0.40625,0.0,0.0,0.0
1664896021925,-0.47558594,-0.63378906,0.5996094,0.0,0.09375,0.46875,0.0,0.0,0.0
1664896021955,-0.4638672,-0.6386719,0.60253906,0.0,0.15625,0.34375,0.0,0.0,0.0
1664896021985,-0.47460938,-0.6386719,0.5996094,-0.1875,-0.125,0.21875,0.0,0.0,0.0
1664896022046,-0.46875,-0.6347656,0.6035156,-0.0625,-0.09375,0.0625,0.0,0.0,0.0
1664896022077,-0.46289062,-0.6455078,0.6113281,0.0625,0.21875,0.3125,0.0,0.0,0.0
1664896022105,-0.47753906,-0.6328125,0.61035156,0.0625,0.03125,0.25,0.0,0.0,0.0
1664896022163,-0.47558594,-0.6269531,0.5966797,0.125,0.09375,-0.09375,0.0,0.0,0.0
1664896022195,-0.46972656,-0.6347656,0.6044922,0.0625,-0.28125,-0.53125,0.0,0.0,0.0
1664896022226,-0.47851562,-0.6328125,0.6171875,0.0,-0.28125,-0.46875,0.0,0.0,0.0
1664896022284,-0.47851562,-0.640625,0.59375,-0.375,-0.03125,-0.03125,-54.125,-35.0625,-99.375
1664896022314,-0.4716797,-0.63964844,0.60058594,0.5,-0.28125,-0.46875,0.0,0.0,0.0
1664896022344,-0.4658203,-0.6357422,0.5957031,0.0,-0.28125,-0.78125,0.0,0.0,0.0
1664896022403,-0.46972656,-0.6386719,0.59472656,-0.125,-0.15625,-0.34375,0.0,0.0,0.0
1664896022435,-0.46679688,-0.6347656,0.6044922,-0.0625,-0.09375,-0.40625,0.0,0.0,0.0
1664896022465,-0.47753906,-0.6357422,0.6074219,0.1875,0.09375,-0.40625,0.0,0.0,0.0
1664896022525,-0.4609375,-0.63378906,0.6035156,0.0,-0.15625,-0.34375,0.0,0.0,0.0
1664896022555,-0.4658203,-0.6347656,0.6035156,0.0625,-0.09375,-0.34375,0.0,0.0,0.0
1664896022584,-0.46679688,-0.6347656,0.5996094,-0.1875,-0.34375,-0.53125,0.0,0.0,0.0
1664896022644,-0.47460938,-0.6357422,0.61328125,0.0625,-0.28125,-0.40625,0.0,0.0,0.0
1664896022675,-0.4658203,-0.63964844,0.60546875,0.0625,-0.03125,-0.46875,0.0,0.0,0.0
1664896022705,-0.46484375,-0.63378906,0.5908203,0.0625,-0.09375,-0.34375,0.0,0.0,0.0
1664896022764,-0.4658203,-0.63671875,0.609375,-0.0625,-0.03125,-0.59375,-52.5,-34.4375,-99.1875
1664896022795,-0.46679688,-0.640625,0.6074219,0.0,-0.09375,-0.46875,0.0,0.0,0.0
1664896022826,-0.47558594,-0.64160156,0.60253906,-0.125,-0.09375,-0.53125,0.0,0.0,0.0
1664896022883,-0.4736328,-0.63378906,0.6035156,0.0,-0.15625,-0.34375,0.0,0.0,0.0
1664896022913,-0.4609375,-0.6357422,0.6152344,-0.0625,-0.09375,-0.40625,0.0,0.0,0.0
1664896022944,-0.4658203,-0.6435547,0.6152344,0.125,-0.09375,-0.46875,0.0,0.0,0.0
1664896023004,-0.47265625,-0.63671875,0.60253906,-0.0625,-0.09375,-0.28125,0.0,0.0,0.0
1664896023033,-0.4794922,-0.6425781,0.5996094,-0.125,-0.09375,-0.21875,0.0,0.0,0.0
1664896023065,-0.4716797,-0.63671875,0.5957031,0.375,-0.28125,-0.15625,0.0,0.0,0.0
1664896023125,-0.47265625,-0.6347656,0.59277344,0.0,-0.28125,-0.59375,0.0,0.0,0.0
1664896023154,-0.46875,-0.63378906,0.5917969,-0.0625,-0.46875,-0.78125,0.0,0.0,0.0
1664896023184,-0.46679688,-0.6347656,0.609375,-0.125,-0.09375,-0.40625,0.0,0.0,0.0
1664896023242,-0.47753906,-0.6308594,0.59375,0.0625,0.03125,0.0,0.0,0.0,0.0
1664896023275,-0.45996094,-0.63964844,0.5957031,-0.0625,-0.03125,-0.21875,-52.625,-34.75,-100.375
1664896023305,-0.46875,-0.6425781,0.5996094,0.0625,-0.09375,0.0,0.0,0.0,0.0
1664896023364,-0.4716797,-0.6386719,0.5917969,-0.125,-0.09375,-0.34375,0.0,0.0,0.0
1664896023394,-0.4658203,-0.63378906,0.59472656,0.0,-0.15625,-0.28125,0.0,0.0,0.0
1664896023425,-0.4638672,-0.6347656,0.5957031,0.0625,0.15625,-0.28125,0.0,0.0,0.0
1664896023484,-0.46679688,-0.640625,0.58984375,0.0625,-0.09375,-0.28125,0.0,0.0,0.0
1664896023513,-0.46875,-0.6347656,0.60839844,0.0625,-0.15625,-0.21875,0.0,0.0,0.0
1664896023545,-0.46777344,-0.63378906,0.6171875,0.125,-0.28125,-0.21875,0.0,0.0,0.0
1664896023604,-0.46679688,-0.6298828,0.5996094,0.125,-0.15625,-0.21875,0.0,0.0,0.0
1664896023633,-0.46484375,-0.6357422,0.60253906,0.125,0.15625,-0.03125,0.0,0.0,0.0
1664896023662,-0.46679688,-0.63964844,0.60253906,0.0625,0.09375,0.125,0.0,0.0,0.0
1664896023725,-0.4658203,-0.6376953,0.609375,0.0625,0.09375,-0.03125,0.0,0.0,0.0
1664896023755,-0.46875,-0.63183594,0.609375,0.0,-0.09375,-0.21875,-51.75,-34.1875,-100.25
1664896023787,-0.4609375,-0.64160156,0.6142578,-0.125,0.21875,0.0,0.0,0.0,0.0
1664896023874,-0.4765625,-0.640625,0.60058594,-0.3125,0.09375,0.3125,0.0,0.0,0.0
1664896023877,-0.46484375,-0.63671875,0.5957031,0.375,0.03125,0.125,0.0,0.0,0.0
1664896023905,-0.47460938,-0.63671875,0.6074219,0.0,-0.34375,-0.34375,0.0,0.0,0.0
1664896023994,-0.46679688,-0.6279297,0.60253906,-0.3125,-0.15625,-0.09375,0.0,0.0,0.0
1664896023996,-0.4716797,-0.6455078,0.60253906,-0.1875,0.03125,0.1875,0.0,0.0,0.0
1664896024055,-0.4658203,-0.6357422,0.5986328,-0.0625,0.34375,0.25,0.0,0.0,0.0
1664896024085,-0.4580078,-0.63378906,0.5986328,0.125,0.28125,0.125,0.0,0.0,0.0
1664896024114,-0.47851562,-0.6386719,0.6074219,0.0,-0.09375,0.3125,0.0,0.0,0.0
1664896024143,-0.47265625,-0.64160156,0.6142578,-0.25,0.09375,0.0,0.0,0.0,0.0
1664896024206,-0.47558594,-0.64453125,0.60253906,-0.0625,-0.09375,0.125,0.0,0.0,0.0
1664896024235,-0.47753906,-0.6425781,0.6035156,-0.3125,0.15625,0.0,0.0,0.0,0.0
1664896024264,-0.4736328,-0.63964844,0.5966797,0.0,-0.09375,0.0625,-51.4375,-33.4375,-100.6875
1664896024325,-0.45996094,-0.6357422,0.60253906,-0.125,-0.09375,-0.21875,0.0,0.0,0.0
1664896024354,-0.46875,-0.6376953,0.6035156,-0.1875,-0.09375,-0.28125,0.0,0.0,0.0
1664896024385,-0.46679688,-0.63671875,0.5966797,-0.1875,0.03125,-0.03125,0.0,0.0,0.0
1664896024445,-0.4580078,-0.6435547,0.5966797,0.0,0.21875,0.3125,0.0,0.0,0.0
1664896024475,-0.47265625,-0.64160156,0.60546875,0.25,0.34375,0.125,0.0,0.0,0.0
1664896024504,-0.46679688,-0.6357422,0.5917969,-0.0625,-0.15625,-0.15625,0.0,0.0,0.0
1664896024594,-0.46484375,-0.63671875,0.5888672,-0.125,-0.21875,-0.46875,0.0,0.0,0.0
1664896024597,-0.46777344,-0.64160156,0.5957031,0.125,-0.09375,-0.34375,0.0,0.0,0.0
1664896024624,-0.4716797,-0.6357422,0.6064453,0.0625,0.03125,-0.09375,0.0,0.0,0.0
1664896024715,-0.46484375,-0.6376953,0.6015625,0.53125,-0.34375,-0.65625,0.0,0.0,0.0
1664896024718,-0.46972656,-0.64160156,0.6123047,0.0,-0.21875,-0.53125,0.0,0.0,0.0
1664896024743,-0.4609375,-0.64453125,0.6201172,-0.1875,-0.15625,-0.1875,-51.625,-34.3125,-100.375
1664896024804,-0.47265625,-0.63671875,0.60839844,-0.125,0.03125,-0.3125,0.0,0.0,0.0
1664896024834,-0.4765625,-0.640625,0.6035156,0.125,-0.15625,-0.25,0.0,0.0,0.0
1664896024864,-0.47851562,-0.64746094,0.5996094,-0.0625,-0.15625,-0.125,0.0,0.0,0.0
1664896024924,-0.47070312,-0.6425781,0.5957031,0.0,-0.28125,-0.25,0.0,0.0,0.0
1664896024954,-0.4638672,-0.6357422,0.5888672,0.0,-0.15625,-0.40625,0.0,0.0,0.0
1664896024983,-0.46679688,-0.6357422,0.5957031,-0.0625,-0.15625,-0.40625,0.0,0.0,0.0
1664896025045,-0.4658203,-0.6425781,0.60253906,0.15625,-0.03125,-0.34375,0.0,0.0,0.0
1664896025074,-0.46972656,-0.6347656,0.61035156,0.125,-0.03125,-0.25,0.0,0.0,0.0
1664896025105,-0.46972656,-0.64453125,0.5986328,0.125,-0.03125,-0.34375,0.0,0.0,0.0
1664896025163,-0.47851562,-0.63964844,0.5986328,0.15625,-0.21875,-0.34375,0.0,0.0,0.0
1664896025194,-0.45996094,-0.63378906,0.61035156,-0.0625,0.09375,-0.34375,0.0,0.0,0.0
1664896025225,-0.4609375,-0.6386719,0.5986328,0.0,-0.09375,-0.34375,0.0,0.0,0.0
1664896025284,-0.46289062,-0.6308594,0.6015625,0.15625,0.03125,-0.3125,-52.5,-34.1875,-99.1875
1664896025314,-0.4736328,-0.6435547,0.59765625,-0.0625,-0.09375,-0.3125,0.0,0.0,0.0
1664896025344,-0.4658203,-0.6464844,0.60253906,0.0625,-0.15625,-0.25,0.0,0.0,0.0
1664896025404,-0.4716797,-0.63378906,0.5986328,0.0,-0.09375,0.1875,0.0,0.0,0.0
1664896025435,-0.46191406,-0.62890625,0.6113281,0.46875,-0.15625,0.0,0.0,0.0,0.0
1664896025464,-0.4736328,-0.62890625,0.5986328,0.0,-0.34375,-0.59375,0.0,0.0,0.0
1664896025524,-0.47265625,-0.63964844,0.58984375,0.0,-0.21875,-0.34375,0.0,0.0,0.0
1664896025557,-0.4736328,-0.6435547,0.6015625,-0.125,0.09375,0.0,0.0,0.0,0.0
1664896025586,-0.47265625,-0.64453125,0.62109375,0.0625,0.09375,-0.1875,0.0,0.0,0.0
1664896025645,-0.4638672,-0.6298828,0.6113281,0.0625,-0.03125,-0.125,0.0,0.0,0.0
1664896025676,-0.46777344,-0.63964844,0.5996094,0.21875,0.03125,0.0,0.0,0.0,0.0
1664896025705,-0.46875,-0.6279297,0.60058594,-0.0625,-0.15625,-0.1875,0.0,0.0,0.0
1664896025764,-0.46679688,-0.64160156,0.6035156,0.125,0.15625,-0.1875,-51.625,-34.0,-101.125
1664896025796,-0.4716797,-0.63183594,0.6142578,0.0625,0.09375,-0.125,0.0,0.0,0.0
1664896025824,-0.4580078,-0.6425781,0.61328125,0.0625,-0.15625,-0.1875,0.0,0.0,0.0
1664896025883,-0.46875,-0.6357422,0.5966797,0.0,-0.28125,-0.1875,0.0,0.0,0.0
1664896025914,-0.4658203,-0.6435547,0.5917969,0.125,-0.21875,-0.3125,0.0,0.0,0.0
1664896025944,-0.46875,-0.6357422,0.609375,0.15625,-0.21875,-0.25,0.0,0.0,0.0
1664896026007,-0.47460938,-0.6357422,0.6044922,0.125,-0.09375,-0.25,0.0,0.0,0.0
1664896026034,-0.46875,-0.6357422,0.60546875,0.125,-0.15625,0.0,0.0,0.0,0.0
1664896026063,-0.46484375,-0.6328125,0.5957031,0.0625,-0.15625,0.0625,0.0,0.0,0.0
1664896026125,-0.45996094,-0.6347656,0.60839844,-0.0625,-0.15625,-0.25,0.0,0.0,0.0
1664896026154,-0.45898438,-0.6298828,0.60546875,0.15625,0.03125,0.0,0.0,0.0,0.0
1664896026185,-0.46875,-0.6269531,0.6113281,0.0,0.09375,0.5,0.0,0.0,0.0
1664896026244,-0.47265625,-0.63183594,0.60058594,0.34375,-0.34375,0.125,0.0,0.0,0.0
1664896026278,-0.46875,-0.6386719,0.59765625,-0.125,-0.34375,-0.34375,-52.5,-33.125,-100.25
1664896026336,-0.45898438,-0.6347656,0.6044922,0.0,-0.21875,-0.0625,0.0,0.0,0.0
1664896026366,-0.46289062,-0.6435547,0.61035156,-0.25,0.21875,0.375,0.0,0.0,0.0
1664896026395,-0.47070312,-0.6347656,0.6064453,0.0,0.15625,0.5,0.0,0.0,0.0
1664896026425,-0.4765625,-0.6386719,0.61035156,0.0,0.09375,0.25,0.0,0.0,0.0
1664896026484,-0.4658203,-0.64453125,0.609375,0.125,-0.03125,0.5,0.0,0.0,0.0
1664896026514,-0.46484375,-0.63671875,0.60253906,-0.125,-0.03125,0.1875,0.0,0.0,0.0
1664896026544,-0.47460938,-0.6513672,0.61035156,-0.0625,0.09375,0.3125,0.0,0.0,0.0
1664896026604,-0.46777344,-0.63378906,0.6035156,-0.0625,0.21875,0.5625,0.0,0.0,0.0
1664896026635,-0.46679688,-0.6269531,0.5986328,0.0625,0.21875,0.25,0.0,0.0,0.0
1664896026663,-0.4609375,-0.63964844,0.60839844,-0.125,0.09375,0.5,0.0,0.0,0.0
1664896026723,-0.46875,-0.6347656,0.59765625,-0.125,-0.09375,0.4375,0.0,0.0,0.0
1664896026755,-0.46875,-0.64453125,0.60253906,-0.125,-0.03125,0.375,-52.375,-35.0625,-99.0625
1664896026785,-0.46777344,-0.63671875,0.59765625,0.0,0.25,0.375,0.0,0.0,0.0
1664896026844,-0.47070312,-0.640625,0.5986328,0.15625,0.15625,0.3125,0.0,0.0,0.0
1664896026875,-0.4658203,-0.640625,0.6123047,0.0625,-0.03125,0.0625,0.0,0.0,0.0
1664896026904,-0.47070312,-0.63378906,0.59765625,0.0625,0.09375,0.0625,0.0,0.0,0.0
1664896026964,-0.46777344,-0.6386719,0.609375,-0.3125,0.15625,0.1875,0.0,0.0,0.0
1664896026993,-0.46679688,-0.6357422,0.6035156,0.46875,-0.46875,-0.46875,0.0,0.0,0.0
1664896027023,-0.46875,-0.6328125,0.5917969,0.15625,-0.34375,-0.59375,0.0,0.0,0.0
1664896027084,-0.4658203,-0.64160156,0.6035156,-0.125,-0.15625,-0.40625,0.0,0.0,0.0
1664896027115,-0.46972656,-0.6386719,0.59765625,-0.1875,-0.15625,-0.3125,0.0,0.0,0.0
1664896027143,-0.47460938,-0.63378906,0.60058594,0.0625,-0.03125,-0.25,0.0,0.0,0.0
1664896027205,-0.47753906,-0.6386719,0.6035156,0.125,-0.03125,-0.25,0.0,0.0,0.0
1664896027234,-0.47558594,-0.6347656,0.5966797,0.15625,0.03125,-0.125,0.0,0.0,0.0
1664896027263,-0.4716797,-0.640625,0.5966797,-0.25,-0.28125,-0.40625,-52.625,-34.75,-99.375
1664896027326,-0.46777344,-0.6357422,0.5966797,0.03125,-0.125,-0.5,0.0,0.0,0.0
1664896027355,-0.46972656,-0.6328125,0.6152344,-0.09375,-0.0625,-0.5,0.0,0.0,0.0
1664896027385,-0.46777344,-0.640625,0.6044922,-0.03125,-0.0625,-0.4375,0.0,0.0,0.0
1664896027444,-0.47460938,-0.6347656,0.61035156,0.03125,-0.25,-0.3125,0.0,0.0,0.0
1664896027476,-0.4658203,-0.6357422,0.6035156,-0.09375,-0.1875,-0.4375,0.0,0.0,0.0
1664896027504,-0.4716797,-0.63671875,0.6074219,-0.09375,-0.25,-0.5,0.0,0.0,0.0
1664896027566,-0.4658203,-0.63964844,0.6044922,-0.03125,0.0,-0.4375,0.0,0.0,0.0
1664896027594,-0.4658203,-0.63671875,0.6035156,-0.03125,-0.1875,-0.4375,0.0,0.0,0.0
1664896027624,-0.46191406,-0.63964844,0.6113281,0.03125,0.15625,-0.3125,0.0,0.0,0.0
1664896027685,-0.4609375,-0.63378906,0.5957031,-0.09375,0.0,-0.1875,0.0,0.0,0.0
1664896027714,-0.47265625,-0.63378906,0.59375,0.34375,-0.125,-0.3125,0.0,0.0,0.0
1664896027743,-0.4609375,-0.6357422,0.609375,-0.15625,-0.25,-0.875,-50.875,-34.75,-100.875
1664896027805,-0.47265625,-0.6376953,0.6113281,-0.21875,-0.3125,-0.6875,0.0,0.0,0.0
1664896027835,-0.46679688,-0.6455078,0.5996094,-0.09375,-0.0625,-0.125,0.0,0.0,0.0
1664896027864,-0.46777344,-0.63183594,0.59765625,-0.09375,0.0,-0.1875,0.0,0.0,0.0
1664896027925,-0.45507812,-0.6328125,0.59765625,-0.03125,0.0,-0.3125,0.0,0.0,0.0
1664896027955,-0.47265625,-0.64453125,0.6044922,0.15625,-0.125,-0.0625,0.0,0.0,0.0
1664896027985,-0.46191406,-0.6386719,0.6044922,-0.28125,-0.125,-0.4375,0.0,0.0,0.0
1664896028045,-0.4638672,-0.63671875,0.6015625,-0.03125,-0.0625,-0.5625,0.0,0.0,0.0
1664896028074,-0.46679688,-0.63671875,0.6064453,0.21875,0.0625,-0.3125,0.0,0.0,0.0
1664896028104,-0.45507812,-0.6357422,0.61035156,-0.03125,-0.1875,-0.375,0.0,0.0,0.0
1664896028165,-0.47460938,-0.6386719,0.6064453,0.09375,0.0625,-0.3125,0.0,0.0,0.0
1664896028195,-0.46484375,-0.63964844,0.60546875,-0.03125,-0.125,-0.1875,0.0,0.0,0.0
1664896028224,-0.4560547,-0.63378906,0.60253906,-0.09375,0.0625,-0.3125,0.0,0.0,0.0
1664896028283,-0.46875,-0.6386719,0.6044922,-0.03125,0.0,-0.25,-52.5,-35.1875,-100.6875
1664896028314,-0.46875,-0.6376953,0.5917969,0.09375,-0.0625,-0.25,0.0,0.0,0.0
1664896028344,-0.4716797,-0.640625,0.59375,0.09375,0.0,-0.375,0.0,0.0,0.0
1664896028403,-0.47265625,-0.6435547,0.59765625,-0.15625,0.0,-0.1875,0.0,0.0,0.0
1664896028434,-0.4609375,-0.6298828,0.6035156,0.15625,-0.0625,-0.0625,0.0,0.0,0.0
1664896028465,-0.4716797,-0.63183594,0.5839844,0.15625,-0.4375,-0.4375,0.0,0.0,0.0
1664896028524,-0.4609375,-0.6425781,0.61035156,-0.03125,-0.1875,-0.5625,0.0,0.0,0.0
1664896028554,-0.4658203,-0.63378906,0.6074219,-0.03125,-0.1875,-0.3125,0.0,0.0,0.0
1664896028614,-0.4658203,-0.64453125,0.5996094,-0.03125,0.125,-0.125,0.0,0.0,0.0
1664896028616,-0.47070312,-0.6435547,0.6015625,0.03125,0.125,-0.125,0.0,0.0,0.0
1664896028674,-0.46484375,-0.64453125,0.6123047,0.09375,0.0625,-0.125,0.0,0.0,0.0
1664896028706,-0.46484375,-0.6455078,0.58691406,-0.03125,-0.1875,-0.0625,0.0,0.0,0.0
1664896028763,-0.47460938,-0.6425781,0.5996094,0.03125,-0.0625,-0.0625,-53.125,-34.3125,-98.75
1664896028795,-0.4609375,-0.6230469,0.6064453,0.15625,0.0625,-0.25,0.0,0.0,0.0
1664896028824,-0.46191406,-0.6386719,0.625,0.09375,-0.125,0.125,0.0,0.0,0.0
1664896028855,-0.47070312,-0.640625,0.6074219,-0.09375,0.0625,-0.1875,0.0,0.0,0.0
1664896028913,-0.45703125,-0.6376953,0.60839844,0.15625,0.0,-0.1875,0.0,0.0,0.0
1664896028946,-0.4638672,-0.64160156,0.59765625,0.03125,-0.0625,0.0625,0.0,0.0,0.0
1664896028975,-0.4658203,-0.6357422,0.61328125,-0.09375,-0.0625,0.15625,0.0,0.0,0.0
1664896029035,-0.45507812,-0.6298828,0.60058594,-0.15625,0.0625,0.0,0.0,0.0,0.0
1664896029064,-0.46875,-0.6376953,0.6015625,-0.09375,-0.125,0.0,0.0,0.0,0.0
1664896029094,-0.46289062,-0.640625,0.6015625,-0.09375,0.21875,0.0625,0.0,0.0,0.0
1664896029153,-0.4716797,-0.6376953,0.6123047,-0.09375,0.0625,0.34375,0.0,0.0,0.0
1664896029184,-0.46972656,-0.62890625,0.60253906,-0.03125,-0.0625,0.40625,0.0,0.0,0.0
1664896029215,-0.46289062,-0.6328125,0.5859375,-0.09375,-0.1875,-0.125,0.0,0.0,0.0
1664896029276,-0.47070312,-0.6376953,0.60546875,-0.09375,-0.125,-0.125,-50.375,-35.1875,-99.9375
1664896029306,-0.46679688,-0.6347656,0.59472656,-0.21875,0.125,0.125,0.0,0.0,0.0
1664896029366,-0.47070312,-0.63671875,0.5986328,-0.21875,0.21875,0.40625,0.0,0.0,0.0
1664896029394,-0.46777344,-0.63671875,0.6035156,0.03125,0.15625,0.15625,0.0,0.0,0.0
1664896029425,-0.46777344,-0.63183594,0.6015625,0.09375,0.125,0.46875,0.0,0.0,0.0
1664896029455,-0.46679688,-0.6435547,0.60839844,0.03125,0.0625,0.21875,0.0,0.0,0.0
1664896029514,-0.46875,-0.63964844,0.60839844,-0.15625,-0.0625,0.0625,0.0,0.0,0.0
1664896029546,-0.46875,-0.6347656,0.59765625,0.03125,0.34375,0.125,0.0,0.0,0.0
1664896029574,-0.46777344,-0.6279297,0.5996094,0.03125,0.0,0.21875,0.0,0.0,0.0
1664896029634,-0.47753906,-0.6376953,0.5986328,-0.03125,0.0625,0.0625,0.0,0.0,0.0
1664896029663,-0.46289062,-0.6328125,0.6142578,0.09375,0.0,-0.3125,0.0,0.0,0.0
1664896029695,-0.4765625,-0.63671875,0.60253906,-0.15625,-0.1875,-0.25,0.0,0.0,0.0
1664896029755,-0.46972656,-0.63671875,0.59277344,0.09375,-0.0625,-0.375,-52.1875,-33.875,-98.875
1664896029785,-0.45703125,-0.6347656,0.59375,0.15625,-0.3125,-0.5625,0.0,0.0,0.0
1664896029845,-0.47070312,-0.6464844,0.6064453,-0.03125,-0.1875,-0.5625,0.0,0.0,0.0
1664896029873,-0.47070312,-0.6328125,0.6113281,0.15625,0.0,-0.25,0.0,0.0,0.0
1664896029904,-0.47558594,-0.63671875,0.6123047,-0.34375,0.0625,-0.1875,0.0,0.0,0.0
1664896029934,-0.47265625,-0.6201172,0.60058594,0.40625,-0.3125,-0.5,0.0,0.0,0.0
1664896029996,-0.46875,-0.63964844,0.6035156,-0.21875,-0.25,-0.875,0.0,0.0,0.0
1664896030025,-0.47460938,-0.63964844,0.60253906,-0.09375,-0.1875,-0.1875,0.0,0.0,0.0
1664896030114,-0.47070312,-0.6328125,0.58691406,-0.28125,0.0625,-0.3125,0.0,0.0,0.0
1664896030117,-0.45996094,-0.63183594,0.6113281,-0.03125,0.0,-0.25,0.0,0.0,0.0
1664896030144,-0.46484375,-0.64160156,0.60839844,0.03125,0.0,-0.3125,0.0,0.0,0.0
1664896030234,-0.4658203,-0.63378906,0.60058594,0.15625,-0.125,-0.375,0.0,0.0,0.0
1664896030237,-0.45898438,-0.6279297,0.60839844,-0.03125,-0.125,-0.5,0.0,0.0,0.0
1664896030262,-0.46875,-0.63183594,0.61035156,-0.09375,-0.1875,-0.4375,-52.5,-34.9375,-99.9375
1664896030295,-0.46972656,-0.6386719,0.60546875,-0.03125,-0.0625,-0.4375,0.0,0.0,0.0
1664896030355,-0.46972656,-0.63964844,0.6074219,-0.09375,-0.125,-0.3125,0.0,0.0,0.0
1664896030386,-0.46972656,-0.64160156,0.6074219,-0.15625,-0.1875,-0.4375,0.0,0.0,0.0
1664896030413,-0.48242188,-0.6425781,0.6044922,0.03125,-0.125,-0.4375,0.0,0.0,0.0
1664896030475,-0.47070312,-0.6357422,0.6113281,-0.03125,0.0625,-0.375,0.0,0.0,0.0
1664896030504,-0.4716797,-0.6464844,0.6074219,0.03125,0.0625,-0.375,0.0,0.0,0.0
1664896030535,-0.46972656,-0.640625,0.6113281,0.03125,-0.0625,-0.5,0.0,0.0,0.0
1664896030595,-0.46679688,-0.6298828,0.59765625,-0.28125,0.0625,-0.3125,0.0,0.0,0.0
1664896030625,-0.46875,-0.6435547,0.6035156,-0.03125,-0.1875,-0.125,0.0,0.0,0.0
1664896030654,-0.46875,-0.6308594,0.6064453,0.21875,-0.125,-0.1875,0.0,0.0,0.0
1664896030714,-0.46484375,-0.64160156,0.5888672,-0.03125,-0.3125,-0.5625,0.0,0.0,0.0
1664896030744,-0.46484375,-0.64160156,0.6044922,-0.09375,-0.375,-0.6875,-52.375,-34.3125,-100.875
1664896030774,-0.47265625,-0.6376953,0.5986328,-0.21875,-0.0625,-0.25,0.0,0.0,0.0
1664896030835,-0.47265625,-0.6328125,0.59765625,-0.03125,0.21875,-0.0625,0.0,0.0,0.0
1664896030894,-0.46484375,-0.6328125,0.5966797,0.03125,0.0,-0.3125,0.0,0.0,0.0
1664896030897,-0.46484375,-0.64160156,0.60546875,0.03125,0.0,-0.0625,0.0,0.0,0.0
1664896030955,-0.4716797,-0.64160156,0.6015625,-0.03125,0.0,-0.3125,0.0,0.0,0.0
1664896030986,-0.46289062,-0.63964844,0.609375,0.03125,-0.125,-0.1875,0.0,0.0,0.0
1664896031014,-0.46972656,-0.6347656,0.61035156,0.09375,0.15625,-0.1875,0.0,0.0,0.0
1664896031077,-0.4716797,-0.640625,0.60253906,0.09375,-0.1875,-0.1875,0.0,0.0,0.0
1664896031104,-0.47265625,-0.64746094,0.6123047,-0.09375,-0.0625,-0.25,0.0,0.0,0.0
1664896031134,-0.4609375,-0.6386719,0.6123047,-0.03125,-0.1875,-0.3125,0.0,0.0,0.0
1664896031195,-0.4658203,-0.63964844,0.60839844,0.03125,-0.0625,-0.1875,0.0,0.0,0.0
1664896031226,-0.47753906,-0.6347656,0.59765625,-0.03125,0.0625,-0.125,0.0,0.0,0.0
1664896031253,-0.46972656,-0.6435547,0.60058594,0.03125,0.0,-0.1875,-50.25,-34.0,-100.125
1664896031315,-0.46484375,-0.640625,0.6044922,0.09375,-0.0625,-0.3125,0.0,0.0,0.0
1664896031343,-0.4609375,-0.64746094,0.60546875,-0.03125,-0.125,-0.4375,0.0,0.0,0.0
1664896031372,-0.46679688,-0.64160156,0.60058594,-0.03125,-0.0625,-0.1875,0.0,0.0,0.0
1664896031435,-0.46972656,-0.6376953,0.609375,0.09375,0.0,0.15625,0.0,0.0,0.0
1664896031464,-0.46679688,-0.63378906,0.6044922,0.15625,-0.3125,-0.3125,0.0,0.0,0.0
1664896031495,-0.46875,-0.63964844,0.5966797,-0.03125,-0.1875,-0.375,0.0,0.0,0.0
1664896031555,-0.47460938,-0.6376953,0.6035156,-0.15625,0.125,-0.125,0.0,0.0,0.0
1664896031586,-0.4736328,-0.6376953,0.60839844,-0.15625,0.15625,0.0625,0.0,0.0,0.0
1664896031644,-0.46875,-0.6455078,0.5966797,-0.15625,0.125,0.0625,0.0,0.0,0.0
1664896031675,-0.46484375,-0.6298828,0.6152344,0.03125,0.0625,0.125,0.0,0.0,0.0
1664896031704,-0.4638672,-0.64746094,0.6123047,0.03125,0.0625,0.15625,0.0,0.0,0.0
1664896031734,-0.4716797,-0.6386719,0.6044922,-0.21875,-0.125,0.0,-52.0625,-34.0,-99.375
1664896031795,-0.4658203,-0.6347656,0.5966797,0.03125,0.0,0.0625,0.0,0.0,0.0
1664896031823,-0.46679688,-0.63378906,0.60253906,-0.03125,0.0,0.15625,0.0,0.0,0.0
1664896031855,-0.46875,-0.63378906,0.6035156,0.09375,0.0625,0.21875,0.0,0.0,0.0
1664896031913,-0.46972656,-0.64453125,0.5957031,-0.03125,-0.125,0.0625,0.0,0.0,0.0
1664896031947,-0.46875,-0.63671875,0.6074219,-0.03125,-0.0625,0.15625,0.0,0.0,0.0
1664896031974,-0.47265625,-0.6376953,0.60839844,-0.21875,0.125,0.21875,0.0,0.0,0.0
1664896032034,-0.46875,-0.62890625,0.61621094,-0.15625,0.125,0.21875,0.0,0.0,0.0
1664896032065,-0.4658203,-0.63378906,0.61035156,-0.03125,0.0625,0.21875,0.0,0.0,0.0
1664896032094,-0.46777344,-0.6269531,0.59277344,-0.09375,0.125,0.0625,0.0,0.0,0.0
1664896032153,-0.4658203,-0.63671875,0.5996094,-0.09375,-0.0625,-0.0625,0.0,0.0,0.0
1664896032185,-0.47070312,-0.64160156,0.60839844,-0.09375,0.125,0.28125,0.0,0.0,0.0
1664896032215,-0.46679688,-0.63378906,0.61621094,-0.03125,-0.0625,0.40625,0.0,0.0,0.0
1664896032274,-0.4765625,-0.63964844,0.609375,0.15625,-0.0625,-0.1875,-51.125,-34.4375,-99.625
1664896032305,-0.47460938,-0.6376953,0.60839844,-0.21875,-0.0625,-0.3125,0.0,0.0,0.0
1664896032335,-0.46484375,-0.6347656,0.60253906,-0.34375,0.0625,-0.0625,0.0,0.0,0.0
1664896032394,-0.4716797,-0.6328125,0.6113281,-0.09375,0.0625,-0.125,0.0,0.0,0.0
1664896032425,-0.48242188,-0.63378906,0.609375,0.28125,0.0625,-0.375,0.0,0.0,0.0
1664896032455,-0.46289062,-0.63378906,0.60546875,0.15625,-0.0625,-0.3125,0.0,0.0,0.0
1664896032514,-0.46972656,-0.6455078,0.60839844,-0.125,-0.125,-0.34375,0.0,0.0,0.0
1664896032546,-0.47070312,-0.640625,0.60546875,0.125,-0.4375,-0.59375,0.0,0.0,0.0
1664896032574,-0.4658203,-0.62890625,0.5986328,0.0625,0.0,-0.34375,0.0,0.0,0.0
1664896032634,-0.47558594,-0.6279297,0.5986328,0.125,0.125,-0.25,0.0,0.0,0.0
1664896032664,-0.47851562,-0.6386719,0.60058594,0.125,-0.0625,-0.34375,0.0,0.0,0.0
1664896032697,-0.46875,-0.6435547,0.5996094,0.0,-0.1875,-0.46875,0.0,0.0,0.0
1664896032755,-0.4716797,-0.64160156,0.61035156,-0.125,-0.0625,-0.40625,-53.125,-34.75,-99.8125
1664896032784,-0.4658203,-0.64160156,0.5917969,-0.0625,-0.1875,-0.28125,0.0,0.0,0.0
1664896032815,-0.47265625,-0.6386719,0.60058594,0.0,-0.125,-0.40625,0.0,0.0,0.0
1664896032874,-0.46777344,-0.6298828,0.60058594,0.125,-0.125,-0.53125,0.0,0.0,0.0
1664896032906,-0.45996094,-0.6298828,0.60253906,0.0,-0.0625,-0.46875,0.0,0.0,0.0
1664896032935,-0.46777344,-0.6357422,0.60058594,0.0625,0.0,-0.34375,0.0,0.0,0.0
1664896032995,-0.4638672,-0.6347656,0.59765625,0.1875,0.0,-0.25,0.0,0.0,0.0
1664896033024,-0.46777344,-0.6357422,0.59375,0.53125,-0.1875,-0.59375,0.0,0.0,0.0
1664896033054,-0.4716797,-0.6279297,0.6044922,-0.125,-0.375,-0.90625,0.0,0.0,0.0
1664896033115,-0.4736328,-0.6357422,0.60253906,-0.0625,-0.25,-0.40625,0.0,0.0,0.0
1664896033177,-0.46289062,-0.64160156,0.6074219,0.0625,0.0625,-0.25,0.0,0.0,0.0
1664896033180,-0.46972656,-0.63671875,0.61035156,-0.0625,0.125,-0.1875,0.0,0.0,0.0
1664896033234,-0.46484375,-0.6464844,0.609375,0.1875,0.0625,-0.28125,0.0,0.0,0.0
1664896033264,-0.45996094,-0.6298828,0.6074219,0.3125,0.0,-0.25,-52.9375,-33.875,-99.625
1664896033294,-0.46484375,-0.63378906,0.60253906,-0.0625,-0.25,-0.1875,0.0,0.0,0.0
1664896033355,-0.4658203,-0.62890625,0.5996094,0.0625,-0.0625,-0.40625,0.0,0.0,0.0
1664896033386,-0.46972656,-0.6376953,0.6044922,0.1875,0.15625,-0.25,0.0,0.0,0.0
1664896033414,-0.46679688,-0.6386719,0.6044922,0.125,0.0625,-0.1875,0.0,0.0,0.0
1664896033475,-0.46484375,-0.63964844,0.61035156,-0.0625,-0.0625,-0.46875,0.0,0.0,0.0
1664896033504,-0.47265625,-0.6455078,0.60839844,0.125,-0.125,-0.28125,0.0,0.0,0.0
1664896033534,-0.47070312,-0.62890625,0.6074219,0.0625,0.0625,-0.1875,0.0,0.0,0.0
1664896033595,-0.47070312,-0.64160156,0.6035156,-0.0625,0.125,-0.1875,0.0,0.0,0.0
1664896033624,-0.4658203,-0.6347656,0.6035156,0.125,0.0,-0.28125,0.0,0.0,0.0
1664896033654,-0.46875,-0.63671875,0.59765625,-0.0625,-0.1875,-0.40625,0.0,0.0,0.0
1664896033713,-0.4609375,-0.6308594,0.609375,-0.25,0.0625,-0.34375,0.0,0.0,0.0
1664896033745,-0.47070312,-0.63964844,0.6064453,0.0625,0.125,0.0,-52.0625,-33.5625,-100.875
1664896033774,-0.45996094,-0.6308594,0.61035156,0.25,0.0,-0.125,0.0,0.0,0.0
1664896033834,-0.46679688,-0.63671875,0.60058594,0.0625,-0.25,-0.46875,0.0,0.0,0.0
1664896033865,-0.46191406,-0.63671875,0.60839844,0.1875,-0.4375,-0.65625,0.0,0.0,0.0
1664896033925,-0.47070312,-0.6386719,0.6113281,-0.0625,-0.0625,-0.25,0.0,0.0,0.0
1664896033955,-0.4580078,-0.63671875,0.6035156,0.0625,0.0,0.1875,0.0,0.0,0.0
1664896033985,-0.4638672,-0.6328125,0.6064453,0.0625,0.0625,0.125,0.0,0.0,0.0
1664896034045,-0.46679688,-0.640625,0.6044922,0.0,-0.0625,0.0,0.0,0.0,0.0
1664896034075,-0.47460938,-0.63671875,0.60058594,0.0625,0.0625,0.0,0.0,0.0,0.0
1664896034105,-0.46972656,-0.6435547,0.6035156,-0.1875,-0.0625,0.0,0.0,0.0,0.0
1664896034134,-0.4716797,-0.6347656,0.6015625,0.0,0.0,0.125,0.0,0.0,0.0
1664896034196,-0.4609375,-0.6328125,0.60839844,0.0,0.15625,0.0625,0.0,0.0,0.0
1664896034225,-0.47460938,-0.64160156,0.6044922,-0.3125,0.0,-0.34375,0.0,0.0,0.0
1664896034256,-0.46289062,-0.63964844,0.6064453,-0.125,0.40625,0.3125,-50.5625,-35.0625,-101.4375
1664896034344,-0.46777344,-0.6298828,0.60546875,0.0625,0.15625,0.0,0.0,0.0,0.0
1664896034347,-0.46679688,-0.6347656,0.6191406,-0.0625,0.125,0.0625,0.0,0.0,0.0
1664896034374,-0.46289062,-0.63183594,0.59472656,-0.125,0.15625,0.25,0.0,0.0,0.0
1664896034435,-0.4638672,-0.63183594,0.6074219,0.0,0.15625,0.1875,0.0,0.0,0.0
1664896034464,-0.46679688,-0.6386719,0.5966797,-0.0625,-0.125,0.0625,0.0,0.0,0.0
1664896034495,-0.4638672,-0.6357422,0.6044922,-0.125,0.28125,0.25,0.0,0.0,0.0
1664896034553,-0.47558594,-0.63671875,0.6044922,-0.125,0.15625,0.375,0.0,0.0,0.0
1664896034584,-0.46972656,-0.6279297,0.60546875,0.125,-0.125,0.25,0.0,0.0,0.0
1664896034614,-0.45996094,-0.6279297,0.58984375,0.0,-0.125,-0.1875,0.0,0.0,0.0
1664896034675,-0.45898438,-0.6357422,0.5908203,0.0,-0.125,0.0,0.0,0.0,0.0
1664896034704,-0.47070312,-0.6298828,0.60839844,-0.0625,0.0,0.1875,0.0,0.0,0.0
1664896034734,-0.4716797,-0.6357422,0.6064453,0.0625,0.0,0.3125,-52.0625,-34.75,-100.125
1664896034796,-0.46777344,-0.640625,0.60253906,0.125,0.0625,-0.125,0.0,0.0,0.0
1664896034826,-0.47070312,-0.63378906,0.6064453,0.1875,-0.0625,-0.25,0.0,0.0,0.0
1664896034855,-0.46777344,-0.64160156,0.6074219,0.0,-0.1875,-0.46875,0.0,0.0,0.0
1664896034914,-0.46777344,-0.63964844,0.5996094,0.0,-0.25,-0.53125,0.0,0.0,0.0
1664896034945,-0.47070312,-0.640625,0.6015625,0.25,0.0,-0.53125,0.0,0.0,0.0
1664896034975,-0.46972656,-0.6435547,0.6123047,0.0625,0.0625,-0.40625,0.0,0.0,0.0
1664896035035,-0.4794922,-0.640625,0.60839844,0.125,-0.0625,-0.40625,0.0,0.0,0.0
1664896035065,-0.46875,-0.6376953,0.6230469,0.25,0.0,-0.28125,0.0,0.0,0.0
1664896035094,-0.47070312,-0.6357422,0.6142578,0.0625,0.0,-0.1875,0.0,0.0,0.0
1664896035153,-0.46777344,-0.640625,0.6035156,0.0,-0.1875,-0.125,0.0,0.0,0.0
1664896035184,-0.47070312,-0.6376953,0.5986328,0.125,0.0625,-0.1875,0.0,0.0,0.0
1664896035215,-0.46875,-0.62890625,0.59765625,0.0,-0.0625,-0.40625,0.0,0.0,0.0
1664896035274,-0.46875,-0.6376953,0.6123047,0.0,0.0,-0.53125,-51.625,-34.75,-101.125
1664896035306,-0.46777344,-0.6386719,0.6074219,0.0,-0.0625,-0.28125,0.0,0.0,0.0
1664896035335,-0.47070312,-0.6347656,0.60839844,0.40625,-0.0625,-0.28125,0.0,0.0,0.0
1664896035394,-0.47070312,-0.6357422,0.60058594,-0.0625,-0.1875,-0.65625,0.0,0.0,0.0
1664896035456,-0.4609375,-0.63671875,0.6220703,-0.0625,-0.375,-0.53125,0.0,0.0,0.0
1664896035458,-0.45410156,-0.640625,0.59765625,-0.25,0.0625,-0.25,0.0,0.0,0.0
1664896035514,-0.47070312,-0.6357422,0.60546875,0.0625,0.21875,-0.125,0.0,0.0,0.0
1664896035546,-0.46777344,-0.6435547,0.6035156,0.125,0.0,-0.40625,0.0,0.0,0.0
1664896035574,-0.4765625,-0.6308594,0.60058594,0.1875,0.0625,-0.25,0.0,0.0,0.0
1664896035636,-0.4560547,-0.64160156,0.6015625,-0.125,-0.125,-0.34375,0.0,0.0,0.0
1664896035665,-0.46875,-0.6357422,0.6152344,0.0625,0.0625,-0.40625,0.0,0.0,0.0
1664896035695,-0.47070312,-0.63964844,0.6015625,0.25,0.0625,-0.0625,0.0,0.0,0.0
1664896035754,-0.4716797,-0.64746094,0.60546875,0.0,0.0625,-0.25,-51.75,-34.1875,-99.1875
1664896035785,-0.46484375,-0.640625,0.59765625,0.0,-0.0625,-0.28125,0.0,0.0,0.0
1664896035814,-0.46679688,-0.6376953,0.59765625,-0.0625,-0.0625,-0.1875,0.0,0.0,0.0
1664896035874,-0.46289062,-0.64453125,0.6064453,0.0625,0.125,-0.28125,0.0,0.0,0.0
1664896035904,-0.46191406,-0.63378906,0.6113281,0.125,0.0625,-0.25,0.0,0.0,0.0
1664896035934,-0.45898438,-0.6347656,0.6113281,-0.0625,-0.0625,-0.1875,0.0,0.0,0.0
1664896035995,-0.46289062,-0.63671875,0.59765625,0.125,-0.0625,-0.1875,0.0,0.0,0.0
1664896036023,-0.46679688,-0.6376953,0.59765625,-0.1875,-0.1875,-0.34375,0.0,0.0,0.0
1664896036054,-0.46777344,-0.6279297,0.61621094,0.0625,0.0625,-0.25,0.0,0.0,0.0
1664896036114,-0.47070312,-0.640625,0.6152344,-0.125,0.0625,0.0625,0.0,0.0,0.0
1664896036144,-0.46972656,-0.6328125,0.59277344,0.40625,-0.1875,-0.25,0.0,0.0,0.0
1664896036204,-0.46972656,-0.63378906,0.609375,-0.0625,-0.1875,-0.53125,0.0,0.0,0.0
1664896036235,-0.46679688,-0.63964844,0.6035156,-0.0625,-0.3125,-0.40625,0.0,0.0,0.0
1664896036265,-0.46289062,-0.63964844,0.6113281,-0.1875,-0.0625,-0.25,-51.3125,-36.125,-100.375
1664896036294,-0.4794922,-0.63671875,0.61035156,-0.0625,0.15625,-0.0625,0.0,0.0,0.0
1664896036355,-0.4638672,-0.64160156,0.6113281,0.0625,0.0625,-0.125,0.0,0.0,0.0
1664896036413,-0.4658203,-0.6357422,0.59765625,0.0,-0.0625,-0.0625,0.0,0.0,0.0
1664896036417,-0.4638672,-0.6328125,0.59765625,-0.25,-0.0625,-0.25,0.0,0.0,0.0
1664896036475,-0.4716797,-0.6386719,0.60253906,0.25,0.125,-0.28125,0.0,0.0,0.0
1664896036504,-0.4658203,-0.64160156,0.609375,0.3125,0.125,-0.1875,0.0,0.0,0.0
1664896036534,-0.45996094,-0.6464844,0.59375,0.0625,0.0625,-0.125,0.0,0.0,0.0
1664896036595,-0.46875,-0.63671875,0.60839844,-0.125,-0.0625,-0.0625,0.0,0.0,0.0
1664896036624,-0.45996094,-0.6357422,0.6123047,0.125,0.0,-0.125,0.0,0.0,0.0
1664896036655,-0.4658203,-0.63671875,0.6064453,-0.125,-0.125,-0.1875,0.0,0.0,0.0
1664896036714,-0.46191406,-0.6376953,0.5966797,0.1875,0.0625,0.0625,0.0,0.0,0.0
1664896036745,-0.47265625,-0.6376953,0.60546875,0.0625,0.0625,-0.0625,-52.9375,-34.9375,-101.3125
1664896036773,-0.4716797,-0.63378906,0.5966797,-0.0625,0.0,-0.125,0.0,0.0,0.0
1664896036835,-0.47070312,-0.6425781,0.6123047,-0.0625,0.0,-0.125,0.0,0.0,0.0
1664896036865,-0.46777344,-0.6386719,0.6035156,-0.0625,0.15625,0.0625,0.0,0.0,0.0
1664896036893,-0.4580078,-0.6347656,0.61035156,-0.1875,0.125,0.5,0.0,0.0,0.0
1664896036954,-0.46679688,-0.6269531,0.59472656,0.3125,0.125,0.1875,0.0,0.0,0.0
1664896036986,-0.47070312,-0.6347656,0.6113281,-0.0625,-0.125,-0.34375,0.0,0.0,0.0
1664896037015,-0.48046875,-0.6435547,0.5996094,0.0625,0.0,-0.0625,0.0,0.0,0.0
1664896037076,-0.46484375,-0.6328125,0.6035156,-0.4375,-0.0625,0.125,0.0,0.0,0.0
1664896037104,-0.46777344,-0.63671875,0.61621094,-0.125,0.125,0.125,0.0,0.0,0.0
1664896037136,-0.4658203,-0.6347656,0.6035156,-0.0625,0.15625,0.1875,0.0,0.0,0.0
1664896037196,-0.47070312,-0.6347656,0.5986328,0.0,0.15625,0.25,0.0,0.0,0.0
1664896037224,-0.47070312,-0.6376953,0.60253906,-0.125,-0.125,0.1875,0.0,0.0,0.0
1664896037254,-0.4765625,-0.6376953,0.61035156,0.0,0.0625,0.0625,-51.3125,-34.3125,-99.0625
1664896037316,-0.46875,-0.6357422,0.6015625,0.1875,0.0,0.0625,0.0,0.0,0.0
1664896037347,-0.47070312,-0.640625,0.6074219,0.1875,0.125,0.125,0.0,0.0,0.0
1664896037374,-0.4658203,-0.6347656,0.60058594,0.0,-0.0625,0.0,0.0,0.0,0.0
1664896037434,-0.47265625,-0.6425781,0.5957031,0.0,0.0625,0.0625,0.0,0.0,0.0
1664896037465,-0.46679688,-0.6328125,0.6044922,0.0,0.0625,-0.0625,0.0,0.0,0.0
1664896037494,-0.46972656,-0.63964844,0.5986328,-0.0625,-0.125,-0.34375,0.0,0.0,0.0
1664896037556,-0.47558594,-0.6308594,0.6074219,0.25,-0.0625,-0.53125,0.0,0.0,0.0
1664896037586,-0.4609375,-0.6425781,0.5908203,0.25,-0.25,-0.46875,0.0,0.0,0.0
1664896037614,-0.4716797,-0.64941406,0.5986328,0.0,-0.125,-0.34375,0.0,0.0,0.0
1664896037676,-0.4736328,-0.63183594,0.6044922,0.0,0.0625,-0.1875,0.0,0.0,0.0
1664896037735,-0.47753906,-0.62890625,0.60058594,0.65625,-0.125,-0.40625,0.0,0.0,0.0
1664896037737,-0.4794922,-0.63964844,0.60253906,0.25,-0.375,-0.90625,-51.625,-33.5625,-101.125
1664896037795,-0.46289062,-0.63964844,0.6044922,0.125,-0.25,-0.59375,0.0,0.0,0.0
1664896037825,-0.4716797,-0.6357422,0.5996094,-0.25,-0.0625,-0.34375,0.0,0.0,0.0
1664896037855,-0.47558594,-0.63964844,0.6015625,0.0625,0.0625,-0.34375,0.0,0.0,0.0
1664896037913,-0.46289062,-0.6347656,0.59765625,-0.0625,0.0,-0.34375,0.0,0.0,0.0
1664896037945,-0.46972656,-0.640625,0.59375,0.0625,-0.1875,-0.25,0.0,0.0,0.0
1664896037975,-0.47460938,-0.6376953,0.60839844,-0.0625,0.0625,-0.40625,0.0,0.0,0.0
1664896038034,-0.46289062,-0.63671875,0.60058594,0.3125,0.0,-0.53125,0.0,0.0,0.0
1664896038066,-0.46875,-0.6347656,0.61621094,0.40625,0.125,-0.34375,0.0,0.0,0.0
1664896038095,-0.4560547,-0.6308594,0.609375,0.125,0.21875,-0.25,0.0,0.0,0.0
1664896038153,-0.47070312,-0.640625,0.60546875,0.0,-0.1875,-0.25,0.0,0.0,0.0
1664896038184,-0.47460938,-0.6308594,0.61328125,-0.0625,-0.1875,-0.46875,0.0,0.0,0.0
1664896038214,-0.46777344,-0.640625,0.60546875,-0.125,-0.0625,-0.25,0.0,0.0,0.0
1664896038274,-0.4638672,-0.62597656,0.6064453,0.125,-0.125,-0.125,-52.375,-33.5625,-100.875
1664896038305,-0.47558594,-0.63378906,0.6123047,0.0625,0.0,-0.34375,0.0,0.0,0.0
1664896038335,-0.4658203,-0.6435547,0.6142578,0.0625,-0.25,-0.53125,0.0,0.0,0.0
1664896038393,-0.4580078,-0.6455078,0.6074219,0.0625,0.15625,-0.40625,0.0,0.0,0.0
1664896038426,-0.4658203,-0.63671875,0.6015625,-0.1875,0.0625,-0.0625,0.0,0.0,0.0
1664896038485,-0.47070312,-0.62890625,0.6035156,0.34375,-0.375,-0.125,0.0,0.0,0.0
1664896038514,-0.46484375,-0.6347656,0.59765625,-0.0625,-0.3125,-0.65625,0.0,0.0,0.0
1664896038545,-0.46777344,-0.6425781,0.6123047,-0.1875,-0.375,-0.53125,0.0,0.0,0.0
1664896038575,-0.45898438,-0.6376953,0.6152344,-0.3125,-0.0625,-0.25,0.0,0.0,0.0
1664896038633,-0.46777344,-0.62890625,0.59765625,-0.125,-0.125,-0.125,0.0,0.0,0.0
1664896038664,-0.4638672,-0.64746094,0.6044922,0.0,0.125,-0.125,0.0,0.0,0.0
1664896038695,-0.46289062,-0.63671875,0.6064453,0.125,-0.125,0.0,0.0,0.0,0.0
1664896038755,-0.46679688,-0.6347656,0.6044922,-0.125,-0.0625,-0.1875,-51.125,-34.4375,-100.6875
1664896038784,-0.46191406,-0.6435547,0.59472656,0.0,-0.125,-0.28125,0.0,0.0,0.0
1664896038814,-0.46875,-0.6435547,0.5986328,0.0625,0.0625,-0.25,0.0,0.0,0.0
1664896038874,-0.4580078,-0.63671875,0.6152344,0.0,-0.0625,-0.25,0.0,0.0,0.0
1664896038904,-0.45898438,-0.640625,0.60058594,-0.1875,-0.125,-0.28125,0.0,0.0,0.0
1664896038935,-0.4716797,-0.6269531,0.61035156,0.125,-0.1875,-0.25,0.0,0.0,0.0
1664896038995,-0.45898438,-0.640625,0.6113281,0.0625,0.0,-0.1875,0.0,0.0,0.0
1664896039023,-0.4560547,-0.63183594,0.5957031,-0.0625,-0.0625,-0.125,0.0,0.0,0.0
1664896039055,-0.46679688,-0.6386719,0.60546875,0.1875,-0.4375,-0.40625,0.0,0.0,0.0
1664896039116,-0.4638672,-0.6376953,0.60058594,0.0625,-0.125,-0.28125,0.0,0.0,0.0
1664896039144,-0.47460938,-0.6328125,0.6142578,0.125,0.0,-0.1875,0.0,0.0,0.0
1664896039175,-0.45703125,-0.6357422,0.5986328,0.0625,0.0625,0.25,0.0,0.0,0.0
1664896039235,-0.45996094,-0.6347656,0.6044922,0.0,-0.125,-0.125,0.0,0.0,0.0
1664896039263,-0.4716797,-0.6386719,0.6035156,-0.125,-0.375,-0.46875,-49.9375,-34.1875,-99.1875
1664896039294,-0.47070312,-0.6357422,0.5878906,0.0,-0.1875,-0.0625,0.0,0.0,0.0
1664896039355,-0.4560547,-0.6376953,0.6171875,-0.4375,0.125,0.125,0.0,0.0,0.0
1664896039384,-0.47070312,-0.6347656,0.6123047,-0.1875,-0.125,0.125,0.0,0.0,0.0
1664896039413,-0.46679688,-0.6347656,0.6074219,-0.1875,-0.0625,0.0625,0.0,0.0,0.0
1664896039476,-0.46484375,-0.640625,0.5986328,0.0,0.0,0.1875,0.0,0.0,0.0
1664896039504,-0.46875,-0.63671875,0.61035156,-0.3125,0.0625,0.0625,0.0,0.0,0.0
1664896039534,-0.45703125,-0.6435547,0.6035156,0.0625,0.125,0.125,0.0,0.0,0.0
1664896039595,-0.46289062,-0.6484375,0.61816406,0.125,0.0625,0.3125,0.0,0.0,0.0
1664896039624,-0.47070312,-0.63671875,0.609375,-0.0625,0.0625,0.1875,0.0,0.0,0.0
1664896039654,-0.46777344,-0.640625,0.60058594,-0.125,-0.125,0.0,0.0,0.0,0.0
1664896039714,-0.46777344,-0.6386719,0.61621094,0.0625,0.0,0.0625,0.0,0.0,0.0
1664896039747,-0.46191406,-0.63671875,0.6142578,0.0,-0.0625,-0.0625,-52.1875,-33.125,-99.625
1664896039774,-0.46777344,-0.6425781,0.6044922,-0.25,-0.25,0.0,0.0,0.0,0.0
1664896039834,-0.47460938,-0.6376953,0.59765625,0.0625,0.0,0.0,0.0,0.0,0.0
1664896039865,-0.46972656,-0.63964844,0.6015625,0.0,-0.0625,0.0,0.0,0.0,0.0
1664896039894,-0.46875,-0.64746094,0.61035156,-0.0625,0.0625,-0.125,0.0,0.0,0.0
1664896039955,-0.46972656,-0.6425781,0.5996094,-0.0625,0.15625,0.4375,0.0,0.0,0.0
1664896040014,-0.47265625,-0.62597656,0.609375,0.34375,-0.125,0.125,0.0,0.0,0.0
1664896040017,-0.46289062,-0.640625,0.6015625,-0.0625,-0.1875,-0.40625,0.0,0.0,0.0
1664896040075,-0.46972656,-0.6308594,0.6044922,-0.0625,-0.25,-0.28125,0.0,0.0,0.0
1664896040105,-0.4716797,-0.640625,0.6035156,-0.125,-0.125,-0.28125,0.0,0.0,0.0
1664896040134,-0.47265625,-0.6357422,0.609375,0.0,-0.125,-0.46875,0.0,0.0,0.0
1664896040195,-0.46484375,-0.6435547,0.5996094,0.125,-0.0625,-0.1875,0.0,0.0,0.0
1664896040226,-0.45996094,-0.6328125,0.61816406,0.125,-0.25,-0.1875,0.0,0.0,0.0
1664896040254,-0.46875,-0.6376953,0.60253906,-0.125,-0.1875,-0.46875,-52.0625,-35.375,-100.375
1664896040316,-0.47558594,-0.6347656,0.5917969,0.125,-0.125,-0.34375,0.0,0.0,0.0
1664896040345,-0.4716797,-0.63671875,0.60253906,0.125,-0.125,-0.40625,0.0,0.0,0.0
1664896040375,-0.4638672,-0.63378906,0.59765625,0.0,-0.1875,-0.34375,0.0,0.0,0.0
1664896040436,-0.47070312,-0.640625,0.5986328,0.0,-0.3125,-0.46875,0.0,0.0,0.0
1664896040465,-0.47070312,-0.63378906,0.60546875,0.0625,-0.1875,-0.34375,0.0,0.0,0.0
1664896040495,-0.4716797,-0.6308594,0.6074219,-0.125,-0.0625,-0.46875,0.0,0.0,0.0
1664896040555,-0.4736328,-0.63964844,0.60839844,0.0625,-0.125,-0.28125,0.0,0.0,0.0
1664896040584,-0.4638672,-0.6455078,0.60546875,0.125,-0.0625,-0.25,0.0,0.0,0.0
1664896040614,-0.46289062,-0.6328125,0.6113281,0.0625,-0.0625,-0.34375,0.0,0.0,0.0
1664896040674,-0.47265625,-0.6347656,0.6035156,0.0625,-0.0625,-0.28125,0.0,0.0,0.0
1664896040705,-0.46777344,-0.6347656,0.62109375,0.0625,0.0625,-0.25,0.0,0.0,0.0
1664896040768,-0.46875,-0.6376953,0.61621094,0.34375,-0.1875,-0.25,-52.5,-33.125,-99.9375
1664896040793,-0.46972656,-0.6376953,0.59375,-0.0625,-0.375,-0.59375,0.0,0.0,0.0
1664896040824,-0.47558594,-0.6455078,0.59765625,0.0,-0.375,-0.59375,0.0,0.0,0.0
1664896040854,-0.4609375,-0.6435547,0.6074219,-0.125,0.0625,-0.28125,0.0,0.0,0.0
1664896040914,-0.46777344,-0.63964844,0.6064453,0.0625,0.0,-0.1875,0.0,0.0,0.0
1664896040948,-0.46972656,-0.640625,0.6074219,0.0625,0.125,-0.1875,0.0,0.0,0.0
1664896040975,-0.4716797,-0.6328125,0.6044922,-0.0625,-0.0625,-0.125,0.0,0.0,0.0
1664896041034,-0.46289062,-0.64160156,0.58691406,-0.0625,-0.125,-0.28125,0.0,0.0,0.0
1664896041064,-0.4716797,-0.64160156,0.6064453,0.0,-0.0625,-0.25,0.0,0.0,0.0
1664896041094,-0.4609375,-0.6298828,0.61328125,0.0625,0.0,-0.0625,0.0,0.0,0.0
1664896041153,-0.47265625,-0.63378906,0.5996094,-0.0625,-0.1875,-0.1875,0.0,0.0,0.0
1664896041185,-0.4658203,-0.6347656,0.6123047,-0.1875,-0.125,-0.28125,0.0,0.0,0.0
1664896041216,-0.4736328,-0.640625,0.6015625,0.125,0.0,-0.25,0.0,0.0,0.0
1664896041274,-0.46777344,-0.6386719,0.6015625,0.0,-0.1875,-0.28125,-52.5,-34.4375,-100.25
1664896041304,-0.4638672,-0.6376953,0.5957031,0.0,0.0,-0.125,0.0,0.0,0.0
1664896041334,-0.46679688,-0.63671875,0.5996094,0.0625,-0.125,-0.25,0.0,0.0,0.0
1664896041394,-0.46972656,-0.6357422,0.5957031,0.0,-0.3125,-0.34375,0.0,0.0,0.0
1664896041426,-0.47070312,-0.6347656,0.60839844,-0.125,-0.125,-0.25,0.0,0.0,0.0
1664896041455,-0.46484375,-0.63964844,0.6074219,0.1875,0.0625,-0.125,0.0,0.0,0.0
1664896041514,-0.46679688,-0.63378906,0.6113281,-0.3125,0.0,0.0,0.0,0.0,0.0
1664896041544,-0.4638672,-0.6328125,0.60839844,0.34375,-0.0625,-0.46875,0.0,0.0,0.0
1664896041575,-0.44921875,-0.64746094,0.6044922,-0.0625,-0.25,-0.53125,0.0,0.0,0.0
1664896041634,-0.46679688,-0.63964844,0.60839844,-0.03125,-0.09375,0.03125,0.0,0.0,0.0
1664896041663,-0.4658203,-0.64160156,0.60253906,-0.09375,0.15625,0.15625,0.0,0.0,0.0
1664896041695,-0.47265625,-0.6357422,0.609375,-0.03125,0.09375,0.15625,0.0,0.0,0.0
1664896041753,-0.46875,-0.6435547,0.609375,0.03125,0.09375,0.21875,-53.125,-34.75,-100.875
1664896041784,-0.46679688,-0.6386719,0.60253906,0.09375,-0.03125,0.21875,0.0,0.0,0.0
1664896041814,-0.46972656,-0.640625,0.5966797,-0.21875,-0.15625,-0.09375,0.0,0.0,0.0
1664896041875,-0.46289062,-0.63964844,0.60839844,0.28125,0.03125,0.03125,0.0,0.0,0.0
1664896041904,-0.46484375,-0.6386719,0.61328125,0.28125,0.34375,0.21875,0.0,0.0,0.0
1664896041934,-0.46679688,-0.6357422,0.6015625,0.03125,0.09375,0.28125,0.0,0.0,0.0
1664896041995,-0.46777344,-0.6347656,0.60058594,-0.15625,-0.03125,0.15625,0.0,0.0,0.0
1664896042023,-0.46777344,-0.640625,0.5986328,-0.15625,0.09375,0.28125,0.0,0.0,0.0
1664896042055,-0.46289062,-0.63964844,0.6074219,-0.46875,-0.09375,0.09375,0.0,0.0,0.0
1664896042115,-0.45996094,-0.6425781,0.5966797,-0.46875,0.03125,0.28125,0.0,0.0,0.0
1664896042144,-0.4716797,-0.64453125,0.60546875,-0.21875,0.21875,0.53125,0.0,0.0,0.0
1664896042174,-0.47070312,-0.625,0.5908203,-0.09375,-0.03125,0.21875,0.0,0.0,0.0
1664896042235,-0.46289062,-0.6376953,0.6064453,-0.21875,-0.03125,0.28125,0.0,0.0,0.0
1664896042295,-0.46875,-0.6347656,0.5986328,-0.21875,0.28125,0.40625,-52.9375,-35.1875,-99.625
1664896042326,-0.46484375,-0.64453125,0.609375,-0.15625,0.09375,0.65625,0.0,0.0,0.0
1664896042354,-0.4716797,-0.6308594,0.609375,-0.03125,-0.03125,0.46875,0.0,0.0,0.0
1664896042385,-0.47070312,-0.6376953,0.6064453,-0.53125,-0.09375,0.09375,0.0,0.0,0.0
1664896042414,-0.45898438,-0.63964844,0.6035156,-0.21875,0.09375,0.28125,0.0,0.0,0.0
1664896042474,-0.46972656,-0.6425781,0.60839844,-0.21875,0.15625,0.46875,0.0,0.0,0.0
1664896042506,-0.46875,-0.6298828,0.6015625,-0.03125,0.40625,0.84375,0.0,0.0,0.0
1664896042533,-0.4560547,-0.6357422,0.60839844,-0.03125,0.28125,0.34375,0.0,0.0,0.0
1664896042595,-0.4638672,-0.63964844,0.6074219,-1.5,0.15625,1.0625,0.0,0.0,0.0
1664896042625,-0.47070312,-0.6425781,0.6123047,-3.09375,0.46875,1.1875,0.0,0.0,0.0
1664896042655,-0.47070312,-0.6347656,0.5888672,-3.5625,0.34375,-1.5625,0.0,0.0,0.0
1664896042715,-0.47265625,-0.6533203,0.60253906,-0.46875,4.5,2.59375,0.0,0.0,0.0
1664896042744,-0.46875,-0.6376953,0.6044922,-0.75,1.4375,3.5,-52.1875,-35.5,-100.6875
1664896042774,-0.47558594,-0.6425781,0.60253906,-0.65625,0.8125,2.21875,0.0,0.0,0.0
1664896042834,-0.4814453,-0.6152344,0.59277344,0.5625,2.78125,0.59375,0.0,0.0,0.0
1664896042866,-0.47558594,-0.62890625,0.59375,0.28125,1.0,2.1875,0.0,0.0,0.0
1664896042893,-0.48339844,-0.62890625,0.59472656,0.53125,-0.46875,1.75,0.0,0.0,0.0
1664896042956,-0.46679688,-0.6220703,0.5878906,-0.21875,-0.6875,0.59375,0.0,0.0,0.0
1664896042984,-0.4814453,-0.65722656,0.5986328,-0.28125,-0.59375,-0.09375,0.0,0.0,0.0
1664896043043,-0.47851562,-0.6464844,0.5986328,0.75,0.34375,-0.09375,0.0,0.0,0.0
1664896043074,-0.4794922,-0.6328125,0.6035156,0.15625,0.59375,0.28125,0.0,0.0,0.0
1664896043104,-0.47558594,-0.6425781,0.59277344,0.15625,0.34375,-0.09375,0.0,0.0,0.0
1664896043135,-0.47558594,-0.62597656,0.60546875,2.03125,1.1875,0.40625,0.0,0.0,0.0
1664896043196,-0.47851562,-0.6269531,0.60253906,1.25,1.0625,0.34375,0.0,0.0,0.0
1664896043225,-0.49121094,-0.6152344,0.5966797,-0.46875,-0.03125,0.34375,0.0,0.0,0.0
1664896043253,-0.49316406,-0.625,0.5957031,-1.8125,-0.75,0.03125,-53.125,-34.75,-99.375
1664896043315,-0.48828125,-0.64941406,0.59472656,-1.75,-1.0625,-0.03125,0.0,0.0,0.0
1664896043342,-0.48242188,-0.6542969,0.58496094,-0.46875,-0.6875,0.21875,0.0,0.0,0.0
