# Sensor type: Respeck
# Activity type: Running
# Activity code: 11
# Subject id: s1800825
# Notes: 
timestamp,accel_x,accel_y,accel_z,gyro_x,gyro_y,gyro_z
1664567283795,0.033447266,-0.9859009,0.07659912,4.078125,3.375,1.21875
1664567283843,0.0715332,-0.95562744,0.13470459,7.734375,4.578125,2.03125
1664567283871,0.03955078,-0.9585571,0.13201904,5.78125,2.0625,2.078125
1664567283917,0.036132812,-0.97442627,0.12005615,5.234375,0.546875,2.46875
1664567283961,0.096191406,-0.94000244,0.13153076,9.640625,-3.140625,2.984375
1664567283991,0.0068359375,-0.97735596,0.12762451,9.734375,-6.65625,3.46875
1664567284036,0.05834961,-0.9258423,0.117126465,10.03125,-4.3125,6.859375
1664567284082,0.022460938,-0.9446411,0.070495605,10.296875,4.453125,7.75
1664567284111,0.02758789,-0.9019165,0.0289917,14.828125,6.28125,8.109375
1664567284156,0.076416016,-0.87823486,0.02557373,21.421875,11.8125,9.203125
1664567284202,0.040283203,-1.0703735,0.06781006,23.6875,10.21875,8.265625
1664567284232,0.106933594,-1.0147095,0.07537842,31.8125,8.96875,14.46875
1664567284277,0.13452148,-1.0332642,0.06561279,27.40625,1.8125,18.703125
1664567284321,0.052978516,-1.1487427,0.14813232,25.3125,-3.78125,22.953125
1664567284368,0.104003906,-1.2244263,0.050231934,17.8125,-7.484375,25.203125
1664567284396,0.13183594,-0.9541626,-0.1260376,11.765625,-0.8125,28.90625
1664567284442,0.33081055,-0.519104,-0.3164673,17.734375,-12.59375,39.34375
1664567284471,0.3395996,-0.9451294,-0.2793579,-7.71875,-28.25,-0.609375
1664567284516,0.43554688,-1.2747192,-0.3748169,-5.796875,8.203125,-1.71875
1664567284562,0.8991699,-1.6187134,-0.3110962,0.0625,-1.234375,4.53125
1664567284592,0.55737305,-2.0,-0.2786255,-3.984375,-12.90625,-0.34375
1664567284621,0.5515137,-2.0,0.25823975,8.375,8.4375,-7.65625
1664567284682,0.099121094,-1.3076782,0.042419434,-13.3125,37.4375,2.53125
1664567284712,0.36328125,0.085876465,-0.0635376,18.890625,9.21875,-1.640625
1664567284741,-0.09423828,0.45404053,-0.5545044,10.03125,-30.59375,-3.734375
1664567284804,0.19628906,-0.10308838,0.16546631,10.875,-27.90625,-15.390625
1664567284831,-0.31079102,-0.09844971,-0.14483643,-7.03125,-6.890625,-15.28125
1664567284861,0.16186523,0.022399902,-0.2000122,-6.75,-4.140625,1.09375
1664567284921,0.23535156,-0.4085083,-0.57110596,-17.203125,-20.625,-15.578125
1664567284953,0.72021484,-1.0239868,-0.29766846,11.40625,-11.34375,19.1875
1664567284981,0.62768555,-2.0,-0.24224854,-11.390625,-10.859375,-26.359375
1664567285056,0.14672852,-2.0,0.1696167,24.796875,71.359375,23.90625
1664567285057,0.61450195,-0.9067993,-0.08795166,-56.40625,110.71875,52.84375
1664567285101,0.10083008,-1.3425903,-0.35211182,-7.03125,10.1875,-2.96875
1664567285161,0.6269531,0.09979248,-0.07891846,42.71875,13.375,30.375
1664567285176,-0.29638672,-0.055725098,-0.2901001,-24.328125,-29.640625,-1.421875
1664567285222,0.3630371,0.029968262,0.018249512,-5.046875,-36.125,-8.203125
1664567285282,-0.072265625,-0.4036255,-0.6428833,-41.015625,-23.6875,-15.25
1664567285296,0.8679199,-1.4251099,-0.25030518,-49.921875,44.75,-0.75
1664567285342,1.3261719,-2.0,0.3361206,18.953125,-29.140625,-39.046875
1664567285371,0.6323242,-2.0,-0.42559814,33.78125,-10.5,-15.4375
1664567285417,0.6645508,-1.9004517,0.28045654,3.515625,13.984375,-29.203125
1664567285461,0.3330078,-0.45391846,-0.02935791,29.40625,-36.21875,18.21875
1664567285492,-0.9875488,1.3014526,-0.73760986,1.828125,-48.03125,-16.078125
1664567285537,0.46118164,-0.42437744,0.11053467,-16.859375,-17.296875,-54.640625
1664567285582,-0.06591797,-0.13677979,-0.19439697,-9.828125,14.796875,-16.875
1664567285611,0.42138672,0.25335693,-0.070373535,12.53125,-17.234375,7.53125
1664567285657,0.3244629,-0.35943604,-0.78912354,-29.75,-29.34375,-25.984375
1664567285702,1.2404785,-2.0,-0.37994385,40.75,-8.109375,59.640625
1664567285731,-0.1628418,-2.0,0.55633545,45.125,-4.640625,-10.4375
1664567285777,0.5263672,-1.7334595,-0.2793579,-59.140625,98.59375,5.203125
1664567285851,0.55322266,-1.3425903,-0.008117676,-22.265625,34.984375,-6.65625
1664567285856,-0.45263672,0.14520264,-0.1765747,6.65625,72.25,17.484375
1664567285897,0.4519043,0.31610107,-0.56695557,-16.53125,14.359375,25.65625
1664567285941,0.3071289,-0.030822754,0.14788818,12.71875,-31.203125,7.421875
1664567285971,-0.36694336,0.16693115,-0.11431885,-28.828125,-15.640625,-9.921875
1664567286016,0.07397461,0.0067749023,-0.36431885,-10.84375,5.21875,-6.25
1664567286061,0.70092773,-1.1550903,-0.43878174,-44.5625,-37.265625,-12.265625
1664567286091,1.9448242,-2.0,-0.2876587,37.828125,-23.546875,-3.890625
1664567286121,-0.19799805,-2.0,-0.3399048,-8.53125,-59.453125,-29.546875
1664567286184,0.17675781,-2.0,0.15081787,-20.828125,-1.90625,-12.9375
1664567286211,0.7233887,-0.6223755,0.16595459,31.328125,-18.46875,8.265625
1664567286241,-0.9387207,0.8908081,-0.50909424,14.359375,-54.375,12.921875
1664567286302,0.40576172,0.05633545,0.04437256,-1.484375,-15.46875,-29.421875
1664567286332,-0.24560547,-0.3657837,0.13446045,21.765625,1.484375,-15.171875
1664567286377,0.31933594,0.12982178,-0.28912354,-3.21875,11.890625,5.890625
1664567286422,0.6123047,0.12445068,-0.5671997,23.671875,-21.125,8.21875
1664567286437,0.81274414,-1.1983032,-0.77838135,-3.859375,-55.40625,24.171875
1664567286482,0.26635742,-2.0,0.53656006,5.15625,-0.8125,-63.21875
1664567286541,0.68237305,-2.0,-0.23687744,-51.71875,145.1875,35.0625
1664567286557,0.9482422,-1.1126099,-0.11553955,-38.0,24.375,4.328125
1664567286604,-0.75,-0.61798096,-0.014709473,28.1875,40.484375,3.8125
1664567286663,0.29907227,0.91082764,-0.659729,-31.875,3.265625,31.59375
1664567286676,0.45043945,-0.25152588,-0.09210205,-4.265625,-21.421875,16.171875
1664567286723,-0.28808594,0.27044678,0.015075684,-8.765625,-17.828125,-7.765625
1664567286782,-0.008544922,0.012634277,-0.2744751,-26.21875,6.34375,2.515625
1664567286797,0.6064453,-0.78009033,-0.46148682,-27.921875,-21.015625,-20.296875
1664567286842,1.999939,-2.0,0.35784912,4.75,21.109375,-1.734375
1664567286874,-0.88256836,-2.0,-0.17437744,30.734375,-29.671875,-16.203125
1664567286918,-0.08544922,-2.0,0.070495605,18.5,-16.828125,-18.640625
1664567286964,0.9609375,-0.8599243,0.3661499,15.84375,-15.90625,1.671875
1664567286993,-0.55859375,1.007019,-0.7078247,-6.328125,-62.328125,-6.703125
1664567287036,0.22705078,0.24725342,0.09222412,1.296875,-19.9375,-27.921875
1664567287082,-0.32080078,-0.54351807,0.1708374,-0.265625,11.71875,-26.078125
1664567287112,0.24243164,0.11932373,-0.3225708,4.578125,-5.375,10.84375
1664567287157,0.6789551,0.34661865,-0.09307861,20.6875,-8.640625,7.984375
1664567287202,0.114746094,-1.125061,-0.9143677,-29.015625,-0.09375,-10.015625
1664567287232,1.9938965,-2.0,1.230896,70.09375,31.375,17.125
1664567287277,-0.5336914,-2.0,0.16546631,-57.4375,67.390625,3.21875
1664567287322,0.9489746,-1.4326782,-0.68829346,-74.890625,44.59375,-0.703125
1664567287351,-0.30810547,-0.5701294,0.3024292,24.8125,49.90625,10.828125
1664567287399,0.009765625,0.934021,-0.6748657,-38.765625,-20.9375,25.75
1664567287442,0.40039062,-0.19024658,-0.14190674,6.90625,-14.5625,11.984375
1664567287474,-0.34594727,0.23431396,-0.018127441,-13.46875,-23.171875,-12.84375
1664567287516,0.09008789,0.034362793,-0.30621338,-27.046875,0.90625,-2.859375
1664567287562,0.625,-0.6099243,-0.7798462,-33.203125,-34.75,-12.671875
1664567287592,1.3710938,-2.0,-0.72125244,-10.796875,-6.109375,-8.015625
1664567287622,-0.03881836,-2.0,-0.36871338,11.03125,-40.734375,-24.578125
1664567287682,-0.11376953,-2.0,0.015563965,6.65625,8.3125,-14.625
1664567287712,0.68847656,-0.8760376,0.2230835,13.421875,5.15625,-7.0625
1664567287742,-0.30737305,0.88934326,-0.237854,35.28125,-32.453125,0.6875
1664567287802,0.083496094,0.07659912,0.09075928,8.921875,-15.078125,-19.578125
1664567287832,-0.16918945,-0.32867432,0.04901123,10.296875,-8.84375,-22.53125
1664567287862,0.07397461,0.055603027,-0.18463135,-7.15625,-4.453125,-12.5625
1664567287922,0.6196289,0.25946045,-0.2498169,16.171875,-10.96875,-0.3125
1664567287937,9.765625E-4,-0.27130127,-1.0181274,35.921875,-23.1875,29.9375
1664567287982,-0.1237793,-2.0,-0.73638916,-9.4375,-17.234375,-2.3125
1664567288042,0.75097656,-2.0,-0.023498535,40.125,5.15625,-4.25
1664567288057,0.28686523,-1.9551392,0.3439331,-87.515625,95.765625,27.828125
1664567288102,0.39453125,-1.3452759,0.32000732,-13.4375,54.59375,19.609375
1664567288163,0.071777344,0.55926514,-0.44805908,18.8125,30.40625,24.75
1664567288177,0.16821289,9.1552734E-4,-0.4319458,-10.203125,-39.265625,12.34375
1664567288223,0.07543945,0.11199951,0.14569092,6.90625,-25.578125,-7.703125
1664567288282,-0.21923828,0.062194824,-0.05987549,-21.09375,-17.015625,-4.9375
1664567288297,0.18920898,0.02532959,-0.75665283,-15.609375,4.890625,-0.65625
1664567288342,0.46801758,-1.4456177,0.024841309,-29.125,0.875,-25.75
1664567288371,1.999939,-2.0,0.15570068,92.84375,-35.078125,36.453125
1664567288417,-1.012207,-2.0,0.11566162,39.171875,7.390625,-22.4375
1664567288462,0.06689453,-2.0,0.28118896,30.53125,8.296875,-17.859375
1664567288491,0.7128906,-0.3394165,0.23773193,9.640625,-6.03125,-4.15625
1664567288537,-0.46142578,1.3182983,-0.9116821,-10.421875,-48.90625,6.90625
1664567288582,0.43798828,-0.28302002,0.19036865,2.640625,-33.734375,-25.0625
1664567288612,-0.43896484,-0.22149658,-0.032287598,7.59375,-2.25,-15.265625
1664567288657,0.29760742,0.18133545,-0.21368408,4.359375,-9.796875,4.078125
1664567288701,0.5024414,0.17474365,-0.41314697,35.40625,-13.5,6.109375
1664567288731,0.20947266,-1.625061,-1.069397,-9.234375,-30.25,3.875
1664567288777,1.4001465,-2.0,0.35247803,104.5625,31.609375,8.453125
1664567288821,-0.053466797,-1.9465942,0.09124756,-11.453125,95.15625,42.34375
1664567288851,0.8701172,-1.5684204,-0.40631104,-66.5,38.390625,3.3125
1664567288896,-0.3359375,0.24920654,0.21966553,30.90625,49.59375,26.09375
1664567288942,0.23095703,0.24334717,-0.6321411,-33.078125,-39.78125,18.703125
1664567288971,0.16040039,-0.010314941,0.035827637,12.15625,-11.296875,0.1875
1664567289003,-0.23071289,0.12542725,-0.0037231445,-25.671875,-19.921875,-3.84375
1664567289062,0.06665039,0.1618042,-0.36138916,-26.71875,-19.515625,-10.765625
1664567289091,0.3798828,-0.109680176,-0.8477173,2.3125,1.484375,1.40625
1664567289124,0.73828125,-2.0,0.082458496,-38.046875,-36.40625,-29.296875
1664567289182,1.999939,-2.0,0.23724365,70.109375,1.15625,37.296875
1664567289211,-0.98779297,-2.0,-0.02154541,32.203125,6.984375,-21.953125
1664567289242,0.9362793,-2.0,0.97210693,-17.703125,8.125,-32.15625
1664567289301,0.038330078,0.12176514,-0.046447754,24.421875,-12.296875,10.015625
1664567289331,-0.19213867,1.4174194,-0.44195557,24.265625,-39.421875,-5.5
1664567289363,0.08251953,-0.6397095,0.08538818,0.546875,-20.140625,-45.8125
1664567289422,-0.45263672,-0.030578613,-0.074523926,0.015625,11.9375,-0.828125
1664567289437,0.6081543,0.24310303,-0.2852173,15.015625,-4.046875,10.953125
1664567289483,0.32299805,-0.14508057,-0.9170532,21.40625,-11.140625,10.671875
1664567289541,-0.30664062,-2.0,-0.9085083,-54.359375,-12.59375,5.640625
1664567289557,0.5229492,-2.0,0.036071777,89.375,18.0625,0.9375
1664567289602,0.29492188,-1.770813,0.047790527,-52.46875,82.140625,26.359375
1664567289662,0.52075195,-1.081604,0.0993042,18.65625,112.34375,9.578125
1664567289678,0.19995117,0.3607788,-0.302063,8.921875,-28.25,44.109375
1664567289722,-0.032226562,0.06854248,-0.49224854,-18.4375,-24.78125,6.078125
1664567289753,0.19213867,0.15032959,0.15985107,-8.734375,-24.609375,2.546875
1664567289797,-0.2668457,0.046813965,-0.054016113,-34.1875,-16.546875,-13.65625
1664567289842,-0.107177734,0.15789795,-0.51519775,-17.484375,5.25,-11.59375
1664567289872,0.7219238,-0.6638794,-1.0110474,-29.0625,-0.609375,4.109375
1664567289917,1.1540527,-2.0,-0.024230957,-2.421875,27.609375,-40.578125
1664567289962,-0.10986328,-2.0,0.07293701,9.671875,-54.359375,0.625
1664567289995,0.11450195,-2.0,-0.035461426,1.390625,-11.828125,-30.96875
1664567290037,0.7583008,-1.2388306,0.46209717,-7.359375,-4.484375,-12.71875
1664567290082,-0.60839844,0.74554443,-0.40167236,16.703125,-25.5625,6.25
1664567290112,0.62109375,0.48553467,-0.1453247,16.84375,-38.125,-15.203125
1664567290158,-0.28222656,-0.49835205,0.1161499,14.46875,3.9375,-31.53125
1664567290232,0.022460938,0.07171631,-0.2805786,-9.078125,1.59375,-0.09375
1664567290234,0.7060547,0.4237671,-0.2546997,20.171875,-16.796875,13.234375
1664567290278,-0.19384766,-0.64727783,-0.954895,55.953125,19.96875,12.015625
1664567290322,0.47021484,-2.0,-0.37823486,45.40625,-29.453125,-16.015625
1664567290353,-0.13696289,-2.0,-0.121398926,-30.234375,35.140625,-14.984375
1664567290396,0.7512207,-1.1204224,0.10760498,-148.07812,89.578125,49.84375
1664567290443,-0.03515625,-1.078186,0.070495605,8.453125,70.75,-10.390625
1664567290471,-0.19433594,0.94647217,-0.48809814,-6.015625,5.015625,22.125
1664567290504,0.4609375,-0.12286377,-0.33551025,-3.25,-7.21875,15.96875
1664567290562,-0.1550293,0.18011475,0.19476318,-2.59375,-43.765625,-3.09375
1664567290592,-0.036376953,0.15203857,-0.19122314,-35.6875,-23.890625,-3.859375
1664567290622,0.07885742,0.020690918,-0.62872314,-23.578125,-47.3125,-3.140625
1664567290682,1.0661621,-1.4334106,0.74627686,-18.984375,35.671875,-44.3125
1664567290711,1.999939,-2.0,1.0524292,92.765625,39.640625,42.53125
1664567290742,-1.048584,-2.0,0.23968506,36.0,-19.84375,-35.65625
1664567290802,0.26245117,-2.0,0.12200928,-0.515625,18.75,-18.515625
1664567290817,0.5419922,-0.097717285,0.22991943,22.578125,-6.046875,-3.203125
1664567290863,-0.2355957,1.4140015,-0.73272705,22.34375,-63.4375,7.140625
1664567290922,0.011474609,-0.37994385,0.09124756,5.765625,-28.15625,-36.0
1664567290937,-0.44360352,-0.06549072,0.08026123,9.75,-4.265625,-10.375
1664567290982,0.38842773,0.18328857,-0.31011963,-3.03125,9.640625,6.546875
1664567291043,0.6882324,0.29974365,-0.25421143,37.765625,-28.09375,15.015625
1664567291057,0.2619629,-1.3943481,-1.0149536,-34.46875,-1.78125,7.640625
1664567291102,1.9741211,-2.0,1.1117554,96.859375,14.4375,15.421875
1664567291177,-0.30249023,-2.0,0.20672607,-54.46875,116.921875,57.984375
1664567291181,0.65234375,-0.92266846,-0.30108643,-60.453125,72.375,8.21875
1664567291223,0.05444336,-0.29864502,0.5668335,60.28125,22.015625,19.71875
1664567291252,-0.26123047,0.54901123,-0.67926025,-39.609375,-42.5,18.78125
1664567291297,0.24560547,0.06854248,0.13885498,-2.125,2.234375,3.78125
1664567291342,-0.2692871,0.11590576,0.06951904,-19.09375,-41.453125,-5.171875
1664567291373,-0.171875,0.11932373,-0.38336182,-37.90625,-10.046875,-1.109375
1664567291417,0.3630371,-0.15631104,-1.1790161,-7.53125,-1.359375,10.421875
1664567291461,0.9248047,-2.0,-0.43804932,-42.8125,-40.5,-41.25
1664567291493,1.999939,-2.0,0.43572998,62.90625,-28.078125,42.6875
1664567291537,-0.6970215,-2.0,0.020446777,38.6875,-12.984375,-44.015625
1664567291582,0.7434082,-1.5130005,0.5944214,-23.734375,33.296875,-7.6875
1664567291613,-0.22265625,0.5944214,-0.21392822,24.265625,-9.703125,-17.125
1664567291657,0.13354492,0.70111084,-0.2300415,10.640625,-43.234375,-7.21875
1664567291702,0.18945312,-0.4932251,0.13250732,0.75,-11.78125,-41.390625
1664567291732,-0.48339844,0.09320068,-0.1765747,-7.609375,4.046875,-12.4375
1664567291777,0.69873047,0.24285889,-0.25372314,-8.65625,1.234375,1.3125
1664567291822,0.13134766,0.032409668,-0.45635986,63.375,4.703125,19.1875
1664567291852,-0.578125,-2.0,-0.87872314,-48.1875,-12.71875,-23.0625
1664567291898,1.0700684,-2.0,0.15618896,75.3125,35.546875,10.1875
1664567291942,0.21801758,-1.8721313,0.3768921,-43.515625,81.875,47.28125
1664567291974,0.6201172,-1.3596802,-0.4944458,-43.234375,78.109375,16.390625
1664567292002,-0.046142578,0.38031006,-0.116760254,19.6875,32.546875,23.546875
1664567292063,0.1953125,-0.121398926,-0.56378174,-7.046875,-2.671875,25.015625
1664567292091,0.17382812,0.16864014,0.07293701,16.3125,-30.203125,-0.78125
1664567292121,-0.17553711,0.11566162,0.006286621,-27.828125,-40.75,-6.671875
1664567292182,-0.044189453,0.10296631,-0.40826416,-12.734375,-9.875,-6.125
1664567292212,0.579834,-1.039856,-1.3699341,-15.84375,-33.171875,9.828125
1664567292242,1.3178711,-2.0,-0.4360962,11.4375,-64.375,-0.703125
1664567292287,-0.18554688,-2.0,-0.38580322,12.9375,-4.453125,9.078125
1664567292317,0.6635742,-2.0,0.038024902,41.3125,-59.3125,-20.421875
1664567292363,0.5786133,-1.2637329,0.29559326,5.75,0.921875,-15.609375
1664567292422,-0.71069336,0.6642456,-0.3682251,20.234375,-24.859375,2.265625
1664567292437,0.10180664,0.4179077,-0.07720947,-3.609375,-16.265625,-26.140625
1664567292482,0.22851562,-0.4319458,0.055114746,13.625,-12.390625,-37.15625
1664567292542,-0.10058594,0.06536865,-0.35406494,-21.09375,-5.75,-4.0625
1664567292557,0.87475586,0.34173584,-0.1921997,34.546875,-34.34375,10.796875
1664567292601,0.09008789,-0.5725708,-1.2271118,52.984375,2.265625,5.46875
1664567292662,-0.051513672,-2.0,-0.2901001,-0.234375,2.6875,-47.0625
1664567292676,0.18554688,-2.0,-0.13677979,-10.53125,42.453125,-14.359375
1664567292722,0.5336914,-1.6087036,-0.028137207,-82.5,98.5625,27.703125
1664567292751,0.74731445,-0.91241455,-0.077697754,2.65625,114.5,16.15625
1664567292797,-0.055908203,0.58270264,-0.3867798,-7.375,-39.375,18.59375
1664567292842,0.1796875,-0.028869629,-0.33355713,-6.03125,7.71875,9.546875
1664567292872,0.030517578,0.11224365,0.13861084,4.96875,-25.484375,-9.078125
1664567292919,-0.07910156,0.07220459,-0.12408447,-26.703125,-12.3125,-8.15625
1664567292962,-0.09643555,0.22747803,-0.5725708,-10.9375,-2.640625,-6.15625
1664567292994,0.7390137,-1.3386841,-0.6668091,-35.015625,-32.96875,-20.15625
1664567293037,1.999939,-2.0,0.8734741,60.84375,-60.046875,49.90625
1664567293082,-2.0,-2.0,-0.22808838,22.984375,-4.46875,-14.421875
1664567293112,1.0119629,-2.0,0.37591553,18.34375,-26.875,-28.828125
1664567293157,0.6296387,-0.5317993,0.1149292,11.796875,14.015625,4.453125
1664567293202,-0.8977051,1.1596069,-0.61187744,-14.5,-31.453125,11.828125
1664567293232,0.6159668,-0.13458252,0.21258545,-7.265625,-8.078125,-36.375
1664567293277,-0.30273438,-0.24078369,-0.047912598,10.546875,11.609375,-24.140625
1664567293321,0.38012695,0.21429443,-0.36114502,-4.9375,-6.609375,-1.15625
1664567293352,0.6040039,0.26409912,-0.023254395,25.953125,-27.765625,16.765625
1664567293382,-0.123535156,-1.9956665,-1.2175903,-21.0625,1.171875,-5.046875
1664567293442,1.999939,-2.0,0.69158936,117.625,80.28125,52.03125
1664567293472,-0.5227051,-2.0,0.01751709,1.5625,68.921875,37.53125
1664567293502,1.0615234,-0.84210205,-0.4968872,-74.046875,71.53125,49.484375
1664567293562,-0.2626953,-0.5684204,0.39788818,37.765625,67.578125,8.4375
1664567293592,-0.35205078,0.83099365,-0.75494385,-15.640625,-18.421875,21.125
1664567293622,0.5913086,-0.17779541,-0.2185669,-0.28125,-14.765625,28.015625
1664567293683,-0.23168945,0.21185303,0.17010498,-15.859375,-36.125,-10.375
1664567293712,-0.0859375,0.10687256,-0.22467041,-21.15625,-28.609375,-2.71875
1664567293742,0.44555664,-0.043029785,-0.6897583,-6.3125,-19.40625,5.828125
1664567293802,0.49926758,-2.0,0.27508545,-54.84375,-18.90625,-39.03125
1664567293817,1.999939,-2.0,0.54608154,44.625,25.09375,39.1875
1664567293863,-0.7097168,-2.0,0.04168701,28.640625,-4.28125,-18.71875
1664567293922,0.92211914,-1.9434204,0.668396,-13.0625,9.296875,-21.609375
1664567293939,-0.037841797,0.02947998,-0.051086426,27.015625,-21.53125,-5.796875
1664567293982,-0.4189453,1.2824097,-0.2522583,3.765625,-17.421875,-0.59375
1664567294043,0.29077148,-0.3057251,0.01361084,-0.40625,-28.171875,-29.09375
1664567294056,-0.4802246,-0.020080566,-0.10211182,-2.0,1.5625,-7.15625
1664567294103,0.52246094,0.21502686,-0.28204346,-8.96875,-4.9375,0.234375
1664567294132,0.6616211,0.031921387,-0.5198364,11.71875,-33.5,17.078125
1664567294177,0.011230469,-1.8528442,-0.66851807,-45.34375,-32.3125,-3.1875
1664567294222,0.7841797,-2.0,0.60491943,116.53125,41.71875,0.5625
1664567294252,0.0021972656,-1.8574829,-0.13043213,-27.34375,120.234375,28.234375
1664567294296,1.2263184,-1.7937622,-0.019592285,-13.140625,25.34375,19.40625
1664567294343,-0.4008789,-0.0064086914,0.3727417,31.21875,44.4375,2.765625
1664567294373,0.0029296875,0.9279175,-0.6687622,-11.53125,-10.234375,26.640625
1664567294417,0.43603516,-0.18804932,0.051940918,7.90625,-14.3125,2.5
1664567294462,-0.34960938,0.2597046,-0.037902832,-28.578125,-20.546875,-13.84375
1664567294492,-0.21142578,0.08123779,-0.3345337,-35.46875,-0.921875,-11.046875
1664567294537,0.66186523,-0.33258057,-1.1685181,-17.8125,3.8125,-3.859375
1664567294612,0.67944336,-2.0,-0.50738525,29.859375,-44.90625,-45.453125
1664567294616,0.96875,-2.0,0.3637085,55.265625,3.796875,18.984375
1664567294657,-0.4658203,-2.0,-0.07476807,13.296875,6.40625,-9.8125
1664567294702,0.90405273,-1.5127563,0.4257202,-11.25,-3.15625,-14.390625
1664567294733,0.028808594,0.24700928,0.062927246,18.28125,-9.8125,11.703125
1664567294777,-0.30737305,1.0512085,-0.14459229,34.671875,-49.921875,1.4375
1664567294822,0.14770508,-0.5354614,-0.03302002,-1.703125,-12.75,-36.171875
1664567294852,-0.27612305,0.15130615,-0.08892822,2.703125,10.625,-17.609375
1664567294881,0.85546875,0.2694702,-0.24786377,18.640625,-29.90625,15.984375
1664567294942,0.25268555,-0.4644165,-1.0774536,23.8125,-23.734375,14.5
1664567294972,-0.18286133,-2.0,-0.6502075,32.28125,41.328125,-21.1875
1664567295001,0.17993164,-2.0,-0.22271729,4.578125,49.15625,30.75
1664567295062,0.7475586,-1.7149048,-0.097717285,-52.921875,82.953125,29.296875
1664567295093,0.26708984,-1.0967407,0.0053100586,3.046875,67.6875,15.515625
1664567295122,-0.060302734,0.30389404,-0.2276001,0.125,13.90625,36.859375
1664567295182,0.17749023,0.13275146,-0.44366455,-28.953125,-35.171875,6.21875
1664567295196,0.2854004,0.05267334,0.1618042,-11.21875,-25.71875,-4.0
1664567295243,-0.34155273,0.09490967,-0.09210205,-33.546875,-20.046875,-17.34375
1664567295301,-0.12182617,0.06732178,-0.5359497,-30.75,-14.859375,-5.96875
1664567295317,0.6604004,-0.23687744,-0.7305298,-16.703125,-14.515625,1.96875
1664567295362,1.2287598,-2.0,-0.10992432,-9.53125,-30.359375,-82.75
1664567295423,0.28125,-2.0,-0.6482544,20.078125,-27.96875,26.984375
1664567295437,-0.22265625,-1.8638306,-0.02960205,33.421875,-43.78125,-38.25
1664567295482,0.96362305,-1.5249634,0.69940186,-10.71875,18.765625,10.203125
1664567295557,-0.28222656,0.45135498,-0.37579346,9.40625,3.71875,-15.265625
1664567295560,0.01928711,0.7189331,0.042663574,12.890625,-8.0625,-10.703125
1664567295605,0.19506836,-0.46051025,0.16326904,-5.6875,-10.109375,-47.625
1664567295631,-0.32104492,0.07366943,-0.31671143,-18.578125,4.265625,-0.0625
1664567295677,0.91918945,0.40667725,-0.21051025,17.109375,-28.875,6.265625
1664567295722,0.025146484,-0.64019775,-1.1199341,6.1875,-23.34375,15.25
1664567295752,-0.6179199,-2.0,0.06072998,-4.515625,5.15625,-20.875
1664567295797,0.17993164,-2.0,-0.038879395,-9.984375,36.875,-3.015625
1664567295842,0.52124023,-1.8399048,-0.0068969727,-16.703125,69.5,12.15625
1664567295871,0.71069336,-1.1060181,0.11053467,-8.53125,61.71875,11.78125
1664567295917,-0.18701172,0.5482788,-0.21466064,-1.75,33.5,15.171875
1664567295962,0.33764648,-3.0517578E-4,-0.440979,-9.765625,-10.484375,24.015625
1664567295991,0.10107422,-7.9345703E-4,0.2140503,11.109375,-27.046875,-4.25
1664567296037,-0.38745117,0.12225342,-0.14556885,-20.25,8.265625,-7.78125
1664567296081,0.265625,0.024353027,-0.65093994,-10.59375,4.390625,1.328125
1664567296112,0.52075195,-1.6882935,0.24188232,-29.046875,-7.0625,-30.96875
1664567296157,1.999939,-2.0,1.1581421,53.203125,-9.125,28.015625
1664567296201,-1.2358398,-2.0,-0.18707275,16.75,-7.171875,-13.0625
1664567296232,0.5817871,-1.8821411,0.3949585,15.828125,-21.09375,-8.65625
1664567296277,0.57470703,-0.62164307,0.10491943,39.5,-9.359375,8.6875
1664567296322,-1.0371094,1.1522827,-0.52178955,22.203125,-48.203125,20.5625
1664567296354,0.4880371,-0.13092041,0.042907715,-13.90625,-7.65625,-40.046875
1664567296382,-0.13061523,-0.19854736,0.057556152,16.890625,1.484375,-14.859375
1664567296443,0.34033203,0.2506714,-0.26470947,-9.734375,-18.625,10.28125
1664567296472,0.6586914,0.10296631,-0.62164307,13.46875,-44.140625,16.984375
1664567296502,-0.051757812,-1.7197876,-0.48223877,-10.125,-13.796875,4.71875
1664567296562,0.66748047,-2.0,0.32781982,59.078125,7.78125,-21.78125
1664567296592,0.5756836,-2.0,0.011413574,-20.421875,117.515625,41.984375
1664567296622,0.60302734,-1.3516235,-0.057678223,-10.296875,28.84375,-1.359375
1664567296682,-0.079833984,-0.36431885,0.30584717,27.796875,50.0,15.390625
1664567296698,0.0029296875,0.7863159,-0.64141846,-7.796875,-2.15625,24.734375
1664567296742,0.5131836,0.018005371,-0.0010375977,-8.59375,-21.875,7.625
1664567296804,-0.43945312,0.058776855,-0.02130127,-16.8125,-22.140625,-24.796875
1664567296816,-0.16210938,0.04510498,-0.37579346,-14.734375,20.140625,0.09375
1664567296863,0.90844727,-0.41900635,-1.1182251,-9.5625,-46.203125,2.234375
1664567296922,0.77246094,-2.0,-0.6201782,-84.234375,-17.546875,-37.59375
1664567296937,-0.25976562,-2.0,-0.3008423,25.4375,-37.75,4.296875
1664567296982,-0.029052734,-2.0,-0.11651611,10.1875,-28.015625,-25.46875
1664567297043,0.60668945,-1.1560669,0.37542725,-24.125,-6.375,-11.265625
1664567297057,-0.4658203,0.6654663,-0.06304932,20.65625,-2.921875,4.3125
1664567297102,0.23852539,0.3241577,0.02947998,4.25,-23.59375,-15.390625
1664567297134,0.04296875,-0.55255127,-0.0022583008,1.1875,-1.609375,-36.265625
1664567297177,-0.0036621094,0.24432373,-0.23760986,-10.484375,-0.96875,-5.59375
1664567297223,0.8034668,0.2592163,-0.062805176,15.421875,-27.140625,11.890625
1664567297252,-0.46313477,-0.77471924,-1.1104126,17.796875,-9.484375,9.1875
1664567297297,0.04638672,-2.0,-0.39996338,-6.015625,-2.5,-30.015625
1664567297342,0.045166016,-2.0,-0.11480713,11.1875,45.53125,-14.09375
1664567297372,0.17114258,-1.8049927,0.13104248,-72.640625,99.21875,26.171875
1664567297417,0.63427734,-1.079895,0.16619873,-14.390625,45.734375,13.625
1664567297464,0.013671875,0.32122803,-0.13482666,10.625,18.03125,23.0625
1664567297492,0.46069336,0.5162964,-0.46661377,-6.75,-9.28125,33.140625
1664567297537,-0.05078125,-0.108947754,0.23651123,-3.765625,-44.109375,-13.15625
1664567297582,-0.5480957,0.046081543,-0.1843872,-16.78125,9.703125,-6.90625
1664567297612,0.40478516,-0.097473145,-1.00177,-18.21875,7.40625,6.8125
1664567297657,0.8405762,-2.0,-0.32891846,-29.6875,-0.015625,-43.90625
1664567297703,1.999939,-2.0,0.6469116,44.859375,-37.234375,39.125
1664567297731,-0.90771484,-2.0,-0.18365479,31.90625,-12.65625,-22.890625
1664567297762,0.6669922,-1.7227173,0.6744995,9.015625,-4.25,-11.484375
1664567297822,0.11767578,-0.11407471,0.059753418,36.296875,-6.15625,3.984375
1664567297852,-0.7199707,1.3324585,-0.37286377,22.71875,-37.484375,18.109375
1664567297882,0.5197754,-0.3430786,0.042907715,-8.65625,-23.140625,-40.9375
1664567297942,-0.2043457,-0.035461426,-0.21246338,8.234375,10.21875,-19.03125
1664567297972,0.67993164,0.2850952,-0.11065674,20.53125,-27.625,19.5
1664567298004,0.2529297,-0.18707275,-0.93292236,27.125,-35.28125,16.390625
1664567298063,-0.97509766,-2.0,-0.38336182,-50.609375,0.875,-19.59375
1664567298122,1.2453613,-2.0,0.15179443,35.515625,50.546875,22.734375
1664567298124,0.123046875,-1.9873657,0.21844482,-8.515625,80.109375,32.90625
1664567298182,0.40722656,-1.0891724,-0.07476807,-10.234375,45.203125,2.015625
1664567298197,-0.030273438,0.22625732,0.047790527,11.1875,51.03125,29.34375
1664567298243,0.13208008,0.512146,-0.6358032,-15.875,-20.953125,26.90625
1664567298302,0.3540039,-0.061828613,0.02923584,-1.421875,-35.078125,0.609375
1664567298316,-0.49487305,0.16864014,-0.08892822,-17.75,-6.8125,-12.78125
1664567298362,-0.009277344,0.0524292,-0.4151001,-16.53125,1.96875,0.34375
1664567298423,0.6965332,-0.9092407,-0.5444946,-24.59375,-39.765625,-10.0
1664567298436,1.999939,-2.0,0.5914917,35.234375,-53.65625,-13.1875
1664567298483,-0.9699707,-2.0,-0.3255005,12.8125,-3.421875,0.78125
1664567298511,0.24804688,-2.0,0.23040771,-0.328125,-30.859375,-26.90625
1664567298556,0.73583984,-0.95880127,0.20965576,-4.34375,-1.359375,3.75
1664567298602,-0.7060547,0.93548584,-0.4277954,6.875,-21.9375,6.671875
1664567298632,0.40722656,0.28900146,0.20599365,-1.90625,-14.390625,-19.328125
1664567298677,-0.14013672,-0.42462158,-0.0012817383,9.421875,3.875,-31.359375
1664567298721,0.15307617,0.11395264,-0.31329346,-4.265625,2.140625,4.5
1664567298752,0.94677734,0.27142334,-0.027404785,28.90625,-21.34375,14.984375
1664567298797,-0.29663086,-1.3164673,-0.8135376,-28.109375,7.875,-1.40625
1664567298842,1.3496094,-2.0,0.7164917,16.78125,34.90625,-6.671875
1664567298874,-0.110839844,-2.0,0.24822998,-34.28125,79.96875,17.96875
1664567298917,0.8342285,-1.1763306,-0.45391846,-32.125,41.265625,26.796875
1664567298963,0.06762695,-0.98150635,0.39813232,1.25,36.25,1.9375
1664567298992,-0.4309082,0.73065186,-0.50494385,-1.390625,-14.375,22.140625
1664567299039,0.57666016,0.028747559,-0.3027954,-19.78125,1.140625,28.171875
1664567299083,0.072021484,0.07342529,0.112976074,-11.40625,-32.640625,-14.34375
1664567299112,-0.32592773,0.006286621,-0.20123291,-26.515625,3.140625,-9.484375
1664567299156,0.38330078,-0.16168213,-0.8311157,-11.015625,13.375,7.921875
1664567299203,0.6218262,-2.0,-0.3501587,-17.421875,0.25,-46.265625
1664567299232,1.999939,-2.0,0.9540405,64.703125,-6.609375,37.296875
1664567299262,-1.3591309,-2.0,0.08709717,29.71875,-7.734375,-18.09375
1664567299322,0.73999023,-1.6558228,0.43743896,-14.40625,4.1875,-6.46875
1664567299352,0.46069336,-0.23248291,0.038024902,14.109375,-4.796875,5.484375
1664567299383,-0.8937988,1.2572632,-0.42926025,29.421875,-32.65625,12.28125
1664567299442,0.65600586,-0.45880127,0.1864624,-18.03125,-20.265625,-33.4375
1664567299472,-0.5563965,-0.028381348,-0.17315674,7.5,18.125,-19.34375
1664567299502,0.8215332,0.28363037,-0.34747314,15.234375,-13.03125,8.828125
1664567299562,0.23144531,0.12200928,-0.101379395,9.515625,-23.15625,4.109375
1664567299577,-0.42504883,-2.0,-0.7710571,-34.5625,-25.46875,-6.796875
1664567299622,1.3024902,-2.0,0.63494873,48.796875,77.609375,3.984375
1664567299683,-0.063964844,-2.0,0.17108154,20.421875,106.25,47.34375
1664567299697,0.6166992,-1.0276489,-0.019348145,1.625,29.40625,16.6875
1664567299742,-0.21533203,-0.47174072,0.46990967,24.84375,67.265625,13.828125
1664567299803,0.24414062,0.82025146,-0.7815552,-10.65625,-26.5625,23.421875
1664567299817,0.45483398,-0.105529785,-0.13604736,-16.546875,-39.296875,14.34375
1664567299863,-0.45922852,0.18157959,-0.04107666,-15.5625,-21.578125,-21.484375
1664567299937,-0.1459961,0.01361084,-0.28497314,-22.625,0.203125,1.140625
1664567299940,0.73876953,-0.33502197,-1.1026001,-21.53125,-28.59375,9.4375
1664567299982,0.52563477,-2.0,-0.6243286,-45.984375,-4.34375,-35.828125
1664567300011,0.83618164,-2.0,-0.023742676,2.40625,-17.484375,16.375
1664567300056,-0.032470703,-2.0,-0.02130127,16.359375,-36.875,-19.4375
1664567300102,0.49902344,-1.678772,0.711853,22.53125,4.171875,-8.828125
1664567300132,-0.03564453,0.22845459,0.042907715,32.25,4.6875,7.15625
1664567300180,-0.46655273,1.1886597,-0.25372314,11.71875,-20.203125,-17.359375
1664567300222,0.52563477,-0.59576416,0.17352295,-3.046875,-23.59375,-39.265625
1664567300254,-0.5366211,0.08148193,-0.3381958,-8.515625,6.484375,-11.5
1664567300298,0.88305664,0.2531128,-0.15460205,13.0625,-22.09375,17.265625
1664567300342,0.30322266,-0.25933838,-0.9512329,6.96875,-49.609375,9.65625
1664567300372,-0.8125,-2.0,-0.48101807,-56.0625,1.625,1.9375
1664567300418,0.85424805,-2.0,0.23358154,68.609375,48.28125,2.140625
1664567300462,0.34448242,-1.9285278,0.047790527,2.0625,96.671875,32.984375
1664567300492,0.69799805,-0.91485596,-0.09869385,-4.109375,33.90625,6.96875
1664567300537,-0.2446289,-0.105773926,0.16131592,14.046875,24.765625,10.34375
1664567300582,0.26489258,0.4352417,-0.5454712,-20.53125,-2.359375,27.46875
1664567300612,0.36132812,0.113220215,0.089782715,-1.34375,-33.21875,0.75
1664567300703,-0.47021484,0.07171631,-0.051086426,-29.0,-8.5,-20.359375
1664567300707,0.064941406,-0.042053223,-0.4758911,-8.453125,11.921875,2.953125
1664567300732,0.79541016,-1.1167603,-0.089904785,-33.5625,-28.625,-21.515625
1664567300762,1.999939,-2.0,0.45794678,42.734375,-49.65625,-5.4375
1664567300823,-0.6225586,-2.0,-0.33551025,36.609375,-41.78125,-6.984375
1664567300852,0.2241211,-2.0,-0.012756348,3.6875,-7.65625,-3.796875
1664567300882,0.576416,-0.99176025,0.2567749,16.953125,-2.734375,-4.5625
1664567300942,-0.7668457,0.87420654,-0.1951294,34.25,-9.5625,20.515625
1664567300973,0.33813477,0.20550537,0.034606934,-4.609375,-29.421875,-31.4375
1664567301002,0.2434082,-0.51934814,0.10614014,12.015625,-3.03125,-27.640625
1664567301062,-0.10180664,0.13861084,-0.31329346,-9.390625,-8.796875,10.015625
1664567301077,0.86035156,0.30047607,-0.22174072,32.453125,-33.984375,15.25
1664567301121,0.032714844,-1.3296509,-0.78326416,-32.84375,-27.40625,-1.515625
1664567301183,1.4477539,-2.0,0.65789795,29.484375,23.484375,-30.671875
1664567301197,0.08251953,-2.0,0.2255249,-6.046875,79.375,44.96875
1664567301245,0.38793945,-1.1243286,-0.2883911,-45.796875,44.671875,37.3125
1664567301301,0.17529297,-0.6838989,0.2838745,-5.5,33.640625,12.421875
1664567301319,-0.1953125,0.71136475,-0.60894775,-2.34375,-17.09375,21.25
1664567301363,0.41992188,-0.08770752,-0.28570557,-9.828125,2.46875,12.9375
1664567301422,0.12207031,0.23138428,0.11077881,-9.9375,-24.640625,-18.140625
1664567301437,-0.4182129,-0.02154541,-0.2078247,-30.703125,-0.421875,-11.859375
1664567301482,0.33325195,-0.14141846,-1.0442505,-14.46875,10.84375,9.953125
1664567301512,0.9355469,-1.8692017,-0.5093384,-32.90625,-7.015625,-43.53125
1664567301558,1.999939,-2.0,1.0336304,63.859375,-49.15625,28.9375
1664567301602,-1.2480469,-2.0,-0.19366455,19.78125,9.328125,-25.9375
1664567301632,0.6904297,-1.8140259,0.670105,-4.140625,3.53125,-1.09375
1664567301678,0.40600586,-0.10479736,0.09613037,18.546875,4.421875,8.453125
1664567301723,-0.5239258,1.5123901,-0.54400635,38.734375,-40.0,17.953125
1664567301754,0.3618164,-0.53302,0.14202881,-12.9375,-15.328125,-29.71875
1664567301797,-0.42529297,-0.11016846,-0.1404419,15.59375,12.9375,-13.765625
1664567301842,0.73461914,0.2741089,-0.18267822,15.21875,-19.046875,18.15625
1664567301872,-0.032714844,-0.066223145,-0.56134033,23.296875,-13.546875,1.578125
1664567301917,-0.5258789,-2.0,-0.5679321,-52.140625,-8.3125,-33.21875
1664567301962,0.9880371,-2.0,0.19598389,39.125,85.515625,-7.515625
1664567301992,0.15576172,-1.8755493,0.16937256,-20.71875,110.453125,40.609375
1664567302037,0.3618164,-0.84552,-0.066467285,23.078125,74.234375,2.078125
1664567302083,0.0012207031,0.20697021,-0.06817627,-0.21875,-7.015625,36.84375
1664567302111,0.14111328,0.46038818,-0.57525635,-14.296875,-4.421875,13.296875
1664567302143,0.26367188,-0.032043457,0.105895996,-7.828125,-40.15625,2.296875
1664567302217,-0.5488281,0.08660889,-0.08746338,-28.171875,-15.453125,-16.203125
1664567302232,-0.10107422,0.057556152,-0.6519165,-23.03125,6.1875,-0.1875
1664567302264,0.87353516,-1.1248169,0.07635498,-13.484375,27.234375,-29.109375
1664567302323,1.999939,-2.0,0.77557373,37.265625,-19.796875,-18.546875
1664567302352,-1.0947266,-2.0,0.1083374,28.5,7.21875,-1.140625
1664567302382,0.01171875,-2.0,0.13079834,26.59375,-50.390625,-19.78125
1664567302444,0.76171875,-0.9558716,0.34002686,2.796875,-10.890625,-8.828125
1664567302471,-0.66845703,1.1386108,-0.583313,23.65625,-37.921875,5.5625
1664567302503,0.58984375,0.07293701,-0.034484863,-4.96875,-21.078125,-23.109375
1664567302562,-0.16015625,-0.37799072,0.061706543,4.234375,-5.78125,-19.234375
1664567302577,0.25830078,0.08880615,-0.29180908,7.578125,-5.34375,3.84375
1664567302622,0.68237305,0.23675537,-0.10455322,19.046875,-22.1875,17.78125
1664567302682,-0.055908203,-1.5178833,-0.8899536,-60.96875,3.703125,-9.453125
1664567302697,1.5683594,-2.0,1.5409546,132.07812,55.140625,8.078125
1664567302742,-0.49267578,-2.0,0.101257324,-11.203125,108.53125,37.40625
1664567302802,1.0493164,-1.2937622,-0.30255127,-0.703125,31.625,13.78125
1664567302817,-0.052246094,-0.56427,0.41375732,24.40625,77.453125,6.328125
1664567302863,-0.06225586,0.6918335,-0.7595825,-20.734375,-27.9375,21.09375
1664567302892,0.28393555,-0.19195557,-0.14434814,-13.890625,-19.65625,12.5625
1664567302938,-0.24121094,0.2723999,0.0099487305,-16.21875,-26.609375,-16.921875
1664567302982,-0.09033203,0.06829834,-0.30059814,-29.78125,-3.796875,-5.328125
1664567303013,0.5061035,-0.17901611,-1.0274048,-11.375,-16.640625,5.75
1664567303057,0.4621582,-2.0,-0.08111572,-33.875,-16.265625,-29.078125
1664567303103,1.999939,-2.0,0.6881714,21.015625,7.28125,19.734375
1664567303131,-0.70703125,-2.0,-0.09503174,29.265625,-10.640625,-29.90625
1664567303178,0.85375977,-1.5498657,0.5153198,13.359375,20.296875,-12.53125
1664567303225,0.17895508,-0.094055176,0.20526123,32.625,-2.484375,5.328125
1664567303251,-0.6022949,1.0617065,-0.46099854,18.140625,-32.5625,-9.71875
1664567303297,0.39379883,-0.41851807,0.04510498,1.765625,-16.53125,-29.109375
1664567303342,-0.24291992,0.14691162,-0.090148926,6.5625,8.6875,-4.296875
1664567303373,0.5288086,0.08123779,-0.2727661,3.234375,-15.765625,4.796875
1664567303416,0.56274414,-0.09283447,-0.9048462,26.421875,-43.5,24.953125
1664567303462,-0.5776367,-2.0,-0.56573486,4.296875,-23.109375,-4.359375
1664567303492,0.140625,-2.0,0.17572021,55.3125,20.546875,-8.5
1664567303537,0.72436523,-2.0,-0.24786377,-59.875,115.140625,46.125
1664567303581,0.7553711,-1.0110474,0.3156128,5.25,35.109375,28.359375
1664567303613,-0.17138672,0.10003662,0.11004639,25.390625,27.84375,14.0
1664567303642,0.17675781,0.49725342,-0.6663208,-16.390625,-21.640625,16.59375
1664567303703,0.3798828,0.010437012,0.089538574,-10.171875,-13.046875,-5.828125
1664567303734,-0.607666,0.10028076,-0.028381348,-23.796875,-9.734375,-19.296875
1664567303762,0.053466797,-0.034973145,-0.77471924,-17.796875,12.921875,10.4375
1664567303822,1.0458984,-1.1465454,0.11956787,-20.453125,6.90625,-30.859375
1664567303853,1.999939,-2.0,1.791687,60.15625,-63.5,-12.53125
1664567303881,-1.2946777,-2.0,-0.30474854,13.46875,-5.625,-16.375
1664567303943,0.7626953,-1.9048462,0.73309326,-40.5,-2.96875,-16.53125
1664567303958,0.42358398,-0.47979736,0.031677246,-4.8125,-19.34375,11.203125
1664567304002,-0.85717773,1.5062866,-0.6914673,39.4375,-44.265625,15.8125
1664567304063,0.42333984,-0.3735962,0.1774292,-19.125,-16.625,-30.484375
1664567304077,-0.28149414,-0.13336182,-0.0256958,19.015625,2.03125,-1.078125
1664567304122,0.47802734,0.12298584,-0.1963501,21.265625,-17.40625,11.4375
1664567304182,0.17456055,-0.19708252,-0.77301025,46.4375,-19.46875,5.40625
1664567304197,-0.28686523,-2.0,-0.4434204,34.484375,-16.328125,-11.859375
1664567304242,0.008300781,-2.0,0.19085693,-41.953125,70.8125,-0.0625
1664567304303,0.48510742,-1.6782837,0.1852417,17.28125,58.109375,66.25
1664567304317,0.26513672,-1.0361938,0.5531616,19.5625,47.609375,15.28125
1664567304363,-0.08984375,0.5770874,-0.4434204,11.0625,10.90625,20.234375
1664567304391,0.28857422,-0.041809082,-0.41827393,-37.5,-11.890625,2.703125
1664567304438,0.25195312,0.016052246,-0.026428223,-3.953125,-7.078125,6.765625
1664567304482,-0.43359375,0.039245605,0.09613037,-32.734375,-29.125,-17.125
1664567304512,0.088378906,-0.06719971,-0.5808716,-26.234375,2.09375,-4.78125
1664567304557,0.81933594,-1.2339478,0.048034668,-25.890625,17.90625,-25.734375
1664567304601,1.999939,-2.0,0.8666382,55.8125,-69.59375,-12.953125
1664567304631,-1.2128906,-2.0,-0.7581177,57.96875,-28.90625,5.265625
1664567304678,0.66381836,-2.0,0.38128662,-45.640625,7.875,-28.421875
1664567304722,0.7363281,-0.8345337,0.31097412,-6.921875,-5.5625,-4.265625
1664567304753,-1.0292969,1.4953003,-0.5918579,43.859375,-32.984375,34.78125
1664567304796,0.54541016,-0.28961182,0.05633545,-10.734375,-14.015625,-30.71875
1664567304842,-0.29223633,-0.31134033,0.032165527,2.953125,13.21875,-29.53125
1664567304872,0.28344727,0.15911865,-0.28546143,-12.5,-9.09375,2.234375
1664567304917,0.5756836,0.17303467,-0.074279785,8.671875,-21.03125,14.625
1664567304962,-0.32373047,-1.3433228,-0.64678955,-43.015625,14.796875,-15.109375
1664567304992,1.7988281,-2.0,0.52948,63.46875,-14.984375,-6.859375
1664567305037,-0.43432617,-2.0,0.18353271,-6.8125,58.078125,21.90625
1664567305081,0.7133789,-1.2549438,0.097595215,-24.125,69.265625,35.421875
1664567305112,0.103759766,-0.89801025,0.40618896,28.0625,100.5,12.265625
1664567305142,0.12890625,0.7316284,-0.49761963,6.640625,-14.1875,24.625
1664567305202,0.17797852,-0.33087158,-0.35528564,-25.71875,-33.46875,18.109375
1664567305233,-0.09301758,0.30218506,-0.041809082,-13.828125,-21.4375,-27.90625
1664567305262,-0.2253418,-0.09454346,-0.14678955,-31.9375,-33.0,-7.5
1664567305322,0.8066406,-0.52471924,-1.0286255,-34.0,-20.546875,-18.546875
1664567305352,0.7150879,-2.0,-0.4348755,-45.234375,0.78125,-34.203125
1664567305384,0.35595703,-2.0,0.3529663,3.234375,6.3125,42.859375
1664567305443,-0.8203125,-2.0,0.4689331,-60.375,8.984375,-42.96875
1664567305457,0.49243164,-1.492981,0.7575073,9.765625,-22.828125,-15.359375
1664567305503,0.1484375,0.27801514,0.2020874,33.453125,-5.921875,20.953125
1664567305563,0.012207031,0.7736206,-0.26593018,18.453125,-37.578125,-2.8125
1664567305577,0.26293945,-0.5198364,0.15350342,1.859375,-2.6875,-22.671875
1664567305622,-0.29467773,0.0048217773,-0.3196411,-6.78125,-11.015625,-11.6875
1664567305681,0.73583984,0.16619873,-0.144104,20.5,-15.109375,11.09375
1664567305697,-0.07763672,-0.37384033,-1.0027466,-11.6875,-31.90625,12.34375
1664567305743,-0.028320312,-2.0,-0.26934814,8.5,-52.140625,-0.390625
1664567305803,0.12402344,-2.0,1.0778198,32.890625,46.5,-5.609375
1664567305818,0.026367188,-1.862854,0.20257568,35.3125,67.8125,44.125
1664567305863,1.0981445,-1.6724243,0.014099121,3.578125,47.3125,18.546875
1664567305936,-0.626709,-0.30889893,0.105895996,59.65625,58.875,-2.828125
1664567305938,0.17089844,0.81463623,-0.6514282,-6.78125,-36.515625,30.96875
1664567305985,0.35351562,-0.19342041,-0.16168213,-27.359375,-18.875,7.4375
1664567306011,-0.39575195,0.2387085,-0.16802979,-11.453125,3.328125,-31.828125
1664567306058,-0.07373047,-0.101623535,-0.2937622,-29.25,-0.203125,1.09375
1664567306103,1.1911621,-0.9697876,-0.3242798,-34.875,-3.46875,-20.8125
1664567306132,1.2712402,-2.0,-0.22833252,11.4375,0.453125,-18.453125
1664567306176,0.6286621,-2.0,-0.12432861,2.421875,-20.40625,41.0625
1664567306223,-0.3359375,-2.0,0.17425537,-45.875,29.203125,-25.25
1664567306251,0.55493164,-1.3311157,0.53582764,11.4375,-21.03125,-6.515625
1664567306298,0.0029296875,0.23577881,0.15179443,43.703125,-30.796875,13.6875
1664567306342,-0.40234375,0.98602295,-0.3640747,28.84375,-31.015625,10.171875
1664567306371,0.31298828,-0.39898682,0.034118652,1.03125,-3.21875,-32.125
1664567306417,-0.32641602,-0.020568848,-0.2852173,-14.671875,-7.78125,-5.359375
1664567306463,0.8220215,0.1251831,-0.10430908,10.921875,-21.875,18.4375
1664567306492,0.18041992,-0.6248169,-0.8320923,-22.375,-0.140625,-2.578125
1664567306522,-0.5493164,-2.0,0.1852417,-15.5625,36.109375,-38.046875
1664567306582,-0.013671875,-2.0,0.35272217,13.75,45.90625,10.921875
1664567306612,0.5715332,-2.0,0.20574951,15.46875,83.34375,37.25
1664567306642,0.34448242,-1.2766724,0.13079834,11.34375,20.390625,9.578125
1664567306703,-0.15209961,-0.13189697,0.13128662,25.59375,42.84375,14.0
1664567306732,0.30981445,0.59954834,-0.55426025,-11.609375,-10.0,47.765625
1664567306764,0.109375,-0.113342285,0.042663574,-17.90625,-16.5625,5.59375
1664567306836,-0.31420898,0.12786865,-0.29034424,-13.609375,-6.71875,-24.0
1664567306852,0.16845703,-0.128479,-0.5264282,-32.546875,12.015625,13.203125
1664567306882,0.9121094,-1.1785278,-0.18170166,-16.34375,-10.296875,-22.71875
1664567306943,1.999939,-2.0,0.3912964,71.015625,-37.859375,-37.21875
1664567306961,-0.32641602,-1.9497681,-0.3928833,28.6875,26.375,29.25
1664567307003,0.20458984,-2.0,0.17694092,-33.203125,15.578125,-26.703125
1664567307064,0.74487305,-0.9077759,0.34613037,15.9375,-12.484375,1.234375
1664567307077,-0.51831055,0.7243042,-0.25860596,34.125,-28.078125,15.15625
1664567307123,0.026123047,0.2723999,0.08074951,1.015625,-26.40625,-14.375
1664567307182,0.26000977,-0.47662354,0.020446777,-13.734375,9.171875,-32.390625
1664567307197,-0.34106445,0.116882324,-0.25738525,-17.921875,-1.484375,-2.078125
1664567307242,0.73583984,0.121276855,-0.023010254,7.609375,0.125,13.890625
1664567307272,-0.083740234,-0.9788208,-0.8845825,-36.203125,17.375,-10.0625
1664567307317,1.1254883,-2.0,0.22869873,47.03125,20.828125,-50.03125
1664567307362,-0.33569336,-2.0,-0.14703369,-22.34375,83.625,44.140625
1664567307392,0.5332031,-1.5090942,-0.26446533,-48.9375,92.5625,31.5625
1664567307439,0.3083496,-1.0523071,0.39715576,6.203125,57.125,6.375
1664567307482,-0.14379883,0.60150146,-0.19342041,-0.9375,-0.3125,16.03125
1664567307513,0.4013672,0.137146,-0.40386963,-26.78125,-18.609375,13.53125
1664567307557,-0.0073242188,0.14251709,0.061950684,-13.875,-25.703125,-10.125
1664567307603,-0.40625,-0.043273926,-0.13702393,-34.234375,-24.5,-8.609375
1664567307632,0.43530273,-0.21417236,-1.0684204,-25.796875,-3.53125,-5.25
1664567307678,0.9160156,-1.9238892,-0.7017212,-33.21875,2.125,-23.9375
1664567307723,1.999939,-2.0,1.31073,41.703125,-57.875,22.515625
1664567307752,-1.828125,-2.0,0.47332764,71.8125,-15.890625,-1.046875
1664567307797,1.1274414,-1.5252075,-0.0029907227,-19.28125,-8.9375,-34.921875
1664567307842,0.3684082,-0.20806885,0.37127686,10.640625,6.390625,8.125
1664567307872,-0.75561523,1.3915405,-0.52130127,49.234375,-52.28125,14.5
1664567307918,0.529541,-0.6062622,0.16448975,-17.390625,-16.734375,-40.828125
1664567307961,-0.60546875,0.05999756,-0.27130127,-4.859375,2.4375,-1.375
1664567307992,0.6296387,0.09124756,-0.17999268,-11.890625,-10.09375,-2.9375
1664567308022,0.34716797,-0.13482666,-0.772522,-28.625,-8.078125,17.875
1664567308083,-0.068359375,-1.8560181,-0.09527588,-55.671875,-34.109375,-37.046875
1664567308112,0.78564453,-2.0,0.7123413,47.0625,13.390625,-12.453125
1664567308141,0.103027344,-1.7407837,0.541687,-6.515625,53.453125,28.03125
1664567308202,0.48242188,-2.0,0.08709717,-8.875,-1.03125,8.890625
1664567308233,0.0146484375,-0.5149536,-0.040100098,10.96875,52.59375,-5.640625
1664567308263,0.4182129,1.3348999,-0.5159302,13.125,-14.078125,65.90625
1664567308322,0.3635254,-0.2852173,0.0021362305,-16.21875,-25.609375,-5.484375
1664567308352,-0.49731445,0.29364014,-0.27716064,-19.546875,-28.875,-26.078125
1664567308383,-0.06347656,-0.02935791,-0.25006104,-16.09375,18.53125,1.75
1664567308443,1.0551758,-0.54815674,-0.5713501,-17.875,4.4375,-9.9375
1664567308458,0.6726074,-2.0,-0.36114502,-54.875,-27.84375,-31.46875
1664567308502,-0.21850586,-2.0,0.49432373,7.890625,51.953125,35.84375
1664567308562,-0.06274414,-2.0,0.093688965,-24.140625,-3.015625,-24.484375
1664567308577,1.0090332,-1.4085083,0.56585693,14.328125,-25.109375,-8.34375
1664567308623,-0.13793945,0.4454956,-0.06378174,24.421875,-20.734375,12.015625
1664567308683,-0.37451172,0.6119995,-0.09039307,6.203125,-22.515625,-12.0625
1664567308697,0.33691406,-0.49517822,-0.05621338,6.75,-19.5625,-31.265625
1664567308743,-0.14355469,0.109558105,-0.16436768,-11.40625,0.828125,1.015625
1664567308772,0.54418945,-0.17022705,-0.58428955,-17.578125,-26.390625,16.734375
1664567308818,0.59155273,-1.0855103,-0.34332275,-24.28125,-60.96875,6.359375
1664567308862,-0.03466797,-2.0,0.8148804,-53.71875,22.359375,-65.71875
1664567308894,0.4506836,-1.9580688,0.18450928,26.46875,94.953125,57.0625
1664567308937,0.90722656,-1.3689575,0.15667725,-12.84375,51.765625,41.890625
1664567308982,-0.67333984,-0.80914307,0.20013428,29.796875,61.921875,-13.34375
1664567309012,0.26416016,0.6312866,-0.5581665,11.078125,0.765625,16.4375
1664567309057,0.41967773,-0.050354004,-0.2888794,-38.4375,-28.703125,30.59375
1664567309102,-0.013916016,0.1437378,-0.1494751,-6.515625,-7.484375,-28.171875
1664567309132,-0.21948242,-0.0064086914,0.0018920898,-28.5,-7.859375,0.03125
1664567309178,0.22583008,-0.2078247,-0.42730713,-7.203125,14.171875,2.78125
1664567309222,0.89208984,-1.392395,-0.12310791,-21.03125,7.15625,-35.015625
1664567309253,1.999939,-2.0,0.9562378,60.953125,-65.421875,-14.046875
1664567309297,-1.0898438,-2.0,-0.59625244,40.359375,-33.578125,25.03125
1664567309342,0.68969727,-2.0,0.32781982,-63.765625,8.890625,-39.171875
1664567309373,0.75024414,-0.9678345,0.37615967,5.1875,-13.5,12.171875
1664567309462,-1.1105957,1.045105,-0.38555908,42.53125,-25.015625,20.25
1664567309463,0.37036133,-0.14752197,-0.039855957,-30.609375,-13.75,-49.453125
1664567309492,0.3803711,-0.28961182,-0.0068969727,6.984375,8.390625,-2.0
1664567309525,-0.04663086,0.17156982,-0.28424072,-4.046875,-2.796875,8.109375
1664567309582,0.6057129,-0.0025024414,-0.29156494,-4.46875,-16.609375,20.84375
1664567309611,0.46166992,-1.1126099,-0.47149658,-7.71875,-36.71875,12.421875
1664567309642,0.27783203,-2.0,0.4249878,65.015625,26.53125,-52.9375
1664567309701,0.0068359375,-2.0,0.10076904,-8.875,76.46875,34.9375
1664567309731,0.7910156,-1.5134888,-0.042785645,9.9375,73.09375,59.921875
1664567309762,-0.24584961,-1.0359497,0.48138428,11.921875,65.15625,-2.375
1664567309822,0.36669922,0.109802246,0.0016479492,23.015625,31.9375,12.390625
1664567309836,0.29516602,0.3468628,-0.37139893,-6.53125,-23.875,42.8125
1664567309883,-0.021240234,-0.04473877,0.121276855,-8.5,-17.046875,-4.40625
1664567309943,-0.3310547,0.06561279,-0.21392822,-23.84375,-22.890625,-13.15625
1664567309957,0.35888672,-0.12286377,-0.6018677,-20.671875,1.71875,10.578125
1664567310001,0.7331543,-1.7720337,-0.6109009,-30.46875,2.96875,-32.34375
1664567310063,1.999939,-2.0,0.51849365,25.96875,-72.25,-31.4375
1664567310078,-0.8444824,-2.0,-0.4043579,70.875,-30.296875,4.234375
1664567310123,0.58251953,-2.0,0.12835693,-53.1875,10.9375,-39.453125
1664567310182,0.48632812,-0.9475708,0.4147339,3.65625,-3.09375,13.796875
1664567310197,-0.82177734,0.9911499,-0.35113525,44.421875,-22.75,25.09375
1664567310242,0.23852539,0.058288574,0.10882568,-41.671875,4.390625,-58.59375
1664567310275,0.09472656,-0.46954346,0.015319824,0.375,-11.015625,-19.484375
1664567310318,0.022460938,0.098083496,-0.32305908,-27.84375,-4.484375,-10.5625
1664567310363,0.6376953,0.12664795,0.06439209,-3.46875,1.046875,7.625
1664567310392,-0.27294922,-0.93585205,-0.73687744,-97.875,21.375,-27.34375
1664567310436,-0.23657227,-2.0,1.2313843,57.75,-69.984375,-75.078125
1664567310482,-0.26538086,-1.946106,0.051452637,-93.171875,105.375,51.140625
1664567310512,0.88134766,-2.0,0.17327881,-31.890625,19.78125,-12.3125
1664567310558,-0.25170898,-0.96954346,0.6149292,16.640625,20.203125,-6.875
1664567310603,0.42578125,0.27215576,0.04852295,7.9375,33.078125,13.71875
1664567310632,-0.048095703,0.28485107,-0.36138916,-23.875,-25.0625,25.453125
1664567310677,0.07421875,0.17230225,-0.16436768,-17.203125,-30.984375,1.296875
1664567310721,-0.047607422,0.06097412,-0.17510986,-21.390625,-36.5625,-21.578125
1664567310752,0.31396484,-0.34747314,-0.56256104,-11.8125,-6.9375,-17.53125
1664567310800,1.0576172,-2.0,0.291687,-40.4375,-26.78125,-72.171875
1664567310843,0.55493164,-1.7940063,0.22528076,13.203125,-6.3125,16.359375
1664567310872,-0.61938477,-1.6870728,0.34613037,15.34375,-29.8125,12.46875
1664567310902,0.22875977,-1.6809692,0.56781006,-6.640625,-58.96875,-19.984375
1664567310963,-0.24560547,-1.2156372,0.40008545,11.203125,-19.046875,0.28125
1664567310992,-0.33007812,-0.3164673,0.19110107,-2.125,-13.03125,7.203125
1664567311023,0.0637207,0.23138428,0.22845459,-8.078125,2.90625,-16.796875
1664567311083,0.064941406,0.13006592,-0.04522705,-16.4375,16.796875,-19.0625
1664567311112,0.31054688,-0.39508057,-0.23248291,-12.25,29.90625,-1.34375
1664567311142,-0.1484375,-1.0090942,-0.63775635,-29.265625,-10.0,5.921875
1664567311202,0.123046875,-2.0,-0.15533447,-60.09375,-29.09375,-37.21875
1664567311233,0.2998047,-2.0,0.7526245,5.1875,75.15625,28.234375
1664567311262,-0.32592773,-1.281311,0.47332764,39.859375,48.671875,5.234375
1664567311325,0.62231445,-1.593811,0.30999756,4.078125,23.640625,4.875
1664567311336,0.43603516,-0.6851196,0.41400146,23.59375,32.5625,32.9375
1664567311382,-0.27612305,-0.07623291,0.015563965,43.015625,-5.375,18.765625
1664567311443,-0.12036133,-0.21710205,-0.030090332,27.890625,1.609375,5.421875
1664567311458,0.064453125,-0.36431885,0.19915771,9.921875,-0.15625,3.96875
1664567311506,-0.23364258,-0.51812744,-0.062072754,10.046875,-11.265625,0.609375
1664567311562,-0.075927734,-0.7883911,0.17010498,-10.296875,-12.75,-10.390625
1664567311579,-0.018798828,-1.4224243,-0.10650635,-34.328125,-14.28125,-29.65625
