# Sensor type: Respeck
# Activity type: Climbing stairs
# Activity code: 12
# Subject id: s1912558
# Notes: 
timestamp,accel_x,accel_y,accel_z,gyro_x,gyro_y,gyro_z
1664562986823,0.006591797,-0.93414307,0.28826904,-0.890625,-0.703125,-0.421875
1664562986884,-0.045898438,-0.96417236,0.32537842,-0.421875,1.703125,-1.71875
1664562986913,-0.03881836,-0.99786377,0.33514404,1.046875,-0.46875,-0.59375
1664562986943,0.015625,-0.96343994,0.2982788,-0.28125,2.1875,-1.1875
1664562987003,0.012939453,-0.93951416,0.28948975,0.28125,1.796875,-0.671875
1664562987018,0.014892578,-0.94610596,0.26116943,1.03125,-1.234375,0.25
1664562987063,0.039794922,-0.95562744,0.2892456,2.640625,-2.609375,1.578125
1664562987124,0.07324219,-0.9573364,0.3217163,1.375,-3.8125,3.546875
1664562987138,0.060546875,-0.95684814,0.3012085,4.15625,-5.609375,5.21875
1664562987183,0.035888672,-0.9390259,0.34661865,4.59375,-8.765625,6.203125
1664562987244,-0.092041016,-1.0064087,0.38250732,4.3125,-6.5,3.859375
1664562987257,-0.072265625,-1.02594,0.3739624,1.125,-4.484375,3.515625
1664562987302,-0.015625,-0.94854736,0.35394287,-0.6875,-3.703125,2.9375
1664562987334,-0.0637207,-0.9170532,0.36224365,0.21875,1.328125,1.6875
1664562987423,-0.045898438,-0.9487915,0.3522339,-0.703125,-2.46875,4.078125
1664562987425,-0.018310547,-0.93878174,0.37591553,-4.25,1.359375,1.703125
1664562987483,-0.05493164,-0.9414673,0.36419678,-4.0625,3.5625,0.921875
1664562987498,-9.765625E-4,-0.9468384,0.3463745,-4.1875,3.21875,1.984375
1664562987543,0.020996094,-0.9121704,0.3842163,-3.03125,4.84375,1.015625
1664562987572,0.0036621094,-0.91485596,0.3685913,-0.3125,2.3125,2.28125
1664562987633,-0.009765625,-0.8970337,0.38983154,2.546875,5.953125,0.34375
1664562987662,-0.0063476562,-0.91192627,0.42303467,4.203125,4.09375,0.5625
1664562987723,0.04638672,-0.9470825,0.39105225,0.921875,4.828125,0.25
1664562987738,0.0,-0.92144775,0.4628296,4.328125,7.140625,-0.40625
1664562987783,-0.004638672,-0.9463501,0.44818115,5.375,0.234375,0.171875
1664562987814,0.09741211,-0.94903564,0.35687256,7.09375,-0.359375,2.03125
1664562987857,0.06591797,-1.093811,0.32977295,-10.03125,-7.6875,2.046875
1664562987902,-0.064208984,-1.1765747,0.5062866,3.046875,2.625,0.21875
1664562987937,0.0061035156,-1.2468872,0.38153076,0.03125,6.109375,-3.9375
1664562987979,0.07348633,-1.2207642,0.31903076,-10.15625,7.59375,-1.71875
1664562988038,0.049316406,-0.9627075,0.24383545,-3.46875,8.8125,-1.671875
1664562988052,0.0703125,-0.9158325,0.04046631,-10.28125,7.03125,-3.84375
1664562988084,0.115722656,-0.99102783,0.15447998,-5.625,4.640625,-3.921875
1664562988143,0.07348633,-0.9102173,0.22894287,6.0625,-0.96875,-6.1875
1664562988205,-0.015136719,-0.97784424,0.18206787,6.03125,2.015625,-5.96875
1664562988207,-0.001953125,-0.9829712,0.17791748,3.625,0.5,-3.859375
1664562988279,-0.016357422,-0.92388916,0.22528076,9.515625,2.578125,-7.125
1664562988292,-0.020507812,-0.8867798,0.20477295,10.0,3.421875,-4.671875
1664562988324,0.04638672,-0.8616333,0.1515503,9.28125,2.25,-2.15625
1664562988384,0.043701172,-0.82891846,0.16351318,3.109375,3.421875,-2.828125
1664562988444,-0.07006836,-0.85821533,0.2255249,10.40625,1.28125,-3.421875
1664562988446,-0.046875,-0.913147,0.24310303,6.9375,-3.953125,-2.984375
1664562988518,-0.056152344,-0.9505005,0.24969482,5.703125,-7.6875,-2.84375
1664562988520,-0.051513672,-0.9085083,0.20037842,9.265625,-2.9375,-1.296875
1664562988564,-0.087646484,-1.0066528,0.23431396,1.15625,1.984375,-4.203125
1664562988624,-0.12841797,-0.9595337,0.2489624,3.25,-0.5,-3.609375
1664562988638,-0.13208008,-0.92266846,0.26556396,-1.796875,-3.234375,-3.90625
1664562988684,-0.15258789,-0.9817505,0.3053589,1.078125,-3.15625,-1.46875
1664562988743,-0.12060547,-0.960022,0.28900146,-1.015625,-3.65625,-2.03125
1664562988758,-0.09643555,-0.97857666,0.27459717,1.53125,-4.375,-1.734375
1664562988804,-0.12475586,-1.0320435,0.19793701,-5.8125,-3.953125,-0.28125
1664562988833,-0.008544922,-1.0178833,0.24871826,-6.171875,1.828125,3.390625
1664562988878,-0.032226562,-1.0881958,0.29632568,-1.15625,2.40625,1.265625
1664562988923,-0.087402344,-1.1521606,0.28826904,-4.046875,-1.1875,4.796875
1664562988953,-0.09301758,-1.1033325,0.2687378,1.640625,2.390625,3.53125
1664562988998,-0.1274414,-1.0669556,0.26800537,-1.3125,7.703125,0.1875
1664562989044,-0.03857422,-1.1152954,0.23626709,3.921875,5.078125,1.75
1664562989073,0.084472656,-1.104065,0.18353271,-7.78125,5.375,1.640625
1664562989119,0.22436523,-1.0510864,0.20721436,-8.390625,-2.65625,1.859375
1664562989163,0.19091797,-0.96173096,0.2177124,-4.203125,-3.6875,1.875
1664562989193,0.03930664,-0.88409424,0.22845459,-5.96875,-8.828125,2.3125
1664562989240,0.010986328,-0.86138916,0.24871826,-2.109375,-10.34375,2.765625
1664562989284,-0.028564453,-0.9492798,0.3139038,-6.140625,-8.328125,-1.625
1664562989313,-0.08300781,-0.94366455,0.33416748,-0.78125,-5.421875,0.21875
1664562989358,-0.042236328,-0.880188,0.30462646,3.625,-3.421875,0.5625
1664562989406,0.009521484,-0.86309814,0.28729248,2.046875,-5.8125,1.546875
1664562989433,-0.004638672,-0.8274536,0.2584839,4.203125,-5.34375,3.03125
1664562989494,-0.0859375,-0.8328247,0.25946045,7.21875,-3.03125,3.96875
1664562989523,-0.022705078,-0.8933716,0.3048706,-2.484375,-5.609375,5.984375
1664562989554,-0.0031738281,-0.9182739,0.30584717,-1.5,1.34375,6.734375
1664562989583,-0.099121094,-0.8875122,0.34588623,-2.859375,2.90625,6.28125
1664562989644,0.014892578,-0.92803955,0.34368896,3.03125,1.359375,5.59375
1664562989703,-0.022460938,-0.928772,0.34881592,4.78125,2.109375,3.578125
1664562989704,-0.064697266,-0.88531494,0.3571167,2.078125,3.90625,2.75
1664562989764,-0.059814453,-0.93536377,0.33026123,1.671875,7.328125,0.515625
1664562989794,-0.041015625,-0.98150635,0.38153076,-1.65625,9.8125,-1.25
1664562989823,0.011230469,-0.95025635,0.33416748,8.359375,14.234375,-2.046875
1664562989883,0.079589844,-1.0823364,0.31072998,-2.203125,5.390625,-0.703125
1664562989914,0.009277344,-1.1109009,0.41937256,3.09375,13.734375,0.875
1664562989944,-0.048339844,-1.1231079,0.35614014,3.65625,16.03125,-5.25
1664562990003,0.060546875,-1.18927,0.33831787,-9.25,10.671875,-4.90625
1664562990018,0.15405273,-1.2913208,0.31243896,-1.90625,1.171875,1.09375
1664562990078,0.040771484,-1.069397,0.24847412,-4.734375,6.546875,-2.25
1664562990124,-0.0053710938,-0.9434204,0.14007568,-19.03125,7.5625,-4.359375
1664562990139,0.18188477,-0.93096924,0.15765381,-10.03125,8.8125,-4.328125
1664562990184,0.13110352,-0.9746704,0.21087646,1.234375,7.515625,-10.5625
1664562990243,0.05517578,-0.9614868,0.21038818,9.703125,2.59375,-7.421875
1664562990259,0.00390625,-0.9319458,0.230896,4.125,3.34375,-9.125
1664562990302,-0.021728516,-0.90460205,0.2387085,5.296875,3.421875,-7.1875
1664562990334,0.03857422,-0.84820557,0.18255615,7.8125,-2.703125,-3.390625
1664562990379,0.029296875,-0.77716064,0.18914795,2.859375,-1.109375,-2.734375
1664562990424,-0.03930664,-0.81036377,0.22625732,1.640625,-4.75,-1.4375
1664562990455,-0.06201172,-0.82940674,0.23480225,7.9375,-7.453125,0.3125
1664562990498,-0.11645508,-0.8994751,0.2633667,3.375,-7.625,-0.6875
1664562990543,-0.09448242,-0.9505005,0.28997803,6.5625,-4.734375,-0.46875
1664562990574,-0.10961914,-0.93170166,0.30560303,7.390625,-2.859375,-0.71875
1664562990618,-0.099853516,-0.9463501,0.26898193,2.96875,-4.046875,-0.546875
1664562990663,-0.106933594,-0.9397583,0.25286865,4.390625,-1.84375,-0.71875
1664562990694,-0.12719727,-0.9780884,0.2616577,-1.234375,-2.453125,-0.3125
1664562990738,-0.103027344,-1.0010376,0.28216553,-0.078125,-1.203125,0.734375
1664562990784,-0.11669922,-1.0027466,0.3114624,-0.625,-2.640625,1.609375
1664562990813,-0.064941406,-1.0437622,0.3234253,1.171875,-4.828125,3.921875
1664562990858,-0.06933594,-1.092102,0.23724365,-1.140625,-3.578125,2.84375
1664562990904,-0.04736328,-1.1553345,0.2802124,-3.828125,-2.65625,1.359375
1664562990932,-0.060302734,-1.218811,0.29681396,1.4375,3.890625,1.8125
1664562990978,-0.0031738281,-1.223938,0.22772217,-0.046875,1.734375,4.84375
1664562991023,0.1977539,-1.0791626,0.15765381,-7.71875,-2.28125,3.890625
1664562991054,0.10473633,-0.9439087,0.18792725,-11.90625,1.90625,-2.25
1664562991084,0.09643555,-0.95880127,0.18548584,-8.875,-4.859375,1.25
1664562991144,0.17895508,-0.95098877,0.18304443,-5.21875,-9.21875,4.0
1664562991173,0.08862305,-0.89312744,0.23724365,-4.9375,-7.96875,2.03125
1664562991203,-0.001953125,-0.88897705,0.26312256,-4.046875,-9.421875,0.9375
1664562991263,0.011230469,-0.878479,0.27874756,-9.90625,-6.75,3.34375
1664562991293,0.045654297,-0.8364868,0.30462646,-5.0625,-5.84375,4.15625
1664562991325,0.023925781,-0.85113525,0.2868042,-4.890625,-8.203125,4.78125
1664562991384,-0.009033203,-0.8464966,0.31195068,0.40625,-6.375,4.546875
1664562991443,-0.03515625,-0.86846924,0.32025146,1.859375,-7.765625,4.953125
1664562991445,-0.022705078,-0.8977661,0.34173584,2.046875,-4.140625,6.171875
1664562991518,-0.014892578,-0.9368286,0.38739014,5.0625,-1.484375,3.921875
1664562991521,-0.043701172,-0.9216919,0.3522339,5.734375,1.375,3.421875
1664562991566,-0.056152344,-0.8855591,0.3817749,5.296875,3.703125,2.734375
1664562991623,-0.0625,-0.8694458,0.37176514,8.9375,6.3125,1.75
1664562991639,-0.018554688,-0.89923096,0.31488037,1.609375,8.71875,0.984375
1664562991684,-0.056396484,-0.91412354,0.39398193,-0.375,11.15625,-1.109375
1664562991743,-0.095458984,-0.8977661,0.37322998,1.171875,16.328125,-2.578125
1664562991757,-0.024169922,-0.9805298,0.4064331,-5.296875,12.90625,-3.609375
1664562991834,-0.01977539,-0.9534302,0.41888428,6.8125,22.875,-6.953125
1664562991836,0.010253906,-1.0549927,0.2531128,-7.265625,9.828125,-3.09375
1664562991879,0.029052734,-1.031311,0.34832764,0.296875,23.078125,-2.21875
1664562991925,0.011962891,-1.0154419,0.42694092,-0.453125,19.515625,-4.734375
1664562991953,0.18579102,-1.125061,0.38250732,-3.34375,12.140625,-0.375
1664562992014,0.14501953,-1.1008911,0.38128662,1.953125,7.03125,0.859375
1664562992044,0.119384766,-1.1482544,0.3781128,-0.296875,-6.984375,1.796875
1664562992074,0.10913086,-1.1951294,0.293396,-3.78125,-12.328125,0.9375
1664562992117,0.017089844,-0.98565674,0.23382568,0.6875,-2.25,-3.546875
1664562992194,0.0056152344,-0.97784424,0.10638428,-22.140625,1.75,-5.203125
1664562992197,0.060791016,-1.0181274,0.21331787,-8.765625,10.859375,-4.875
1664562992239,0.07885742,-0.9373169,0.29632568,17.734375,9.875,-8.46875
1664562992284,0.095458984,-0.8069458,0.24749756,0.359375,7.34375,-9.3125
1664562992314,0.053710938,-0.8538208,0.22259521,8.359375,3.34375,-10.96875
1664562992362,0.026123047,-0.8098755,0.22137451,13.671875,-7.546875,-6.59375
1664562992404,0.05029297,-0.7944946,0.15350342,5.828125,-10.453125,-3.625
1664562992433,-0.012207031,-0.8086548,0.19110107,3.78125,-8.25,-2.96875
1664562992484,-0.08935547,-0.8567505,0.22991943,6.109375,-10.859375,-3.6875
1664562992523,-0.079589844,-0.944397,0.262146,4.46875,-10.578125,-0.921875
1664562992554,-0.049072266,-0.9692993,0.31097412,4.96875,-8.71875,-2.5
1664562992584,-0.1015625,-0.96466064,0.29412842,7.9375,-8.765625,-2.453125
1664562992645,-0.15698242,-0.944397,0.2538452,5.265625,-5.515625,-2.90625
1664562992673,-0.09741211,-0.956604,0.23431396,5.5625,-2.875,-0.953125
1664562992704,-0.053710938,-0.9246216,0.23699951,2.078125,-0.25,-0.4375
1664562992765,-0.107666016,-0.94195557,0.23114014,2.734375,-3.3125,-0.234375
1664562992793,-0.059326172,-0.9714966,0.277771,0.453125,-4.0,1.15625
1664562992824,-0.10839844,-0.9536743,0.27947998,0.984375,-4.734375,0.09375
1664562992883,-0.091552734,-0.9685669,0.25408936,-4.3125,-7.421875,0.3125
1664562992898,-0.08520508,-1.0745239,0.25091553,-4.53125,-6.734375,0.859375
1664562992943,-0.017578125,-0.9812622,0.2584839,1.8125,-7.171875,2.0625
1664562993004,-0.07836914,-0.98223877,0.2814331,0.71875,-9.03125,3.3125
1664562993018,-0.09887695,-1.0005493,0.2892456,0.734375,-12.109375,6.1875
1664562993064,-0.16699219,-1.0200806,0.27947998,-0.359375,-5.8125,2.1875
1664562993124,-0.20410156,-1.0386353,0.32928467,-3.96875,-1.96875,-0.796875
1664562993139,-0.20043945,-1.1323853,0.36541748,-6.71875,6.65625,-1.9375
1664562993184,-0.13671875,-1.1355591,0.30633545,-9.3125,9.859375,-1.125
1664562993243,-0.005859375,-1.1838989,0.34246826,-5.625,9.546875,-0.34375
1664562993258,0.02734375,-1.1387329,0.16595459,-5.515625,3.015625,-2.484375
1664562993303,0.13085938,-0.9937134,0.22015381,-15.09375,0.375,0.71875
1664562993333,0.14379883,-0.90631104,0.25335693,-8.671875,-6.734375,-2.453125
1664562993378,-0.010986328,-0.9866333,0.2662964,-4.953125,-8.40625,0.921875
1664562993423,-0.025390625,-0.9783325,0.3085327,-1.296875,-10.671875,-0.0625
1664562993453,-0.08642578,-0.880188,0.2880249,-6.859375,-0.8125,1.375
1664562993498,-0.103515625,-0.77667236,0.30999756,0.09375,2.09375,3.546875
1664562993544,-0.013916016,-0.7683716,0.27947998,-3.5625,-1.859375,5.640625
1664562993573,-0.047607422,-0.7805786,0.2723999,-3.25,1.71875,3.828125
1664562993618,-0.107910156,-0.833313,0.3456421,-1.9375,1.03125,5.65625
1664562993663,-0.095947266,-0.8633423,0.36688232,-2.140625,4.734375,6.84375
1664562993693,-0.008056641,-0.8674927,0.39886475,-1.109375,5.75,4.125
1664562993738,-0.059570312,-0.9072876,0.39691162,5.5625,6.859375,3.359375
1664562993783,-0.018310547,-0.8831177,0.4064331,5.96875,1.71875,3.40625
1664562993813,-0.025878906,-0.8740845,0.40252686,6.5,5.046875,0.796875
1664562993858,-0.111572266,-0.8921509,0.37860107,8.59375,7.1875,-0.4375
1664562993904,-0.02368164,-0.9295044,0.3727417,2.90625,6.109375,0.0625
1664562993934,-0.009521484,-0.9351196,0.3932495,0.75,9.546875,-0.625
1664562993978,-0.036132812,-0.92315674,0.32196045,0.75,8.96875,-1.125
1664562994023,0.053710938,-1.0220337,0.3397827,-4.25,6.15625,1.25
1664562994053,-0.02709961,-1.0049438,0.4364624,-3.0,15.421875,1.875
1664562994083,0.009033203,-1.0298462,0.43695068,7.875,9.953125,1.859375
1664562994160,0.09350586,-1.1270142,0.45526123,-3.640625,8.765625,1.203125
1664562994173,0.064208984,-1.1592407,0.4064331,3.3125,1.71875,1.109375
1664562994204,0.06713867,-1.1487427,0.38494873,-1.125,-0.015625,1.203125
1664562994263,0.05810547,-1.192688,0.3373413,-4.546875,-4.6875,-1.203125
1664562994293,0.064208984,-0.9595337,0.21453857,2.703125,-2.1875,-4.703125
1664562994323,0.024414062,-0.93878174,0.10296631,-9.375,3.71875,-10.9375
1664562994384,-0.024902344,-0.97003174,0.17767334,4.71875,8.390625,-8.078125
1664562994397,0.10131836,-0.9417114,0.2531128,8.109375,2.875,-5.65625
1664562994446,0.16455078,-0.9085083,0.26141357,1.59375,0.234375,-4.53125
1664562994503,-0.024169922,-0.8933716,0.25579834,0.4375,-1.28125,-6.78125
1664562994519,-0.08081055,-0.82769775,0.22723389,12.015625,-5.953125,-3.4375
1664562994564,-0.08691406,-0.7996216,0.28167725,10.8125,-0.5,-4.515625
1664562994623,-0.014404297,-0.8508911,0.24066162,11.109375,-1.65625,-3.5
1664562994638,-0.010498047,-0.8623657,0.2008667,4.515625,-8.53125,-0.1875
1664562994687,-0.12158203,-0.9204712,0.26507568,4.53125,-9.203125,-0.390625
1664562994743,-0.17626953,-0.9234009,0.25628662,6.96875,-2.5625,-1.65625
1664562994759,-0.095703125,-0.9155884,0.25897217,4.6875,-4.21875,-1.796875
1664562994804,-0.12426758,-0.91485596,0.25335693,4.578125,-2.03125,-1.875
1664562994833,-0.13305664,-0.9378052,0.2567749,0.625,-0.6875,-2.265625
1664562994881,-0.13916016,-0.93048096,0.28826904,0.921875,0.015625,-2.703125
1664562994925,-0.13671875,-0.9348755,0.2597046,-1.34375,0.6875,-3.4375
1664562994954,-0.09008789,-0.95684814,0.3468628,-0.671875,-1.453125,-2.328125
1664562994999,-0.14526367,-0.9673462,0.3295288,7.0625,1.375,-1.171875
1664562995044,-0.15332031,-1.0396118,0.1749878,4.53125,-6.09375,-0.328125
1664562995073,0.0061035156,-1.0471802,0.21600342,-4.890625,-0.109375,2.421875
1664562995121,-0.08935547,-1.1253052,0.3847046,4.1875,1.921875,2.265625
1664562995165,-0.10058594,-1.123352,0.2597046,1.21875,-0.28125,4.875
1664562995193,-0.13476562,-1.1199341,0.21136475,-6.859375,2.140625,2.28125
1664562995239,-0.09448242,-1.0635376,0.3163452,-2.234375,5.03125,1.84375
1664562995284,-0.028808594,-1.0274048,0.24725342,-0.09375,6.90625,0.875
1664562995313,0.011474609,-0.93536377,0.17474365,4.4375,5.09375,1.609375
1664562995360,-0.043945312,-0.87384033,0.14422607,-6.59375,9.40625,-0.546875
1664562995406,0.013427734,-0.9944458,0.1593628,-3.375,0.90625,-0.703125
1664562995434,0.10864258,-1.0569458,0.21868896,-7.890625,-2.125,0.828125
1664562995478,0.13867188,-1.0918579,0.25042725,1.3125,-3.96875,-2.890625
1664562995524,0.119628906,-1.0484009,0.22161865,-2.640625,-7.234375,-2.015625
1664562995553,-0.0012207031,-1.0049438,0.26507568,-1.078125,-10.078125,-3.375
1664562995583,-0.13891602,-1.0391235,0.26434326,-9.8125,-6.125,-3.515625
1664562995646,-0.06689453,-0.9072876,0.30706787,-7.46875,-5.0,2.265625
1664562995673,-0.025634766,-0.80914307,0.26898193,-10.828125,-2.09375,3.578125
1664562995704,-0.05883789,-0.819397,0.2374878,-1.734375,-2.734375,3.21875
1664562995763,-0.044433594,-0.835022,0.32757568,3.078125,2.15625,5.9375
1664562995794,0.017333984,-0.87750244,0.28118896,4.796875,-2.203125,6.671875
1664562995823,-0.13232422,-0.9065552,0.30828857,-3.078125,3.8125,1.984375
1664562995883,-0.12231445,-0.92071533,0.34100342,2.40625,1.890625,7.140625
1664562995899,-0.02319336,-0.91607666,0.28338623,-4.3125,5.15625,5.46875
1664562995944,-0.0078125,-0.89434814,0.35980225,-2.203125,4.015625,4.203125
1664562996005,-0.055419922,-0.8965454,0.3834839,2.765625,2.90625,4.09375
1664562996018,-0.050048828,-0.90093994,0.38104248,-1.5625,4.28125,2.203125
1664562996064,-0.095947266,-0.9133911,0.4015503,-0.875,6.875,-0.03125
1664562996123,-0.016845703,-0.95440674,0.35687256,-8.625,1.6875,-0.328125
1664562996138,0.012939453,-0.9734497,0.37860107,-5.3125,0.828125,-1.640625
1664562996183,0.015625,-1.0552368,0.39764404,-6.5,4.3125,3.125
1664562996213,-0.05859375,-0.9644165,0.3336792,-0.515625,7.0625,3.28125
1664562996258,0.05908203,-1.0073853,0.3366089,-6.125,7.71875,-1.578125
1664562996303,0.11743164,-1.0142212,0.38201904,-3.8125,6.578125,-0.625
1664562996335,0.017822266,-0.93951416,0.39837646,2.3125,4.765625,-1.1875
1664562996378,0.007080078,-0.9536743,0.3842163,-6.890625,3.46875,0.15625
1664562996498,0.05419922,-1.0054321,0.43255615,-7.125,5.4375,1.4375
1664562996500,0.041015625,-1.0935669,0.46820068,-4.390625,5.78125,3.1875
1664562996501,-0.0053710938,-1.1316528,0.3949585,-5.078125,10.828125,-0.890625
1664562996544,-0.008056641,-1.0200806,0.24212646,-3.53125,13.96875,-5.15625
1664562996573,0.020751953,-1.031311,0.25994873,-1.46875,11.3125,-10.625
1664562996618,0.05517578,-0.98272705,0.25628662,9.125,17.15625,-5.9375
1664562996679,0.09106445,-0.9590454,0.24700928,3.796875,15.625,-4.96875
1664562996692,0.092041016,-0.9234009,0.31585693,7.828125,5.265625,-3.53125
1664562996739,0.07910156,-0.8870239,0.33148193,6.90625,-2.765625,-3.921875
1664562996784,-0.017333984,-0.8648071,0.28582764,7.109375,-7.171875,-3.359375
1664562996814,0.014404297,-0.772522,0.25286865,7.359375,-10.015625,-2.375
1664562996859,-0.040283203,-0.7678833,0.25872803,7.0625,-10.84375,-2.28125
1664562996904,-0.07299805,-0.79278564,0.27337646,9.359375,-13.515625,0.03125
1664562996934,-0.06518555,-0.8689575,0.30169678,7.796875,-14.5,-0.765625
1664562996963,-0.08862305,-0.92633057,0.35687256,5.625,-11.28125,-1.328125
1664562997024,-0.119140625,-0.97857666,0.31414795,5.890625,-7.796875,-2.140625
1664562997053,-0.08959961,-0.9475708,0.33099365,2.109375,-4.40625,-0.921875
1664562997083,-0.15161133,-0.8933716,0.3427124,8.140625,-1.703125,-1.9375
1664562997143,-0.16845703,-0.95269775,0.2694702,0.5,-1.328125,0.203125
1664562997174,-0.0068359375,-0.92926025,0.29681396,3.8125,-3.953125,1.484375
1664562997204,-0.08129883,-0.9463501,0.23822021,3.671875,-4.96875,1.21875
1664562997264,-0.0012207031,-1.0899048,0.22479248,-5.015625,-8.8125,2.296875
1664562997295,-0.026855469,-1.079895,0.3414917,-2.40625,-3.453125,1.59375
1664562997323,-0.10644531,-1.0713501,0.33807373,6.515625,-0.015625,4.203125
1664562997383,-0.08959961,-1.0701294,0.24749756,-0.515625,-1.46875,4.28125
1664562997398,0.0024414062,-0.9595337,0.2538452,0.875,3.484375,2.953125
1664562997443,-0.0026855469,-0.93951416,0.23699951,1.5625,6.125,2.15625
1664562997504,-0.013916016,-1.0117798,0.25994873,0.46875,5.4375,3.578125
1664562997518,-0.012451172,-1.0933228,0.32635498,-0.921875,6.109375,3.390625
1664562997566,0.064941406,-1.1924438,0.32733154,-3.1875,3.578125,5.421875
1664562997623,0.21801758,-1.1504517,0.24505615,-8.65625,1.1875,7.265625
1664562997639,0.1928711,-0.9951782,0.17694092,-15.96875,-4.296875,5.65625
1664562997684,0.13378906,-0.90460205,0.12615967,-10.28125,-10.59375,8.03125
1664562997713,0.15332031,-0.95025635,0.25628662,-3.15625,-23.203125,9.296875
1664562997759,0.084228516,-0.92071533,0.28338623,8.8125,-22.4375,5.34375
1664562997806,-0.016601562,-0.94854736,0.35858154,-9.390625,-16.515625,3.875
1664562997833,-0.05419922,-0.895813,0.3204956,2.046875,-14.234375,3.140625
1664562997878,-0.018798828,-0.90460205,0.33831787,0.953125,-3.25,0.109375
1664562997924,0.080322266,-0.9133911,0.32806396,1.0,-5.921875,2.375
1664562997954,0.051513672,-0.85601807,0.3295288,2.515625,-3.953125,1.8125
1664562998001,0.017333984,-0.8677368,0.32440186,-0.890625,-2.8125,4.453125
1664562998043,0.013916016,-0.8814087,0.33538818,-3.8125,1.03125,5.609375
1664562998074,-0.023925781,-0.9002075,0.3209839,-2.890625,1.46875,5.28125
1664562998118,0.0546875,-0.9109497,0.34295654,-4.015625,3.453125,6.890625
1664562998165,0.076660156,-0.86016846,0.37591553,-4.828125,5.765625,3.890625
1664562998193,0.014404297,-0.8635864,0.34881592,-0.890625,1.015625,2.625
1664562998239,0.0234375,-0.8735962,0.39227295,-3.421875,1.6875,0.890625
1664562998284,-0.05419922,-0.8699341,0.4237671,2.0625,5.21875,-1.90625
1664562998314,-0.0690918,-0.90582275,0.32684326,-0.5625,11.234375,-6.46875
1664562998358,0.14526367,-0.944397,0.3678589,-9.03125,4.96875,-4.046875
1664562998405,0.02709961,-1.0130005,0.3925171,5.515625,15.546875,-0.671875
1664562998433,0.015380859,-0.89434814,0.3180542,-0.53125,11.984375,-1.390625
1664562998463,0.14453125,-0.8701782,0.35369873,-5.96875,15.5,-4.46875
1664562998523,0.15478516,-0.9043579,0.40252686,-1.3125,8.40625,0.375
1664562998553,0.09057617,-0.8765259,0.3793335,10.78125,5.109375,0.34375
1664562998583,0.0061035156,-0.88531494,0.3397827,-4.421875,7.78125,-3.15625
1664562998644,0.034423828,-0.9846802,0.42230225,-1.0625,6.390625,-1.390625
1664562998674,0.09350586,-1.0933228,0.52508545,3.375,5.78125,-0.6875
1664562998703,0.026123047,-0.9829712,0.41741943,-3.4375,7.0625,-3.625
1664562998764,0.055419922,-1.0635376,0.4401245,-4.375,6.015625,-5.078125
1664562998825,0.17797852,-1.1543579,0.47772217,5.765625,0.984375,-1.875
1664562998827,0.13916016,-1.1189575,0.3287964,3.28125,-1.875,-5.0
1664562998884,0.041503906,-1.0584106,0.2855835,-6.828125,0.09375,-0.8125
1664562998944,0.055908203,-0.99884033,0.25115967,3.375,4.0,-7.828125
1664562998947,0.0925293,-0.9685669,0.26409912,9.25,8.015625,-11.53125
1664562999003,0.20605469,-0.9312134,0.2892456,2.390625,2.671875,-11.96875
1664562999034,0.16503906,-1.0276489,0.28363037,0.46875,-3.203125,-8.65625
1664562999063,0.05126953,-0.9475708,0.2958374,-2.8125,-3.6875,-9.0
1664562999124,-0.0690918,-0.9204712,0.2597046,-0.84375,-0.453125,-9.265625
1664562999138,-0.017578125,-0.90045166,0.27191162,3.140625,-2.046875,-5.71875
1664562999183,-0.0036621094,-0.8713989,0.28167725,4.15625,-1.8125,-5.171875
1664562999213,4.8828125E-4,-0.835022,0.23504639,8.390625,-6.46875,0.0
1664562999259,0.009277344,-0.800354,0.21258545,9.6875,-7.46875,1.4375
1664562999303,-0.00390625,-0.848938,0.29071045,4.53125,-7.671875,0.78125
1664562999334,-0.057617188,-0.86309814,0.29022217,6.90625,-7.109375,1.4375
1664562999379,-0.10449219,-0.91656494,0.309021,4.78125,-4.953125,0.671875
1664562999423,-0.08300781,-0.9717407,0.31976318,-4.96875,-5.828125,-1.53125
1664562999453,-0.018798828,-0.88946533,0.39666748,4.734375,-5.09375,0.734375
1664562999498,-0.09716797,-0.9273071,0.2658081,5.78125,-5.765625,0.96875
1664562999544,-0.01953125,-0.958313,0.2633667,-4.71875,-11.796875,4.578125
1664562999573,-0.037597656,-0.9819946,0.3060913,2.8125,-9.609375,4.875
1664562999618,-0.13574219,-1.0149536,0.33343506,0.421875,-4.515625,-2.09375
1664562999663,-0.1081543,-0.9907837,0.33294678,2.53125,-2.765625,-1.59375
1664562999693,-0.045898438,-0.96539307,0.26776123,5.015625,1.375,1.578125
1664562999738,0.03564453,-0.9456177,0.2074585,1.34375,-0.546875,3.125
1664562999783,0.011230469,-1.0134888,0.30633545,-1.984375,0.203125,1.9375
1664562999814,-0.100097656,-0.95269775,0.27264404,6.796875,0.34375,4.515625
1664562999858,-0.076660156,-0.9690552,0.25115967,1.984375,2.265625,3.6875
1664562999904,-0.07763672,-1.0117798,0.30023193,7.90625,3.421875,3.328125
1664562999934,-0.06738281,-1.0657349,0.3222046,9.3125,5.734375,1.53125
1664562999965,-0.06640625,-1.2144165,0.35662842,3.96875,6.875,0.625
1664563000023,-0.057373047,-1.2922974,0.3690796,2.34375,7.078125,0.4375
1664563000053,0.10839844,-1.253479,0.17401123,-7.96875,1.296875,-0.234375
1664563000084,0.18725586,-0.99176025,0.18182373,-11.140625,1.09375,1.265625
1664563000143,0.16040039,-0.8518677,0.1984253,-5.859375,-1.15625,-1.5
1664563000174,0.080078125,-0.8870239,0.21868896,-5.59375,-8.625,0.046875
1664563000204,0.07885742,-0.91607666,0.26141357,7.4375,-10.421875,0.8125
1664563000263,0.048095703,-0.94976807,0.2723999,-7.296875,-3.015625,0.078125
1664563000279,0.032958984,-0.8255005,0.25506592,1.171875,-3.0625,4.421875
1664563000324,0.010498047,-0.79888916,0.21942139,-0.125,-2.28125,4.4375
1664563000383,0.032470703,-0.8484497,0.28167725,-2.53125,-6.015625,5.859375
1664563000398,0.032714844,-0.895813,0.3163452,-2.40625,-5.3125,8.171875
1664563000445,-0.035888672,-0.8809204,0.3007202,-5.171875,-1.28125,5.9375
1664563000504,0.0024414062,-0.87628174,0.3258667,-2.828125,-3.125,5.859375
1664563000534,0.020019531,-0.85650635,0.30804443,-2.28125,0.578125,4.640625
1664563000563,0.030273438,-0.8711548,0.36419678,-3.75,0.5625,4.546875
1664563000638,0.0031738281,-0.8897095,0.40618896,-1.65625,4.15625,2.109375
1664563000640,-0.018554688,-0.90826416,0.3685913,-2.15625,3.453125,1.09375
1664563000685,-0.044433594,-0.86138916,0.41278076,-0.140625,10.625,-0.984375
1664563000714,-0.030761719,-0.8994751,0.41326904,-1.8125,9.59375,-3.75
1664563000759,0.02709961,-0.94976807,0.4484253,1.28125,12.578125,-3.609375
1664563000804,0.07055664,-0.9507446,0.25115967,-1.3125,8.015625,-2.953125
1664563000833,0.18115234,-1.0339966,0.4232788,-11.59375,6.078125,-1.171875
1664563000878,-0.038330078,-1.0322876,0.49578857,2.03125,12.84375,-0.125
1664563000924,-0.017822266,-0.9783325,0.3727417,-3.296875,11.578125,-2.84375
1664563000953,0.11645508,-1.0059204,0.35736084,-11.6875,13.53125,-2.90625
1664563000999,0.13354492,-0.9661255,0.32000732,-2.25,6.703125,0.359375
1664563001046,0.09106445,-1.0115356,0.33636475,-1.453125,8.921875,-0.515625
1664563001104,0.07373047,-1.0183716,0.3727417,5.5,11.875,-2.484375
1664563001118,0.045166016,-1.0181274,0.31903076,0.828125,7.234375,-3.890625
1664563001164,0.08129883,-1.0999146,0.29803467,2.015625,8.125,-3.25
1664563001193,0.1418457,-1.0733032,0.28485107,0.828125,7.640625,-5.671875
1664563001239,0.048828125,-1.0088501,0.25164795,-5.40625,8.265625,-12.59375
1664563001284,0.10571289,-0.9873657,0.24041748,0.921875,6.640625,-7.53125
1664563001313,0.22631836,-0.95147705,0.25946045,3.65625,-3.921875,-5.578125
1664563001403,0.014160156,-0.97491455,0.23309326,-7.765625,-5.453125,-8.796875
1664563001405,-0.07470703,-0.94317627,0.27264404,2.265625,-1.8125,-6.484375
1664563001433,0.045410156,-0.8982544,0.29901123,2.078125,-2.75,-4.875
1664563001463,0.06567383,-0.9014282,0.26409912,1.40625,-3.625,-5.046875
1664563001524,-0.04711914,-0.87042236,0.24481201,3.296875,-4.671875,-5.09375
1664563001556,-0.048339844,-0.8621216,0.24334717,7.03125,-4.765625,-2.140625
1664563001584,0.00390625,-0.85528564,0.25506592,6.859375,-5.4375,-2.625
1664563001643,-0.0390625,-0.89678955,0.2538452,7.21875,-7.65625,-1.78125
1664563001673,-0.014404297,-0.8994751,0.29437256,7.9375,-10.328125,-0.453125
1664563001705,-0.015625,-0.909729,0.27459717,3.234375,-11.734375,-0.515625
1664563001763,-0.123291016,-0.9373169,0.35491943,5.875,-9.65625,-0.171875
1664563001778,-0.14233398,-0.93951416,0.31048584,7.375,-6.8125,-0.78125
1664563001824,-0.095703125,-0.9885864,0.31610107,1.40625,-6.171875,-1.75
1664563001884,-0.15649414,-0.9536743,0.2892456,2.0,-3.9375,-2.953125
1664563001898,-0.09741211,-0.9151001,0.3143921,2.5625,-4.109375,-1.34375
1664563001958,-0.010009766,-0.90826416,0.35809326,3.03125,-7.5,1.765625
1664563002003,-0.1418457,-0.94415283,0.29803467,6.578125,-7.765625,2.203125
1664563002033,-0.100097656,-1.052063,0.25091553,0.3125,-5.34375,0.421875
1664563002063,-0.07373047,-0.95562744,0.25701904,3.921875,-2.0625,1.640625
1664563002139,-0.11743164,-0.92266846,0.23699951,3.078125,-1.6875,2.296875
1664563002144,-0.095947266,-0.94610596,0.262146,-0.171875,-1.25,2.1875
1664563002184,-0.10986328,-0.97198486,0.3053589,4.796875,0.625,3.046875
1664563002213,-0.110839844,-1.0823364,0.3287964,2.34375,-2.296875,3.265625
1664563002258,-0.19897461,-1.1655884,0.3456421,4.015625,1.015625,5.1875
1664563002304,-0.17773438,-1.1707153,0.29608154,-1.609375,8.515625,4.703125
1664563002334,-0.052246094,-1.241272,0.3312378,-4.25,8.0625,2.65625
1664563002379,0.17358398,-1.2405396,0.3131714,1.0,7.453125,5.609375
1664563002423,0.11987305,-1.0393677,0.13763428,-6.015625,6.03125,2.1875
1664563002453,0.04296875,-0.89630127,0.1461792,-14.375,-0.34375,-0.5625
1664563002499,0.045410156,-0.892395,0.18963623,-3.109375,0.015625,1.171875
1664563002544,0.20092773,-0.8303833,0.16790771,-0.90625,-2.71875,0.8125
1664563002574,0.09106445,-0.9421997,0.27996826,-8.453125,-4.296875,-2.625
1664563002619,-0.032470703,-0.9619751,0.3378296,-5.265625,-3.953125,1.546875
1664563002664,-0.0087890625,-0.8567505,0.2682495,-6.5625,-0.640625,1.609375
1664563002693,0.018554688,-0.8069458,0.30389404,-8.71875,0.0,0.890625
1664563002739,-0.0026855469,-0.80548096,0.30877686,-1.1875,0.875,2.078125
1664563002843,-0.03100586,-0.8088989,0.2982788,2.09375,0.984375,3.453125
1664563002846,-0.008056641,-0.8633423,0.34710693,-3.40625,-3.34375,6.015625
1664563002848,-0.060791016,-0.88482666,0.35150146,1.21875,1.0625,3.953125
1664563002905,-0.03564453,-0.9168091,0.38323975,-4.109375,0.796875,4.265625
1664563002963,0.028076172,-0.86505127,0.401062,6.90625,1.359375,4.390625
1664563002967,-0.045166016,-0.89385986,0.40130615,3.53125,1.625,0.875
1664563003024,-0.04736328,-0.94317627,0.42791748,3.09375,2.296875,1.625
1664563003053,-0.0546875,-0.897522,0.4406128,5.078125,9.28125,-2.0625
1664563003084,-0.025634766,-0.8845825,0.3690796,1.15625,5.34375,-4.671875
1664563003144,0.052001953,-1.1260376,0.32757568,-0.5625,3.75,-2.515625
1664563003174,0.103759766,-1.0745239,0.3546753,2.765625,7.859375,-0.328125
1664563003218,0.055664062,-1.0518188,0.31048584,-1.4375,13.84375,-3.9375
1664563003264,0.1184082,-1.1189575,0.3319702,4.578125,9.828125,0.875
1664563003294,0.1015625,-1.0637817,0.33441162,6.46875,5.984375,1.578125
1664563003323,-0.017578125,-1.0388794,0.32025146,8.515625,8.875,0.828125
1664563003383,0.0041503906,-1.0056763,0.215271,-2.796875,4.078125,0.875
1664563003398,0.13061523,-0.9246216,0.2531128,3.34375,5.5,1.609375
1664563003444,0.043701172,-0.94122314,0.19989014,-1.265625,1.46875,-4.453125
1664563003503,-0.059570312,-1.0178833,0.17474365,-2.65625,3.53125,-8.0625
1664563003518,0.053222656,-1.020813,0.15252686,4.046875,8.328125,-5.15625
1664563003565,0.13134766,-1.0628052,0.17840576,0.28125,3.734375,-6.296875
1664563003626,0.15771484,-1.1026001,0.21258545,0.828125,0.265625,-2.453125
1664563003638,0.05444336,-1.006897,0.1798706,0.3125,1.953125,-3.765625
1664563003684,-0.018554688,-0.940979,0.20574951,-2.9375,1.453125,-5.875
1664563003716,0.010253906,-0.8665161,0.20135498,5.828125,-2.09375,-2.859375
1664563003758,0.018798828,-0.7749634,0.18719482,4.578125,-1.828125,-2.390625
1664563003803,0.014160156,-0.7888794,0.17279053,2.359375,-4.0625,-1.625
1664563003833,0.001953125,-0.8428345,0.16693115,7.046875,-8.203125,1.375
1664563003878,-0.050048828,-0.8809204,0.18743896,3.96875,-4.40625,0.125
1664563003924,-0.011230469,-0.95147705,0.27801514,5.75,-5.515625,0.0
1664563003954,-0.03930664,-0.9690552,0.28826904,2.84375,-7.71875,-0.71875
1664563003998,-0.07861328,-0.98760986,0.2633667,6.9375,-5.390625,-1.90625
1664563004042,-0.10620117,-0.97906494,0.25628662,5.328125,-5.1875,-2.328125
1664563004073,-0.0390625,-0.9312134,0.2531128,2.90625,-4.28125,-0.8125
1664563004118,-0.084228516,-0.9602661,0.23699951,1.484375,-2.84375,-1.3125
1664563004164,-0.100097656,-0.9522095,0.22332764,-1.15625,-5.109375,-0.640625
1664563004194,-0.027832031,-0.9546509,0.25238037,-9.296875,-4.359375,0.03125
1664563004239,-0.06762695,-0.9636841,0.3078003,-1.40625,-8.796875,-0.25
1664563004284,-0.13891602,-1.045227,0.20306396,-6.59375,-9.03125,1.46875
1664563004314,-0.02709961,-1.0791626,0.27825928,-7.328125,-7.0,0.859375
1664563004343,0.032470703,-0.975647,0.3390503,0.90625,-3.890625,0.640625
1664563004404,-0.15429688,-1.0022583,0.23065186,5.140625,-1.9375,3.265625
1664563004433,-0.11767578,-1.0281372,0.24383545,-1.609375,-2.703125,2.5625
1664563004463,-0.06982422,-1.0205688,0.32611084,-1.328125,1.0625,0.328125
1664563004523,-0.11376953,-1.0474243,0.32855225,-0.375,0.84375,0.78125
1664563004554,-0.099609375,-1.1038208,0.33148193,0.609375,-0.265625,0.25
1664563004584,-0.08105469,-1.164856,0.28729248,-5.265625,-3.0,-0.1875
1664563004644,0.1459961,-1.2883911,0.3283081,-5.0625,-14.59375,1.3125
1664563004677,0.16577148,-1.036438,0.21087646,-8.234375,-11.71875,0.75
1664563004703,-0.026367188,-0.88409424,0.1762085,-17.609375,-12.6875,2.0625
1664563004764,0.032958984,-0.8706665,0.23504639,-8.109375,-16.34375,7.28125
1664563004778,0.1459961,-0.9175415,0.2929077,-1.84375,-13.328125,5.1875
1664563004825,0.08666992,-0.9338989,0.262146,0.296875,-7.015625,3.484375
1664563004883,-0.044433594,-0.8464966,0.31219482,0.9375,-8.625,5.171875
1664563004898,-0.12158203,-0.83599854,0.30218506,7.078125,1.953125,4.59375
1664563004947,-0.061035156,-0.8291626,0.2904663,2.578125,0.8125,3.78125
1664563005003,-0.057861328,-0.84454346,0.32928467,-1.65625,1.390625,3.5625
1664563005019,-0.08081055,-0.8308716,0.3390503,1.015625,8.0625,3.625
1664563005065,0.0036621094,-0.9439087,0.27923584,-11.0,-4.265625,5.28125
1664563005093,0.076416016,-0.89434814,0.33416748,-5.515625,5.28125,4.390625
1664563005139,-0.04296875,-0.84942627,0.40130615,-6.375,-0.3125,1.09375
1664563005186,-0.0925293,-0.8386841,0.42156982,-2.453125,4.9375,2.84375
1664563005213,-0.025878906,-0.8855591,0.39105225,-0.546875,7.3125,0.359375
1664563005259,0.031982422,-0.92755127,0.39886475,-2.625,6.015625,0.421875
1664563005307,-0.078125,-0.86138916,0.48773193,5.859375,11.859375,-3.890625
1664563005334,-0.057128906,-0.8960571,0.39300537,6.96875,3.8125,-2.75
1664563005379,0.028076172,-0.99713135,0.36517334,-0.359375,5.59375,-5.828125
1664563005424,0.08569336,-1.0493774,0.3866577,-3.359375,3.671875,-2.375
1664563005454,0.027832031,-1.0134888,0.38372803,-2.734375,10.203125,0.96875
1664563005515,-0.067871094,-0.95758057,0.4015503,-3.5,8.859375,-4.328125
1664563005543,0.056152344,-0.97247314,0.38201904,3.75,16.90625,-0.234375
1664563005574,0.13720703,-0.99176025,0.36273193,-1.0,13.578125,-1.234375
1664563005619,0.026123047,-1.0620728,0.48602295,2.828125,13.5,-2.859375
1664563005664,0.05126953,-1.1516724,0.43255615,7.359375,4.9375,0.859375
1664563005693,0.052978516,-1.1682739,0.3859253,-5.78125,6.640625,-0.578125
1664563005739,0.0637207,-1.0532837,0.33343506,2.71875,7.625,0.046875
1664563005798,0.12670898,-0.91729736,0.21722412,-2.515625,3.84375,-2.828125
1664563005814,0.06323242,-0.96954346,0.15911865,-1.296875,2.625,-5.71875
1664563005844,-0.02319336,-1.0425415,0.21014404,2.484375,3.828125,-7.671875
1664563005903,0.030029297,-1.0322876,0.21917725,8.84375,-0.15625,-0.125
1664563005934,0.10668945,-0.88653564,0.23504639,5.234375,2.21875,-3.53125
1664563005963,-0.0012207031,-0.87823486,0.21136475,3.109375,1.4375,-5.65625
1664563006023,0.0068359375,-0.8074341,0.20916748,6.65625,0.125,-2.640625
1664563006054,0.048095703,-0.77789307,0.184021,12.390625,-1.84375,0.109375
1664563006082,-0.010253906,-0.82940674,0.1593628,4.34375,-5.046875,-1.890625
1664563006144,-0.008544922,-0.85284424,0.19207764,7.25,-5.0625,-0.421875
1664563006204,-0.05444336,-0.9133911,0.2748413,7.515625,-5.359375,-1.578125
1664563006206,-0.027832031,-0.91729736,0.24993896,9.75,-8.71875,0.59375
1664563006263,0.033935547,-0.9475708,0.2579956,0.6875,-9.671875,-2.65625
1664563006278,-0.10107422,-0.991272,0.31903076,7.21875,-9.359375,-3.078125
1664563006324,-0.14501953,-0.9927368,0.2592163,7.578125,-10.71875,-0.34375
1664563006384,-0.080566406,-0.9336548,0.22894287,6.875,-4.84375,0.59375
1664563006399,-0.08911133,-0.9639282,0.25482178,2.65625,-3.5625,-0.546875
1664563006444,-0.13452148,-0.9602661,0.26239014,2.515625,-4.078125,-1.859375
1664563006503,-0.1340332,-1.0249634,0.27044678,-6.84375,-0.765625,-1.4375
1664563006534,-0.026855469,-1.0339966,0.30438232,-3.765625,-2.640625,-0.96875
1664563006563,-0.07446289,-1.046936,0.29193115,-3.90625,-2.828125,-0.921875
1664563006596,-0.10449219,-1.1038208,0.26654053,-7.453125,-0.828125,0.734375
1664563006638,-0.024414062,-1.0342407,0.3085327,-5.34375,-1.90625,-0.25
1664563006683,-0.0949707,-1.0230103,0.2826538,-3.296875,2.9375,-1.0625
1664563006715,-0.12963867,-1.0635376,0.27020264,-8.46875,3.9375,0.34375
1664563006758,0.018310547,-1.0401001,0.27947998,-1.46875,6.1875,-0.484375
1664563006803,0.09643555,-1.1082153,0.26849365,-9.265625,1.609375,1.5
1664563006833,0.140625,-1.0029907,0.22747803,-8.078125,-2.6875,3.796875
1664563006878,0.08227539,-0.91851807,0.1984253,-9.890625,-5.359375,1.78125
1664563006923,0.052734375,-0.9602661,0.2765503,-5.53125,-10.046875,3.46875
1664563006953,-0.0126953125,-0.94244385,0.25457764,-5.828125,-7.21875,3.796875
1664563007014,0.0073242188,-0.84698486,0.24725342,-1.40625,-1.25,2.796875
1664563007044,0.05053711,-0.85601807,0.28729248,-8.3125,0.875,0.375
1664563007073,0.009277344,-0.8965454,0.29681396,-1.0625,-0.109375,1.0
1664563007118,0.07763672,-0.9595337,0.34368896,3.1875,-5.625,4.78125
1664563007164,0.09667969,-0.96881104,0.30584717,8.578125,-3.6875,5.234375
1664563007194,0.025878906,-1.0093384,0.32977295,3.65625,-7.15625,5.1875
1664563007239,0.013427734,-0.9451294,0.3241577,6.5,-4.375,6.765625
1664563007283,-0.034179688,-0.89068604,0.32269287,8.28125,0.03125,3.125
1664563007313,-0.04711914,-0.8460083,0.29315186,8.9375,2.921875,4.78125
1664563007344,-0.052734375,-0.8587036,0.3007202,4.546875,6.15625,3.625
1664563007403,-0.02319336,-0.89923096,0.3012085,1.34375,8.203125,2.4375
1664563007433,-0.025146484,-0.89630127,0.32733154,-1.421875,9.171875,0.609375
1664563007463,0.010498047,-0.9104614,0.36932373,0.109375,10.359375,0.125
1664563007538,0.028076172,-0.9246216,0.35980225,2.109375,5.84375,-0.4375
1664563007553,-0.013427734,-0.8977661,0.35272217,3.890625,5.609375,-2.625
1664563007584,-0.068359375,-0.8875122,0.39007568,5.546875,7.53125,-4.265625
1664563007642,-0.03466797,-0.9006958,0.36517334,1.046875,9.171875,-2.8125
1664563007704,-0.03100586,-0.96539307,0.3517456,-2.09375,13.90625,-4.71875
1664563007718,-0.00390625,-0.9492798,0.31292725,-3.5,10.515625,-4.78125
1664563007763,0.13232422,-1.0349731,0.34979248,-7.359375,3.921875,-2.171875
1664563007794,0.08935547,-1.1277466,0.42938232,-8.171875,5.5,1.46875
1664563007823,-0.061279297,-1.0408325,0.4064331,5.140625,7.1875,-0.90625
1664563007884,0.043701172,-1.0913696,0.4159546,-7.828125,3.96875,-1.765625
1664563007898,0.11254883,-1.1712036,0.37127686,0.0,0.078125,1.4375
1664563007944,0.1081543,-1.1499634,0.35076904,3.953125,1.234375,0.78125
1664563008004,0.019042969,-1.1785278,0.28851318,-15.53125,2.9375,-6.203125
1664563008018,0.0056152344,-0.9570923,0.13543701,-5.890625,9.953125,-4.625
1664563008065,0.043945312,-0.85821533,0.14764404,-5.0,10.984375,-9.3125
1664563008093,0.107177734,-0.9043579,0.21551514,-4.296875,7.3125,-8.921875
1664563008141,0.14233398,-0.89385986,0.23797607,3.515625,2.625,-6.640625
1664563008199,0.06982422,-0.85821533,0.20281982,2.765625,0.03125,-7.828125
1664563008243,0.057128906,-0.8665161,0.25164795,0.8125,-6.34375,-5.46875
1664563008258,0.030273438,-0.83380127,0.26849365,10.828125,-9.71875,-2.921875
1664563008304,-0.03564453,-0.86602783,0.24334717,7.96875,-10.984375,-2.390625
1664563008336,-0.052734375,-0.94537354,0.29071045,13.75,-12.140625,0.828125
1664563008380,-0.096191406,-0.91192627,0.2645874,12.765625,-10.8125,1.171875
1664563008425,-0.12841797,-0.9558716,0.22357178,8.53125,-4.3125,-1.515625
1664563008453,-0.095458984,-0.91485596,0.23114014,10.140625,-2.734375,0.625
1664563008502,-0.07006836,-0.90948486,0.25091553,8.109375,-2.875,-0.546875
1664563008544,-0.1015625,-0.92144775,0.24041748,5.78125,-3.015625,-0.5
1664563008574,-0.100097656,-0.89923096,0.21722412,7.84375,-0.8125,-0.75
1664563008619,-0.12695312,-0.94610596,0.2526245,2.671875,-0.4375,-2.21875
1664563008664,-0.059326172,-0.9734497,0.2489624,2.109375,1.3125,-1.453125
1664563008693,-0.10961914,-1.0132446,0.2518921,-0.015625,1.359375,-1.828125
1664563008754,-0.084472656,-1.0064087,0.24310303,-4.34375,0.28125,-0.765625
1664563008784,-0.06323242,-0.95391846,0.30706787,0.109375,1.15625,1.0625
1664563008813,-0.07128906,-0.96173096,0.2970581,-0.96875,-0.328125,0.671875
1664563008844,-0.055908203,-0.9668579,0.2682495,1.890625,-2.53125,2.515625
1664563008904,-0.041503906,-0.9866333,0.15692139,-3.640625,-3.734375,3.65625
1664563008934,-0.028076172,-0.96466064,0.26019287,-7.953125,5.296875,2.296875
1664563008963,-0.071777344,-1.0481567,0.309021,-0.09375,1.125,0.796875
1664563009026,-0.057861328,-1.0237427,0.31341553,0.78125,-4.03125,4.9375
1664563009052,-0.099121094,-1.0117798,0.29779053,-0.0625,-3.140625,1.921875
1664563009084,-0.12597656,-1.0354614,0.3258667,-1.953125,-2.734375,0.0625
1664563009144,-0.099365234,-1.0840454,0.3217163,-3.53125,-0.328125,-0.609375
1664563009158,-0.103515625,-1.1489868,0.30999756,-8.328125,1.75,-2.296875
1664563009203,0.0234375,-1.1321411,0.26727295,-5.734375,4.546875,-2.265625
1664563009264,0.02319336,-1.0706177,0.18719482,-9.59375,3.375,-5.546875
1664563009278,-0.0075683594,-0.9907837,0.2567749,-15.21875,3.515625,-5.328125
1664563009339,0.018554688,-0.9163208,0.26654053,-3.28125,2.328125,-0.40625
1664563009385,0.08544922,-0.8965454,0.24603271,-8.71875,0.3125,-4.8125
1664563009399,-0.011962891,-0.91241455,0.23260498,-7.359375,1.0625,-3.65625
1664563009444,0.055419922,-0.9529419,0.30560303,-9.15625,0.3125,-0.09375
1664563009534,0.084228516,-0.92559814,0.32073975,-4.296875,-1.171875,4.015625
1664563009538,-0.0056152344,-0.9011841,0.30706787,-8.25,-3.046875,5.03125
1664563009563,-0.061279297,-0.91290283,0.32073975,-10.65625,-2.5,5.671875
1664563009594,-0.08251953,-0.8579712,0.3673706,-13.703125,-6.421875,6.984375
1664563009712,-0.0014648438,-0.85040283,0.47503662,1.265625,-11.1875,10.46875
1664563009714,-0.028808594,-0.8665161,0.41033936,5.390625,-4.265625,6.296875
1664563009715,-0.02368164,-0.87091064,0.32269287,0.78125,-1.640625,6.9375
1664563009772,-0.055419922,-0.81036377,0.3859253,-0.265625,-3.484375,3.84375
1664563009818,-0.080566406,-0.87335205,0.4076538,0.265625,-1.171875,4.21875
1664563009832,-0.061279297,-0.88726807,0.3998413,-4.453125,4.359375,1.1875
1664563009879,-0.04736328,-0.9168091,0.48406982,-4.5,5.84375,-0.015625
1664563009924,-0.07836914,-0.8623657,0.5516968,4.375,12.078125,-1.46875
1664563009954,-0.0048828125,-0.8477173,0.47113037,1.703125,17.1875,-4.03125
1664563009999,0.009521484,-0.8796997,0.354187,4.453125,16.15625,-3.90625
1664563010043,0.09838867,-1.0169067,0.3932495,-9.890625,2.421875,5.359375
1664563010074,-0.011230469,-0.86798096,0.39471436,8.171875,7.90625,4.03125
1664563010118,-0.056396484,-0.86383057,0.3534546,-1.375,10.328125,-1.390625
1664563010163,0.09033203,-1.0933228,0.4833374,-7.234375,12.234375,3.296875
1664563010193,0.07788086,-1.0151978,0.48406982,7.765625,11.4375,2.046875
1664563010299,0.07128906,-1.0401001,0.5187378,1.171875,14.765625,-1.4375
1664563010301,0.1508789,-1.1401978,0.4623413,1.640625,6.421875,-1.765625
1664563010313,0.107421875,-1.0449829,0.4418335,5.578125,2.765625,-4.90625
1664563010344,0.0625,-1.0540161,0.3583374,3.828125,-0.0625,-4.515625
1664563010404,0.07055664,-1.0073853,0.3522339,8.84375,2.484375,-4.609375
1664563010433,0.048095703,-0.91656494,0.26776123,8.25,0.9375,-4.03125
1664563010464,0.07446289,-0.91656494,0.23822021,0.25,-0.953125,-3.515625
1664563010523,0.09057617,-1.0015259,0.24090576,2.390625,0.234375,-3.0
1664563010556,0.020507812,-0.9690552,0.21966553,1.15625,0.125,-5.3125
1664563010584,-0.049316406,-0.9204712,0.20526123,5.90625,5.5,-5.359375
1664563010646,0.030273438,-0.94122314,0.2802124,15.140625,4.21875,-4.203125
1664563010659,0.10058594,-0.95391846,0.27313232,9.140625,-0.78125,-2.328125
1664563010705,0.03930664,-0.93634033,0.27679443,8.015625,-4.640625,-2.140625
1664563010763,-0.06591797,-0.8977661,0.24578857,9.765625,-5.515625,-4.046875
1664563010778,-0.04663086,-0.8892212,0.26019287,12.96875,-6.734375,-1.203125
1664563010824,0.03955078,-0.850647,0.20306396,1.53125,-5.03125,-2.453125
1664563010883,-0.06225586,-0.87701416,0.2645874,-0.859375,2.8125,-3.96875
1664563010898,-0.08251953,-0.8674927,0.26263428,12.6875,-5.421875,3.234375
1664563010959,0.053955078,-0.89190674,0.25775146,5.015625,-8.328125,3.84375
1664563011019,-0.060302734,-0.9663696,0.26776123,3.46875,-10.109375,-0.140625
1664563011022,-0.13232422,-0.9824829,0.26654053,2.984375,-11.0,-0.40625
1664563011079,-0.11694336,-0.9546509,0.25408936,2.28125,-4.640625,-2.96875
1664563011094,-0.103027344,-0.9717407,0.28729248,2.46875,-1.375,-2.984375
1664563011153,-0.02734375,-0.93170166,0.26239014,-0.796875,-1.140625,-0.234375
1664563011185,-0.026611328,-0.9324341,0.31488037,0.671875,-3.890625,0.140625
1664563011213,-0.125,-0.97906494,0.2579956,-0.21875,-2.78125,0.546875
1664563011259,-0.05102539,-1.0144653,0.20916748,-6.25,-4.296875,1.671875
1664563011305,0.020263672,-0.9692993,0.26068115,-3.359375,2.90625,4.28125
1664563011334,-0.005126953,-1.036438,0.2929077,0.21875,-0.859375,2.03125
1664563011378,-0.049560547,-0.9968872,0.27972412,-1.140625,-2.15625,3.234375
1664563011424,-0.109375,-0.9859009,0.28216553,-1.171875,0.734375,1.46875
1664563011453,-0.08569336,-0.9885864,0.2929077,-2.328125,3.515625,-1.703125
1664563011499,-0.088134766,-1.0159302,0.34124756,1.21875,5.09375,-1.484375
1664563011543,-0.11816406,-1.0310669,0.32611084,0.28125,5.9375,-3.15625
1664563011573,-0.092041016,-1.0444946,0.3234253,0.578125,7.265625,-5.421875
1664563011620,0.029052734,-1.0964966,0.28948975,-0.96875,7.734375,-8.140625
1664563011665,0.0546875,-1.1887817,0.24481201,-1.890625,7.71875,-5.515625
1664563011693,0.06201172,-1.0701294,0.199646,-7.84375,4.234375,-3.09375
1664563011738,0.064697266,-0.9631958,0.20965576,-13.921875,2.515625,-1.5625
1664563011786,0.07836914,-0.9805298,0.20574951,-8.53125,-4.890625,0.78125
1664563011813,0.11743164,-0.9680786,0.24578857,-0.03125,-5.953125,4.40625
1664563011844,0.041992188,-0.9158325,0.2897339,-6.53125,-5.0,1.390625
1664563011903,-0.041748047,-0.9126587,0.26312256,-0.9375,-5.390625,1.9375
1664563011933,-0.01953125,-0.8989868,0.2687378,-6.40625,-2.890625,2.921875
1664563011965,0.011230469,-0.83258057,0.2909546,-4.34375,-3.28125,5.984375
1664563012024,-0.014160156,-0.8262329,0.2843628,-2.484375,-4.125,5.890625
1664563012053,-0.03881836,-0.8899536,0.30169678,2.140625,-5.703125,7.109375
1664563012083,0.0034179688,-0.8609009,0.32244873,5.8125,-8.046875,8.734375
1664563012143,-0.013427734,-0.89019775,0.3522339,6.265625,-5.609375,5.59375
1664563012204,-0.050048828,-0.923645,0.3414917,3.453125,-7.96875,5.84375
1664563012206,0.0041503906,-0.9373169,0.3390503,0.796875,-6.25,7.046875
1664563012264,0.024414062,-0.94195557,0.38909912,6.578125,-7.53125,4.515625
1664563012278,-0.0041503906,-0.94073486,0.3776245,6.59375,-4.46875,2.9375
1664563012324,-0.025634766,-0.92510986,0.3143921,6.484375,-3.078125,2.46875
1664563012398,-0.060058594,-0.90826416,0.35028076,7.53125,3.46875,-0.765625
1664563012401,-0.11401367,-0.90997314,0.35809326,2.34375,5.484375,-2.125
1664563012444,-0.044433594,-1.0027466,0.37249756,-4.15625,8.78125,-2.5
1664563012518,0.0087890625,-0.94854736,0.33148193,3.984375,16.953125,-3.578125
1664563012520,0.09350586,-1.0029907,0.3234253,-2.390625,12.015625,-1.171875
1664563012564,0.018066406,-1.0234985,0.34613037,2.140625,14.5625,0.671875
1664563012593,-0.03466797,-0.9817505,0.324646,2.875,14.765625,-2.34375
1664563012639,0.0061035156,-1.0112915,0.34783936,-4.46875,16.96875,-3.921875
1664563012683,0.084228516,-1.0481567,0.35687256,-7.171875,10.859375,-0.484375
1664563012714,0.052490234,-0.9776001,0.39764404,-1.328125,11.515625,0.421875
1664563012758,0.0056152344,-1.1221313,0.34344482,-7.328125,9.828125,-1.796875
1664563012804,0.13183594,-1.1004028,0.31463623,-4.65625,7.046875,1.125
1664563012834,0.10229492,-0.97198486,0.27386475,-3.75,6.125,-1.953125
1664563012879,0.05834961,-0.9373169,0.18865967,0.03125,2.03125,-4.3125
1664563012923,0.053710938,-1.0198364,0.13885498,1.734375,0.515625,-4.09375
1664563012953,0.052490234,-1.0838013,0.22088623,0.625,5.515625,-6.21875
1664563012998,0.09423828,-1.038147,0.22991943,0.78125,0.6875,-1.875
1664563013043,0.19213867,-0.94244385,0.20233154,-3.234375,-3.875,-1.515625
1664563013073,0.055664062,-0.956604,0.26312256,-5.71875,-4.0,-5.6875
1664563013118,-4.8828125E-4,-0.93463135,0.27581787,3.609375,-9.0,-1.328125
1664563013164,-0.02368164,-0.86798096,0.25360107,12.859375,-3.578125,-0.21875
1664563013193,-0.0925293,-0.8792114,0.20648193,10.1875,-6.5,-4.296875
1664563013223,0.028808594,-0.8694458,0.19354248,9.203125,-10.90625,-0.28125
1664563013283,0.10571289,-0.7468872,0.13128662,8.15625,-6.515625,0.203125
1664563013313,-0.04736328,-0.8218384,0.16790771,0.765625,-8.5,-2.265625
1664563013346,-0.07446289,-0.9011841,0.27093506,11.59375,-14.0625,4.71875
1664563013404,-0.13232422,-0.94854736,0.25360107,2.0625,-4.84375,0.09375
1664563013435,-0.091308594,-0.9963989,0.2670288,5.078125,-4.21875,-0.359375
1664563013464,-0.026611328,-1.00177,0.26068115,1.921875,-1.421875,-0.59375
1664563013524,-0.08325195,-0.9727173,0.2514038,1.296875,-4.921875,-0.890625
1664563013553,-0.0871582,-0.92559814,0.26190186,-1.15625,0.78125,-2.078125
1664563013583,-0.07885742,-0.9529419,0.28851318,-1.625,-3.3125,-2.5
1664563013643,-0.107666016,-0.9783325,0.28851318,-1.765625,-2.3125,-1.546875
1664563013658,-0.059326172,-0.97076416,0.3295288,-1.34375,-0.5,-0.265625
1664563013704,-0.08984375,-0.9824829,0.3378296,1.375,-3.109375,-0.96875
1664563013779,-0.08300781,-0.9751587,0.20452881,-2.46875,-3.078125,0.125
1664563013782,-0.07861328,-1.0396118,0.25042725,-8.484375,7.359375,0.296875
1664563013825,0.048583984,-1.0322876,0.31488037,1.765625,0.9375,0.109375
1664563013899,-0.01586914,-0.98809814,0.26287842,2.34375,0.5,2.03125
1664563013901,-0.056640625,-0.9558716,0.22357178,-0.546875,0.546875,1.984375
1664563013944,-0.05444336,-0.95196533,0.24310303,-5.15625,1.078125,-1.234375
1664563014004,-0.037109375,-0.97198486,0.2999878,-3.15625,0.890625,0.09375
1664563014018,-0.07714844,-1.0252075,0.33148193,-2.921875,0.34375,1.046875
1664563014065,-0.095947266,-1.0283813,0.340271,-2.828125,-0.453125,-1.171875
1664563014093,-0.14990234,-1.053772,0.37469482,-2.234375,1.359375,-1.546875
1664563014139,-0.15771484,-1.0740356,0.41571045,-0.84375,8.09375,-1.984375
1664563014184,-0.095458984,-1.1448364,0.28631592,-3.71875,11.03125,-4.78125
1664563014214,0.06762695,-1.1785278,0.31365967,-8.65625,6.25,-4.421875
1664563014259,0.15185547,-1.06427,0.2333374,-8.078125,-1.515625,-3.0
1664563014305,0.041992188,-0.9067993,0.20648193,-9.0625,-0.421875,-0.90625
1664563014333,0.083984375,-0.95147705,0.2616577,-10.140625,-11.28125,2.375
1664563014379,0.025390625,-0.98443604,0.28997803,1.328125,-6.328125,1.234375
1664563014425,9.765625E-4,-0.94976807,0.2868042,12.1875,-8.0625,2.796875
1664563014453,0.021240234,-0.9351196,0.2855835,-1.703125,-9.203125,6.328125
1664563014499,0.011230469,-0.85284424,0.2970581,-0.171875,-8.953125,7.3125
1664563014544,-0.037597656,-0.8274536,0.30462646,3.5,-7.640625,6.796875
1664563014573,-0.0234375,-0.83184814,0.27557373,6.71875,-8.171875,6.71875
1664563014619,-0.05053711,-0.83673096,0.2921753,3.8125,-3.046875,6.234375
1664563014664,0.017089844,-0.8652954,0.28216553,-3.265625,-3.984375,7.484375
1664563014694,0.0056152344,-0.9224243,0.34100342,3.28125,-4.453125,4.921875
1664563014724,-0.07006836,-0.93096924,0.33148193,4.796875,-3.140625,4.84375
1664563014784,-0.039794922,-0.9170532,0.3283081,6.171875,-6.109375,4.953125
1664563014842,-0.0056152344,-0.9194946,0.30950928,6.484375,-2.046875,3.421875
1664563014858,-0.037109375,-0.9175415,0.3053589,-1.5,2.03125,-1.171875
1664563014905,-0.103515625,-0.88360596,0.3847046,6.15625,5.84375,-2.765625
1664563014934,-0.051757812,-0.897522,0.387146,6.609375,3.78125,-0.78125
1664563014964,0.041015625,-1.0083618,0.29144287,4.765625,5.078125,-2.796875
1664563015023,0.021972656,-1.0112915,0.27752686,0.75,6.828125,-0.640625
1664563015083,-0.012939453,-0.9529419,0.27947998,3.21875,6.484375,2.15625
1664563015085,-2.4414062E-4,-0.95269775,0.3439331,-3.125,6.15625,-0.265625
1664563015144,0.018066406,-0.9524536,0.2958374,-2.296875,6.546875,2.984375
1664563015158,0.091552734,-1.0149536,0.31951904,-5.703125,4.046875,3.828125
1664563015204,0.09692383,-1.0615845,0.3468628,-4.15625,5.65625,4.234375
1664563015263,0.023925781,-1.0090942,0.28533936,-4.328125,4.78125,3.0
1664563015278,0.12768555,-0.9727173,0.26556396,-1.453125,0.046875,5.84375
1664563015323,0.083984375,-0.93096924,0.30560303,-3.21875,4.90625,1.296875
1664563015383,0.029785156,-1.0108032,0.31170654,-4.53125,0.09375,3.234375
1664563015398,0.018066406,-1.1126099,0.4364624,-7.140625,10.53125,1.234375
1664563015443,-0.041503906,-1.2615356,0.3937378,-3.53125,9.015625,-2.421875
1664563015473,0.12109375,-1.1838989,0.38983154,-4.96875,9.53125,-0.875
1664563015519,0.1418457,-0.9824829,0.2946167,-8.828125,5.296875,-4.234375
1664563015564,0.06274414,-0.9221802,0.18499756,-5.8125,6.953125,-7.28125
1664563015593,0.03125,-0.95758057,0.24261475,-4.953125,10.359375,-9.078125
1664563015639,0.052246094,-0.94244385,0.2506714,4.671875,7.5625,-11.703125
1664563015686,0.024414062,-0.9639282,0.27923584,10.875,10.71875,-12.59375
1664563015714,0.04248047,-0.8574829,0.24041748,8.96875,8.5625,-9.9375
1664563015758,0.014404297,-0.76226807,0.1906128,1.6875,6.671875,-10.171875
1664563015803,-0.0014648438,-0.78253174,0.14813232,4.671875,3.875,-8.6875
1664563015833,0.05419922,-0.8135376,0.20135498,6.015625,-1.296875,-3.03125
1664563015879,0.08544922,-0.8648071,0.1720581,3.3125,-7.75,-1.15625
1664563015922,7.324219E-4,-0.91290283,0.24505615,1.375,-10.0625,-0.390625
1664563015953,-0.067871094,-0.96099854,0.30438232,4.296875,-11.8125,0.28125
1664563015998,-0.05908203,-0.9727173,0.30340576,1.21875,-9.609375,-0.109375
1664563016044,-0.068603516,-0.96710205,0.338562,1.296875,-8.34375,0.25
1664563016073,-0.11376953,-0.9404907,0.32757568,5.125,-6.765625,1.140625
1664563016119,-0.103759766,-0.9299927,0.28607178,1.828125,-2.328125,0.6875
1664563016164,-0.0859375,-0.9138794,0.26409912,4.15625,-2.859375,0.5625
1664563016193,-0.09082031,-0.93170166,0.2826538,-0.328125,-1.734375,-0.71875
1664563016224,-0.109375,-1.0149536,0.32806396,-2.109375,0.3125,-0.875
1664563016284,-0.07421875,-0.9776001,0.31658936,0.015625,-1.28125,-0.515625
1664563016313,-0.040527344,-0.9841919,0.30926514,-3.15625,-1.84375,-0.484375
1664563016345,-0.04321289,-0.9920044,0.3036499,-1.5625,-3.046875,-0.5
1664563016403,0.010253906,-0.98687744,0.26678467,-1.140625,-4.03125,0.25
1664563016433,-0.064941406,-1.0635376,0.33563232,-0.671875,-3.71875,-0.125
1664563016466,-0.09643555,-1.0227661,0.29925537,5.484375,-5.671875,2.515625
1664563016524,-0.045654297,-0.9780884,0.30877686,3.734375,-5.078125,-0.453125
1664563016553,-0.068603516,-0.98321533,0.30682373,4.921875,-7.03125,0.328125
1664563016585,-0.064208984,-0.96588135,0.24847412,4.171875,-4.390625,0.609375
1664563016644,-0.11254883,-0.9898071,0.30633545,0.765625,-0.796875,-1.703125
1664563016703,-0.12841797,-1.0530396,0.31219482,4.625,-2.09375,-1.375
1664563016705,-0.10913086,-1.0667114,0.26287842,-1.265625,0.28125,-3.4375
1664563016763,-0.037597656,-1.0886841,0.2543335,-2.9375,0.53125,-4.140625
1664563016778,-0.027832031,-1.076477,0.21820068,-4.8125,0.765625,-3.3125
1664563016826,0.016601562,-1.0222778,0.21478271,-6.828125,-2.359375,-3.640625
1664563016884,0.103759766,-1.0222778,0.2230835,0.609375,-1.890625,1.0625
1664563016899,0.053710938,-0.93634033,0.22723389,-2.421875,0.796875,0.09375
1664563016945,0.016601562,-0.9295044,0.2074585,1.703125,-3.4375,2.484375
1664563016973,0.0087890625,-0.9480591,0.24041748,2.34375,-0.25,3.3125
1664563017018,-0.03857422,-0.8831177,0.23406982,2.765625,-0.78125,4.421875
1664563017064,-0.01953125,-0.85357666,0.25701904,0.953125,-1.25,4.234375
1664563017097,-0.0146484375,-0.8965454,0.25628662,1.328125,-3.671875,4.328125
1664563017139,0.0024414062,-0.89630127,0.23773193,4.578125,-1.34375,4.75
1664563017185,-0.017089844,-0.90411377,0.25091553,-3.84375,-3.203125,2.546875
1664563017213,-0.031982422,-0.9627075,0.30218506,-0.4375,-4.515625,4.5
1664563017258,-0.020996094,-0.9446411,0.3053589,0.9375,-1.546875,4.640625
1664563017304,-0.07861328,-0.9602661,0.29022217,-4.46875,-2.421875,3.140625
1664563017333,-0.07788086,-0.9429321,0.31048584,-2.359375,2.359375,1.53125
1664563017378,-0.07788086,-0.909729,0.31121826,-2.5,5.5625,1.0625
1664563017424,-0.043701172,-0.9224243,0.338562,-7.078125,7.59375,-0.53125
1664563017454,-0.0769043,-0.9248657,0.3678589,-1.671875,9.5625,-1.546875
1664563017499,-0.025878906,-0.89190674,0.33563232,-0.8125,9.703125,-2.203125
1664563017545,-0.02734375,-0.9170532,0.41253662,2.546875,7.828125,-2.421875
1664563017573,0.015380859,-0.9795532,0.33563232,0.890625,1.90625,-1.53125
1664563017618,0.08959961,-1.003479,0.3390503,-7.921875,-6.640625,-1.15625
1664563017664,-0.07885742,-1.0864868,0.38812256,-1.625,5.75,-0.46875
1664563017693,-0.14477539,-0.9788208,0.29119873,2.171875,6.09375,-0.109375
1664563017723,-4.8828125E-4,-0.927063,0.29119873,-13.3125,8.828125,-2.046875
1664563017786,0.10546875,-0.95098877,0.34368896,-7.03125,7.171875,2.1875
1664563017813,0.057861328,-0.88604736,0.31903076,5.65625,5.6875,3.4375
1664563017845,-0.0026855469,-0.9121704,0.33953857,-2.6875,3.609375,1.5625
1664563017903,0.03173828,-0.92755127,0.36468506,0.515625,2.078125,2.59375
1664563017933,-0.0031738281,-0.9854126,0.40130615,-0.390625,2.8125,2.828125
1664563017964,-0.056152344,-1.0264282,0.40570068,-0.0625,6.84375,0.859375
1664563018026,0.010986328,-1.0818481,0.42596436,0.625,1.5625,-1.390625
1664563018038,-0.0024414062,-1.2217407,0.4232788,-6.484375,-1.875,-1.65625
1664563018085,0.053466797,-1.1272583,0.36224365,3.203125,-1.125,-1.1875
1664563018145,0.05883789,-0.9817505,0.29803467,-8.953125,-1.0,-2.484375
1664563018159,0.015380859,-0.9483032,0.25726318,-8.296875,3.0625,-0.6875
1664563018205,0.0024414062,-0.9561157,0.22869873,-1.3125,3.28125,-5.015625
1664563018264,0.037109375,-0.9338989,0.24359131,3.421875,-1.890625,-4.375
1664563018279,0.03149414,-0.92755127,0.2897339,6.390625,-1.984375,-4.09375
1664563018324,-0.0031738281,-0.8657837,0.260437,9.21875,-5.203125,-2.6875
1664563018399,-0.067871094,-0.8538208,0.20672607,10.671875,-7.328125,-1.53125
1664563018401,-0.068115234,-0.8833618,0.2592163,16.953125,-3.8125,0.4375
1664563018444,-0.0036621094,-0.90509033,0.17645264,8.484375,-3.234375,2.265625
1664563018473,-0.052490234,-0.91607666,0.30096436,2.609375,0.828125,-0.203125
1664563018519,-0.041992188,-0.9060669,0.24627686,10.875,-1.140625,1.03125
1664563018563,-0.024658203,-0.85040283,0.23846436,7.40625,-3.34375,-0.015625
1664563018592,-0.045166016,-0.8521118,0.2838745,8.640625,-5.765625,-0.1875
1664563018638,-0.032958984,-0.90289307,0.24334717,12.875,-7.25,0.9375
1664563018683,-0.13305664,-1.0066528,0.22381592,6.875,-6.859375,-1.21875
1664563018713,-0.092285156,-0.98321533,0.26507568,9.65625,-1.46875,0.375
1664563018759,-0.1015625,-0.9336548,0.26409912,0.140625,-2.28125,-1.515625
1664563018804,-0.1015625,-1.0012817,0.30682373,-7.5,-0.71875,-3.734375
1664563018834,-0.072265625,-1.0352173,0.29193115,-1.796875,-2.234375,-1.71875
1664563018878,0.018554688,-1.0078735,0.14544678,-6.78125,-3.625,0.0625
1664563018925,-0.05102539,-0.98760986,0.2321167,-5.453125,-1.203125,1.734375
1664563018953,-0.043701172,-0.9854126,0.26190186,-3.3125,0.96875,-1.53125
1664563018999,-0.09106445,-0.91900635,0.26531982,-0.703125,1.421875,-1.671875
1664563019044,-0.084472656,-0.9260864,0.20648193,-0.453125,0.96875,-2.375
1664563019075,-0.028564453,-0.9612427,0.27801514,-5.90625,0.78125,-2.890625
1664563019163,-0.1184082,-1.0215454,0.37957764,1.09375,2.765625,-3.234375
1664563019167,-0.13574219,-1.0786743,0.33221436,-2.78125,8.515625,-2.34375
1664563019194,-0.16674805,-1.201477,0.33636475,-3.75,7.3125,-5.078125
1664563019224,-0.0546875,-1.2051392,0.28753662,-2.578125,7.875,-2.390625
1664563019284,0.11767578,-1.0425415,0.12689209,-4.21875,4.21875,0.203125
1664563019313,0.15332031,-0.9368286,0.21185303,-5.796875,-0.65625,1.625
1664563019343,0.016357422,-0.9182739,0.2753296,-7.15625,-2.0625,1.375
1664563019404,-0.12646484,-0.9578247,0.23382568,-5.59375,-1.71875,-0.359375
1664563019433,-0.076416016,-0.9168091,0.2518921,3.015625,5.109375,-0.125
1664563019463,0.09326172,-0.98443604,0.26141357,-3.28125,2.078125,-1.0
1664563019524,0.13989258,-0.99346924,0.34368896,-0.296875,-1.25,4.578125
1664563019538,-0.061279297,-0.8936157,0.30584717,1.09375,-1.6875,3.578125
1664563019584,-0.16870117,-0.84210205,0.23382568,-3.25,2.34375,2.5625
1664563019644,-0.045654297,-0.86309814,0.3065796,-12.359375,4.515625,3.5625
1664563019658,0.0056152344,-0.89141846,0.3529663,-7.21875,4.203125,3.5625
1664563019704,-0.022460938,-0.8960571,0.33538818,0.921875,3.390625,2.75
1664563019764,-0.061035156,-0.90997314,0.34539795,2.703125,1.34375,3.75
1664563019779,0.032958984,-0.8928833,0.31903076,-2.234375,-2.734375,4.40625
1664563019824,0.0024414062,-0.87042236,0.37371826,-0.515625,0.859375,0.609375
1664563019883,-0.08691406,-0.90289307,0.35784912,0.109375,1.15625,-0.515625
1664563019899,-0.036132812,-0.91729736,0.41326904,-3.0625,0.84375,-0.8125
1664563019945,-0.013427734,-0.89434814,0.42523193,7.5625,1.203125,-1.703125
1664563019972,-0.06689453,-0.8748169,0.40716553,10.390625,-1.53125,-0.4375
1664563020019,-0.032470703,-0.9573364,0.434021,7.1875,0.53125,-2.359375
1664563020064,-0.087646484,-0.97076416,0.35394287,2.140625,2.59375,-3.75
1664563020094,-0.023925781,-0.94659424,0.30877686,-4.453125,0.015625,-1.34375
1664563020139,-0.0029296875,-0.99591064,0.3649292,-5.8125,2.34375,0.203125
1664563020184,-0.11279297,-0.86724854,0.37078857,0.578125,6.578125,-0.40625
1664563020213,-0.0715332,-0.8933716,0.34222412,-1.125,15.015625,-4.0
1664563020258,0.10864258,-0.9746704,0.3829956,-8.46875,5.75,-1.0625
1664563020305,0.053955078,-1.0125122,0.42303467,5.640625,4.703125,-0.078125
1664563020333,-0.05126953,-1.1255493,0.43475342,1.375,1.359375,-1.4375
1664563020380,-9.765625E-4,-1.206604,0.46038818,4.984375,-2.375,-0.109375
1664563020424,0.01586914,-1.0986938,0.35809326,5.28125,-2.1875,1.265625
1664563020453,-0.001953125,-0.9841919,0.27874756,2.234375,-4.609375,0.984375
1664563020499,-0.018554688,-0.954895,0.26507568,5.59375,0.65625,0.265625
1664563020544,0.025634766,-1.0012817,0.26922607,4.421875,-1.0625,-2.5625
1664563020574,0.025146484,-0.99298096,0.21331787,-0.828125,-6.578125,-3.40625
1664563020619,-0.010986328,-1.0027466,0.17547607,2.53125,-1.6875,-4.53125
1664563020663,-0.018798828,-1.0239868,0.18255615,-0.375,-6.078125,-3.71875
1664563020695,0.022949219,-0.98443604,0.16326904,5.046875,-2.921875,0.375
1664563020724,-0.049560547,-0.911438,0.2526245,-0.328125,-5.0625,-0.453125
1664563020785,-0.06713867,-0.86798096,0.2592163,5.328125,-3.078125,-0.09375
1664563020814,-0.07348633,-0.8093872,0.2345581,8.8125,-5.078125,0.15625
1664563020844,-0.06201172,-0.82940674,0.2140503,3.90625,-7.328125,-0.015625
1664563020903,-0.08105469,-0.85162354,0.21087646,5.5,-4.828125,0.171875
1664563020966,-0.084228516,-0.88604736,0.27069092,-0.15625,-4.453125,-0.375
1664563020969,-0.08984375,-0.9307251,0.3036499,1.640625,-4.9375,-1.359375
1664563021024,-0.08129883,-0.9324341,0.3048706,3.171875,-3.6875,-0.953125
1664563021039,-0.11791992,-0.8936157,0.2819214,4.328125,-2.59375,-1.84375
1664563021084,-0.10058594,-0.90753174,0.2880249,5.6875,-2.484375,-1.5
1664563021143,-0.13989258,-0.9727173,0.28460693,1.46875,1.09375,-1.484375
1664563021161,-0.1706543,-0.9553833,0.2658081,-1.6875,0.140625,0.171875
1664563021204,-0.13354492,-0.94659424,0.33587646,-5.59375,3.921875,-2.109375
1664563021263,-0.13085938,-0.9512329,0.33026123,-0.921875,3.171875,-2.078125
1664563021279,-0.09814453,-0.95562744,0.33172607,-6.109375,0.140625,-2.203125
1664563021324,-0.08911133,-0.99005127,0.22259521,-3.0,-1.6875,-0.40625
1664563021385,-0.12060547,-0.9902954,0.29144287,-6.0,2.1875,0.234375
1664563021399,-0.048583984,-0.9824829,0.31488037,-2.609375,1.828125,0.828125
1664563021444,-0.087646484,-0.92974854,0.36834717,1.46875,-1.15625,2.609375
1664563021475,-0.12597656,-0.91778564,0.31097412,2.515625,-4.203125,2.328125
1664563021519,-0.14086914,-1.0176392,0.3180542,-6.921875,-0.5,-2.75
1664563021564,-0.17919922,-1.1143188,0.4147339,-5.53125,0.890625,-2.5
1664563021594,-0.1303711,-1.0493774,0.34197998,0.140625,5.828125,-0.140625
1664563021639,-0.07788086,-1.0203247,0.3439331,-3.703125,5.234375,-0.796875
1664563021684,-0.060791016,-1.093811,0.3139038,-3.140625,3.96875,-1.4375
1664563021714,-0.09643555,-1.1138306,0.3139038,0.328125,7.984375,0.109375
1664563021761,-0.017333984,-0.9890747,0.2218628,0.390625,9.96875,3.515625
1664563021804,0.07861328,-0.9336548,0.26409912,-5.03125,2.515625,4.84375
1664563021833,-0.022949219,-0.96539307,0.27801514,-5.765625,1.0,2.078125
1664563021879,-0.033203125,-1.0044556,0.2579956,1.328125,-1.21875,3.015625
1664563021926,0.03515625,-0.9780884,0.3078003,4.875,-0.015625,0.953125
1664563021954,0.115234375,-1.0772095,0.23187256,3.921875,-5.90625,0.578125
1664563021999,0.016601562,-1.022522,0.27996826,6.375,-2.171875,1.546875
1664563022043,-0.029541016,-0.8960571,0.28875732,4.78125,1.0,3.34375
1664563022073,-0.028076172,-0.8057251,0.22796631,5.34375,2.3125,3.578125
1664563022104,-0.018310547,-0.8303833,0.23358154,10.15625,1.453125,4.921875
1664563022165,0.008056641,-0.8152466,0.2892456,7.828125,2.796875,6.171875
1664563022193,-0.009033203,-0.8821411,0.25506592,1.90625,-2.359375,6.03125
1664563022225,-0.088134766,-0.9102173,0.29681396,5.375,5.171875,2.328125
1664563022285,-0.060791016,-0.94244385,0.3307495,-3.78125,3.625,1.0
1664563022313,-0.028320312,-0.89849854,0.31854248,4.078125,-0.6875,3.09375
1664563022344,-0.017578125,-0.9048462,0.2789917,-0.328125,2.15625,0.875
1664563022405,-0.033935547,-0.90753174,0.32391357,0.8125,2.890625,-1.078125
1664563022433,-0.041992188,-0.88726807,0.3139038,-2.0625,2.546875,-1.484375
1664563022465,-0.07397461,-0.9092407,0.39471436,2.234375,6.75,-4.203125
1664563022524,-0.10961914,-0.96343994,0.34539795,-0.375,3.140625,-4.546875
1664563022542,-0.01953125,-0.97540283,0.33270264,-1.5,3.265625,-4.390625
1664563022584,0.0068359375,-1.1321411,0.3710327,-10.0625,4.125,-3.765625
1664563022644,-0.13720703,-1.0396118,0.32537842,4.515625,6.0,2.59375
1664563022659,-0.10498047,-0.925354,0.31341553,-2.390625,12.515625,-3.015625
1664563022705,0.053466797,-0.99420166,0.3156128,-15.359375,11.5625,0.578125
1664563022764,0.018310547,-1.0686646,0.3842163,1.703125,11.03125,2.34375
1664563022779,0.0,-1.1956177,0.41619873,2.640625,4.5625,3.421875
1664563022825,0.025878906,-1.2669067,0.34954834,-5.828125,1.0625,1.546875
1664563022853,-0.010498047,-1.0982056,0.25360107,-3.0625,6.203125,1.171875
1664563022900,-0.016113281,-1.0261841,0.20599365,-11.828125,16.640625,-0.5625
1664563022945,2.4414062E-4,-0.9976196,0.21697998,-9.140625,21.828125,-5.203125
1664563022973,0.15551758,-0.9065552,0.2164917,4.9375,15.453125,-0.25
1664563023020,0.16723633,-0.8257446,0.24359131,-0.640625,2.5625,-3.90625
1664563023064,0.03466797,-0.8362427,0.21820068,-2.984375,1.21875,-4.75
1664563023094,-0.008056641,-0.8115845,0.23114014,3.78125,-5.421875,-2.84375
1664563023139,-0.03491211,-0.81817627,0.26971436,2.171875,-6.421875,-4.75
1664563023184,-0.051757812,-0.83795166,0.29852295,3.78125,-5.84375,-3.515625
1664563023214,-0.05419922,-0.8526001,0.27947998,3.765625,-5.640625,-2.5
1664563023258,-0.075927734,-0.8652954,0.30096436,4.296875,-3.328125,-3.390625
1664563023306,-0.08105469,-0.8740845,0.3217163,8.0625,-1.5,-1.765625
1664563023333,-0.10253906,-0.89385986,0.2975464,4.734375,-2.390625,-1.796875
1664563023379,-0.05517578,-0.91656494,0.35491943,6.734375,-3.734375,0.03125
1664563023425,-0.07788086,-0.928772,0.31658936,6.65625,-2.625,0.3125
1664563023454,-0.13012695,-0.96832275,0.36566162,-1.59375,-4.59375,0.375
1664563023499,-0.1616211,-0.928772,0.36468506,5.65625,-5.40625,1.03125
1664563023544,-0.19677734,-0.93170166,0.34979248,-1.796875,-0.625,-0.71875
1664563023576,-0.1262207,-0.9780884,0.27020264,-5.546875,5.703125,-1.640625
1664563023604,-0.16601562,-0.95098877,0.48260498,-1.203125,-1.234375,-4.390625
1664563023664,-0.099121094,-1.0945435,0.340271,-4.734375,-4.125,-7.265625
1664563023698,-0.10571289,-1.2307739,0.3690796,-4.65625,-12.734375,-8.0625
1664563023724,0.048095703,-0.9859009,0.17669678,-1.5625,-9.65625,-3.515625
1664563023784,0.21289062,-0.7984009,0.17596436,-1.25,-13.703125,4.859375
1664563023813,0.1862793,-0.90826416,0.28997803,-3.84375,-22.6875,2.171875
1664563023843,-0.17114258,-1.0737915,0.29510498,3.578125,-20.921875,0.609375
1664563023902,-0.11401367,-0.9768677,0.2855835,10.25,-13.234375,6.5625
1664563023962,0.03857422,-0.9505005,0.3283081,4.578125,-10.015625,2.53125
