# Sensor type: Respeck
# Activity type: Descending stairs
# Activity code: 13
# Subject id: s1800825
# Notes: 
timestamp,accel_x,accel_y,accel_z,gyro_x,gyro_y,gyro_z
1664563798716,-0.63500977,-0.73028564,0.2345581,5.96875,5.734375,-0.640625
1664563798761,-0.73046875,-0.7229614,0.38690186,5.296875,-8.28125,-0.015625
1664563798792,-0.67211914,-0.68048096,0.33050537,6.6875,1.109375,-1.765625
1664563798837,-0.7084961,-0.6091919,0.31341553,5.390625,0.828125,-3.140625
1664563798881,-0.6796875,-0.6489868,0.2892456,3.671875,-2.390625,-1.640625
1664563798911,-0.6833496,-0.66534424,0.3114624,4.828125,-2.046875,-1.515625
1664563798956,-0.65771484,-0.64678955,0.307312,2.546875,-1.25,-0.96875
1664563799001,-0.64282227,-0.659729,0.2645874,0.5625,-2.859375,1.15625
1664563799033,-0.5744629,-0.5942993,0.22625732,5.125,-5.90625,4.234375
1664563799076,-0.5161133,-0.49298096,0.18963623,-0.59375,-9.625,7.640625
1664563799106,-0.59350586,-0.48614502,0.23846436,-9.828125,2.09375,3.890625
1664563799151,-0.56347656,-0.5261841,0.24334717,-7.28125,-0.28125,7.96875
1664563799197,-0.59521484,-0.5215454,0.24310303,-8.15625,5.75,5.515625
1664563799226,-0.7011719,-0.6428833,0.2772827,-9.53125,3.0625,0.0
1664563799271,-0.8330078,-0.73565674,0.4569702,-7.140625,6.640625,-3.109375
1664563799316,-0.76049805,-0.73516846,0.3554077,-2.109375,0.328125,-13.5625
1664563799347,-0.9538574,-0.61016846,0.5331421,-8.96875,4.65625,-12.59375
1664563799392,-0.9914551,-0.88067627,0.3102417,-15.5,-0.828125,-19.34375
1664563799466,-0.74853516,-0.86553955,0.3522339,4.25,2.296875,-17.765625
1664563799468,-0.8569336,-0.77423096,0.36517334,4.4375,11.921875,-18.921875
1664563799511,-0.68408203,-0.7029419,0.371521,2.796875,11.46875,-1.9375
1664563799544,-0.7841797,-0.7385864,0.2814331,-0.859375,-0.390625,-6.203125
1664563799587,-0.70654297,-0.7661743,0.43621826,-3.203125,2.296875,-2.125
1664563799632,-0.5419922,-0.87994385,0.22235107,6.0,1.3125,6.9375
1664563799662,-0.63549805,-0.6851196,0.2855835,-0.875,-11.78125,8.078125
1664563799707,-0.61938477,-0.6331177,0.28997803,-4.390625,-2.34375,6.984375
1664563799751,-0.546875,-0.5442505,0.30926514,0.203125,-8.375,3.234375
1664563799782,-0.45361328,-0.487854,0.16497803,5.390625,-1.140625,4.421875
1664563799827,-0.4453125,-0.38824463,0.3961792,3.0,-2.171875,10.046875
1664563799857,-0.5004883,-0.45025635,0.2892456,-2.90625,7.1875,-1.078125
1664563799902,-0.59155273,-0.5935669,0.36761475,3.15625,5.3125,1.71875
1664563799947,-0.6623535,-0.63604736,0.45526123,0.03125,-3.046875,-2.859375
1664563799978,-0.78466797,-0.75006104,0.5128784,-11.203125,-1.21875,-7.21875
1664563800022,-0.77978516,-0.77130127,0.5055542,-4.25,-3.546875,-3.421875
1664563800066,-0.7988281,-0.7217407,0.5932007,-12.65625,-3.53125,-6.234375
1664563800096,-0.8400879,-1.0379028,0.59124756,-24.171875,-8.9375,3.03125
1664563800141,-0.85913086,-0.81744385,0.38787842,-18.375,-4.71875,-5.65625
1664563800186,-0.9033203,-0.659729,0.21697998,-20.625,3.421875,0.03125
1664563800216,-0.68188477,-0.7437134,0.32659912,16.625,-9.640625,11.359375
1664563800261,-0.7734375,-0.7354126,0.33953857,-9.015625,-5.265625,7.90625
1664563800292,-0.8273926,-0.7341919,0.16497803,6.3125,-14.53125,10.328125
1664563800336,-0.6953125,-0.7214966,0.2958374,12.234375,-14.265625,7.78125
1664563800382,-0.65234375,-0.5652466,0.25115967,9.328125,-11.359375,10.625
1664563800414,-0.7036133,-0.57940674,0.24188232,7.5,-7.828125,12.859375
1664563800457,-0.68652344,-0.6572876,0.21429443,2.171875,-3.5,11.265625
1664563800502,-0.5917969,-0.61138916,0.2243042,5.734375,-5.078125,10.046875
1664563800531,-0.5913086,-0.56427,0.23309326,-1.8125,-0.25,8.171875
1664563800577,-0.5217285,-0.5125122,0.21087646,1.28125,2.125,9.921875
1664563800607,-0.5205078,-0.3875122,0.12322998,-8.03125,1.734375,4.890625
1664563800652,-0.49829102,-0.472229,0.17596436,-2.109375,14.234375,3.59375
1664563800697,-0.60839844,-0.54815674,0.32757568,3.484375,7.640625,3.171875
1664563800727,-0.80029297,-0.62750244,0.35980225,-11.703125,24.078125,-1.078125
1664563800772,-0.79956055,-0.829895,0.31732178,13.359375,12.03125,-0.890625
1664563800816,-0.7207031,-0.75372314,0.510437,4.21875,3.71875,-2.859375
1664563800847,-0.8679199,-0.7337036,0.42181396,0.96875,10.625,-11.34375
1664563800891,-0.71972656,-0.87628174,0.30755615,5.203125,1.765625,-14.703125
1664563800937,-0.76708984,-1.1314087,0.23358154,5.625,-4.328125,-13.703125
1664563800966,-0.736084,-1.0977173,0.57025146,10.953125,2.125,-14.671875
1664563801012,-0.9135742,-0.6001587,0.27044678,15.09375,19.625,-8.96875
1664563801087,-0.6281738,-0.90704346,0.2946167,1.125,-3.171875,-5.171875
1664563801089,-0.5991211,-0.8491821,0.34490967,-5.09375,4.9375,1.625
1664563801133,-0.5187988,-0.69000244,0.16619873,10.84375,-4.609375,3.203125
1664563801162,-0.5629883,-0.66070557,0.23846436,4.0,0.78125,2.78125
1664563801206,-0.5463867,-0.5667114,0.32684326,6.484375,1.828125,-1.53125
1664563801252,-0.47558594,-0.5496216,0.22918701,4.15625,-0.6875,-2.359375
1664563801282,-0.4794922,-0.6721802,0.3065796,0.84375,-0.46875,-4.421875
1664563801327,-0.5197754,-0.5005493,0.32000732,-2.171875,0.234375,-2.78125
1664563801359,-0.5407715,-0.39996338,0.22869873,0.53125,2.09375,8.578125
1664563801402,-0.4675293,-0.6814575,0.24383545,8.546875,-2.953125,-1.984375
1664563801447,-0.77441406,-0.8562622,0.40374756,3.390625,0.921875,-5.828125
1664563801477,-0.736084,-0.7661743,0.36468506,3.84375,-2.546875,2.125
1664563801521,-0.9094238,-0.8701782,0.42718506,-11.015625,-4.359375,-2.6875
1664563801567,-0.79711914,-0.7774048,0.45428467,-6.0,-4.3125,0.125
1664563801598,-0.7158203,-0.83551025,0.40374756,-6.1875,-7.109375,4.765625
1664563801641,-0.7331543,-0.7920532,0.27508545,-13.546875,-1.53125,-3.15625
1664563801672,-0.71118164,-0.66778564,0.16644287,-12.765625,-7.875,5.578125
1664563801718,-0.53930664,-0.70147705,0.16693115,-2.375,8.78125,4.734375
1664563801763,-0.84765625,-1.0442505,0.3998413,-6.5,-0.171875,7.71875
1664563801792,-0.76123047,-0.76519775,0.1359253,-6.453125,-4.890625,-2.734375
1664563801837,-0.7739258,-0.66973877,0.5922241,-5.90625,-0.9375,-8.859375
1664563801882,-0.6171875,-0.66070557,0.23968506,3.0625,15.765625,-4.15625
1664563801911,-0.6230469,-0.69073486,0.043395996,-0.1875,-4.9375,7.140625
1664563801957,-0.60498047,-0.5940552,0.41131592,0.421875,-2.46875,6.09375
1664563802001,-0.62060547,-0.6074829,0.25164795,-0.171875,0.0625,2.78125
1664563802031,-0.6472168,-0.55303955,0.28460693,-6.09375,-1.09375,1.21875
1664563802077,-0.609375,-0.47857666,0.21234131,-0.640625,0.5,-0.8125
1664563802107,-0.38378906,-0.42755127,0.24798584,6.203125,-2.90625,5.703125
1664563802152,-0.72265625,-0.520813,0.29144287,-4.875,12.625,3.046875
1664563802196,-0.60009766,-0.6616821,0.2814331,12.921875,8.3125,4.140625
1664563802229,-0.6813965,-0.65289307,0.35443115,-1.921875,6.921875,2.46875
1664563802272,-0.7927246,-0.69000244,0.44866943,-4.875,1.1875,0.3125
1664563802316,-0.8041992,-0.6519165,0.42694092,-6.859375,1.96875,-7.765625
1664563802347,-0.9584961,-0.8882446,0.33319092,-18.703125,2.875,-9.703125
1664563802392,-0.83447266,-0.90802,0.354187,9.296875,9.15625,-19.140625
1664563802421,-0.83691406,-0.8255005,0.5470581,12.0625,11.453125,-21.53125
1664563802467,-0.5656738,-0.7620239,0.44281006,16.9375,11.5625,0.9375
1664563802512,-0.7751465,-0.8491821,0.32537842,-10.0625,-2.515625,0.40625
1664563802541,-0.71533203,-0.7334595,0.66741943,3.375,-1.546875,-8.703125
1664563802602,-0.71728516,-0.8386841,0.3163452,-3.015625,-0.875,-1.890625
1664563802632,-0.5786133,-0.7024536,0.28094482,17.859375,-4.125,-0.171875
1664563802663,-0.5461426,-0.6643677,0.33831787,-2.796875,-6.6875,3.75
1664563802706,-0.48608398,-0.65948486,0.3397827,2.5625,-9.171875,10.671875
1664563802752,-0.546875,-0.5755005,0.340271,2.4375,-7.734375,2.46875
1664563802782,-0.5493164,-0.49957275,0.37054443,8.828125,-10.65625,1.625
1664563802827,-0.51049805,-0.51397705,0.30926514,8.21875,-2.859375,3.65625
1664563802857,-0.517334,-0.51934814,0.29730225,4.953125,-1.359375,8.0
1664563802902,-0.55981445,-0.5901489,0.30462646,5.25,-5.34375,5.1875
1664563802947,-0.70703125,-0.69244385,0.3920288,6.109375,2.734375,-5.46875
1664563802977,-0.8491211,-0.7793579,0.41619873,0.734375,-2.109375,-0.296875
1664563803022,-0.7001953,-0.72613525,0.43426514,3.09375,-4.15625,8.03125
1664563803067,-0.85131836,-0.7822876,0.4928589,-5.59375,1.421875,-3.625
1664563803097,-0.83374023,-0.78326416,0.37225342,-10.75,0.203125,0.390625
1664563803142,-0.6274414,-0.7576294,0.38201904,-7.5,-5.984375,3.6875
1664563803173,-0.6960449,-0.7481079,0.16009521,-8.640625,3.171875,1.59375
1664563803217,-0.5793457,-0.59747314,0.17156982,2.859375,1.65625,12.796875
1664563803262,-0.7910156,-0.73760986,0.32269287,2.84375,16.375,7.828125
1664563803292,-0.9645996,-1.0899048,0.33441162,14.5625,8.75,-7.328125
1664563803337,-0.50561523,-0.7202759,0.25701904,16.421875,-26.921875,0.921875
1664563803382,-0.6386719,-0.70806885,0.5651245,-8.1875,1.03125,3.4375
1664563803412,-0.6591797,-0.678772,0.10321045,12.78125,4.015625,4.28125
1664563803457,-0.6398926,-0.6980591,0.10687256,1.375,-1.234375,6.0
1664563803502,-0.5187988,-0.61431885,0.23968506,7.328125,-8.8125,7.046875
1664563803532,-0.55908203,-0.6026001,0.29779053,1.8125,-0.1875,6.265625
1664563803577,-0.53515625,-0.49786377,0.18621826,0.375,0.765625,4.703125
1664563803607,-0.42651367,-0.39801025,0.12347412,-1.640625,-5.109375,9.296875
1664563803651,-0.50805664,-0.55474854,0.23187256,-7.0,-6.5,10.984375
1664563803697,-0.6098633,-0.6428833,0.19134521,-5.296875,12.53125,-4.265625
1664563803727,-0.73828125,-0.66412354,0.35076904,-4.1875,3.21875,-2.609375
1664563803773,-0.7155762,-0.74468994,0.3307495,-4.953125,5.671875,-7.65625
1664563803816,-0.701416,-0.77545166,0.40350342,-2.265625,1.5625,-7.96875
1664563803847,-1.050293,-1.0293579,0.355896,-15.90625,-2.625,-21.921875
1664563803892,-0.9177246,-0.881897,0.41204834,0.34375,17.21875,-28.015625
1664563803922,-0.5031738,-0.9451294,0.3571167,13.0625,2.890625,-11.609375
1664563803968,-0.86035156,-0.8858032,0.30584717,-22.328125,-2.25,-2.015625
1664563804012,-0.7956543,-0.9331665,0.39886475,6.765625,0.984375,-8.890625
1664563804044,-0.54174805,-0.7527466,0.28900146,-1.5625,7.265625,-1.875
1664563804088,-0.50268555,-0.8352661,0.18084717,9.921875,-7.296875,13.1875
1664563804133,-0.5541992,-0.6411743,0.4105835,-4.046875,-9.984375,13.046875
1664563804162,-0.5065918,-0.5979614,0.26361084,0.140625,-6.75,10.6875
1664563804207,-0.5209961,-0.59332275,0.26312256,-2.15625,-3.515625,3.484375
1664563804252,-0.52075195,-0.53204346,0.2645874,-3.3125,-5.4375,-3.703125
1664563804282,-0.48510742,-0.49298096,0.37591553,5.828125,1.625,-0.09375
1664563804327,-0.52246094,-0.5237427,0.29266357,-1.328125,-1.25,-2.578125
1664563804357,-0.5444336,-0.65289307,0.2658081,-0.71875,2.09375,3.0625
1664563804403,-0.4987793,-0.6609497,0.4274292,8.453125,-5.328125,3.484375
1664563804447,-0.8703613,-0.7539673,0.4694214,-11.671875,-0.65625,-8.90625
1664563804479,-0.70874023,-0.6531372,0.40545654,-6.21875,-9.015625,-2.640625
1664563804521,-0.795166,-0.88238525,0.40203857,-15.09375,2.3125,-3.828125
1664563804567,-0.7963867,-0.975647,0.29266357,-18.609375,-4.296875,1.3125
1664563804596,-0.59936523,-0.99468994,0.14593506,-0.484375,4.125,15.734375
1664563804642,-0.8144531,-0.8428345,0.28118896,-12.953125,-3.3125,11.5
1664563804672,-0.79052734,-0.7632446,0.3781128,0.296875,-10.796875,2.75
1664563804717,-0.87939453,-0.90216064,0.4586792,-3.65625,5.859375,2.640625
1664563804762,-0.7351074,-0.72979736,0.16497803,-3.375,-1.5,-7.40625
1664563804792,-0.68115234,-0.6433716,0.40863037,-5.546875,-5.796875,-2.59375
1664563804837,-0.67089844,-0.5679321,0.19769287,1.046875,-2.140625,2.515625
1664563804882,-0.61157227,-0.62945557,0.24017334,-0.625,-1.796875,3.921875
1664563804912,-0.63793945,-0.5977173,0.2675171,2.21875,-1.453125,2.609375
1664563804957,-0.6677246,-0.55670166,0.30194092,-1.703125,5.515625,2.09375
1664563804988,-0.5979004,-0.5574341,0.3156128,5.34375,5.5625,7.296875
1664563805032,-0.5710449,-0.59381104,0.28997803,-4.96875,0.046875,5.453125
1664563805077,-0.43408203,-0.53692627,0.21990967,4.046875,-1.53125,3.109375
1664563805108,-0.5905762,-0.5508423,0.35614014,-5.640625,1.484375,10.0
1664563805154,-0.7072754,-0.6008911,0.32489014,-5.953125,5.4375,6.640625
1664563805197,-0.68481445,-0.64849854,0.4310913,-3.546875,4.609375,3.046875
1664563805228,-0.87597656,-0.6812134,0.56536865,-8.015625,12.53125,-1.6875
1664563805272,-0.74365234,-0.72979736,0.44818115,-2.734375,6.421875,-10.96875
1664563805348,-0.67700195,-0.6790161,0.46453857,-2.9375,4.140625,-14.15625
1664563805351,-0.89697266,-0.63409424,0.41229248,-9.578125,8.25,-22.265625
1664563805393,-0.66967773,-0.8875122,0.40008545,8.0,12.125,-14.8125
1664563805422,-0.7133789,-0.87457275,0.27508545,14.3125,13.734375,-8.734375
1664563805467,-0.5053711,-1.0176392,0.36224365,30.453125,10.640625,0.703125
1664563805513,-0.6838379,-0.68951416,0.50457764,-18.875,-12.921875,-9.96875
1664563805544,-0.9038086,-0.6868286,0.44354248,1.796875,1.5625,-4.453125
1664563805587,-0.5734863,-0.8743286,0.29437256,17.96875,9.140625,-7.8125
1664563805633,-0.60717773,-0.63775635,0.32806396,7.765625,-1.75,-5.484375
1664563805662,-0.5744629,-0.6460571,0.34783936,5.15625,-0.84375,0.078125
1664563805708,-0.50439453,-0.69366455,0.29119873,11.765625,3.90625,-3.46875
1664563805737,-0.5432129,-0.5327759,0.32318115,11.171875,1.078125,-1.390625
1664563805783,-0.44506836,-0.5149536,0.24749756,8.09375,4.4375,-3.15625
1664563805827,-0.4663086,-0.5618286,0.44378662,14.015625,-11.078125,2.734375
1664563805858,-0.56811523,-0.49395752,0.28826904,-2.140625,4.1875,2.109375
1664563805903,-0.5463867,-0.5142212,0.27923584,12.4375,-3.8125,6.109375
1664563805947,-0.7546387,-0.708313,0.45770264,-4.59375,0.234375,-8.546875
1664563805977,-0.7219238,-0.56207275,0.45721436,5.265625,0.34375,-2.09375
1664563806022,-0.6953125,-0.7456665,0.46502686,-6.359375,-0.71875,-6.4375
1664563806097,-0.7541504,-0.6890259,0.47088623,-5.515625,0.71875,-7.3125
1664563806100,-0.8613281,-0.98321533,0.46136475,-9.421875,5.1875,10.5
1664563806143,-0.763916,-0.8335571,0.2645874,-21.21875,2.234375,-1.078125
1664563806172,-0.7468262,-0.8140259,0.30706787,-9.0625,0.140625,16.09375
1664563806217,-0.83691406,-0.8098755,0.31610107,3.125,-2.578125,1.1875
1664563806263,-0.79418945,-0.6585083,0.42669678,14.890625,-2.515625,-6.40625
1664563806292,-0.8239746,-0.7251587,0.36712646,-9.71875,3.015625,-3.984375
1664563806337,-0.66503906,-0.76885986,0.30413818,10.21875,-1.640625,-2.609375
1664563806384,-0.62231445,-0.65826416,0.25482178,8.03125,2.234375,0.875
1664563806412,-0.6948242,-0.642395,0.27972412,-0.03125,-2.15625,4.4375
1664563806458,-0.5925293,-0.6199341,0.22406006,10.703125,-4.5,6.421875
1664563806487,-0.6311035,-0.5862427,0.28851318,4.515625,-1.875,3.40625
1664563806533,-0.6452637,-0.53302,0.2789917,2.953125,1.203125,2.28125
1664563806577,-0.61279297,-0.49346924,0.24993896,2.390625,7.640625,0.109375
1664563806607,-0.54956055,-0.5095825,0.2218628,9.25,4.578125,0.828125
1664563806652,-0.4970703,-0.52178955,0.29437256,3.953125,1.265625,1.625
1664563806698,-0.68652344,-0.53741455,0.35321045,0.96875,9.875,0.53125
1664563806727,-0.5131836,-0.6189575,0.24041748,7.453125,2.078125,1.28125
1664563806773,-0.81152344,-0.62677,0.46795654,-4.375,15.34375,-4.21875
1664563806817,-0.8901367,-0.71343994,0.5387573,4.703125,7.703125,-10.078125
1664563806850,-0.8149414,-0.84942627,0.35784912,-2.046875,4.09375,-15.5
1664563806892,-0.8635254,-0.9326782,0.31243896,1.265625,-0.46875,-16.953125
1664563806967,-0.73583984,-0.8723755,0.31365967,9.359375,5.671875,-6.625
1664563806969,-0.6911621,-0.8855591,0.38861084,16.375,3.171875,-6.5625
1664563807013,-0.85668945,-0.9290161,0.35101318,13.5,3.15625,-9.890625
1664563807042,-0.73999023,-0.73223877,0.37249756,-7.609375,-3.421875,1.09375
1664563807087,-0.6425781,-0.70196533,0.18304443,-0.90625,-2.4375,5.34375
1664563807133,-0.48339844,-0.5852661,0.26190186,8.140625,-7.75,7.140625
1664563807162,-0.5385742,-0.6170044,0.23114014,5.859375,-3.625,10.34375
1664563807207,-0.4855957,-0.59332275,0.27142334,5.546875,-8.953125,7.421875
1664563807237,-0.5554199,-0.47149658,0.32073975,0.0,-8.1875,4.828125
1664563807283,-0.44580078,-0.44317627,0.18988037,-4.125,1.25,3.71875
1664563807327,-0.41064453,-0.48565674,0.35003662,16.78125,-9.171875,14.890625
1664563807358,-0.46289062,-0.74591064,0.2999878,-8.921875,-6.78125,6.5625
1664563807402,-0.7714844,-0.6975708,0.42962646,-3.125,-6.53125,-1.453125
1664563807447,-0.8630371,-0.77960205,0.39715576,-9.421875,-7.09375,-1.265625
1664563807477,-0.8588867,-0.8328247,0.51116943,-9.375,-6.046875,-3.890625
1664563807522,-0.99780273,-1.1008911,0.39715576,-20.1875,-5.0625,4.6875
1664563807552,-0.6994629,-1.0056763,0.25701904,-13.140625,-1.671875,4.234375
1664563807598,-0.65722656,-0.79400635,0.29534912,-17.546875,-10.734375,-1.109375
1664563807642,-0.7084961,-0.5166626,0.29803467,-2.171875,-0.796875,-2.0625
1664563807672,-0.63549805,-0.9378052,0.21380615,-0.59375,-2.4375,13.5
1664563807718,-0.6879883,-0.8171997,0.05682373,-1.5625,0.953125,1.421875
1664563807762,-0.8132324,-0.6777954,0.3493042,3.9375,-23.609375,3.5
1664563807794,-0.7546387,-0.8115845,0.27703857,-9.859375,7.046875,-0.46875
1664563807837,-0.60302734,-0.6980591,0.19720459,6.921875,2.1875,-3.09375
1664563807883,-0.6035156,-0.6675415,0.16497803,7.25,-1.09375,4.625
1664563807912,-0.6269531,-0.63409424,0.26727295,2.3125,-2.265625,1.734375
1664563807958,-0.61938477,-0.6411743,0.22503662,0.671875,-3.953125,1.78125
1664563807987,-0.64160156,-0.58843994,0.25750732,-3.328125,-2.4375,1.4375
1664563808032,-0.6401367,-0.4985962,0.23431396,-7.359375,4.4375,-2.4375
1664563808077,-0.49047852,-0.45269775,0.19085693,4.03125,5.890625,0.59375
1664563808108,-0.49926758,-0.5835571,0.24383545,2.984375,3.09375,2.71875
1664563808152,-0.52490234,-0.48638916,0.22113037,4.390625,7.5,2.0625
1664563808198,-0.6982422,-0.5586548,0.36590576,0.5625,9.625,2.546875
1664563808229,-0.59155273,-0.6826782,0.37786865,-2.0,10.5625,-2.140625
1664563808272,-0.74487305,-0.71954346,0.4364624,-3.109375,9.25,-3.9375
1664563808303,-0.92285156,-0.7737427,0.49945068,-3.734375,7.34375,-16.46875
1664563808347,-0.88012695,-1.1257935,0.2929077,2.4375,11.734375,-15.796875
1664563808393,-0.74560547,-1.2200317,0.32513428,11.671875,6.234375,-17.828125
1664563808422,-0.71655273,-0.74420166,0.49212646,0.359375,-4.9375,0.21875
1664563808468,-0.81762695,-0.8665161,0.21185303,-11.390625,-2.671875,0.109375
1664563808512,-0.77490234,-0.9536743,0.5241089,-7.59375,-10.421875,-2.78125
1664563808542,-0.57055664,-0.67559814,0.2020874,-1.5,-6.421875,3.046875
1664563808588,-0.578125,-0.5796509,0.2584839,-2.546875,-11.09375,2.578125
1664563808633,-0.55493164,-0.5772095,0.27874756,1.703125,-7.40625,4.609375
1664563808663,-0.4802246,-0.56036377,0.25286865,3.8125,-3.390625,3.109375
1664563808707,-0.5751953,-0.53692627,0.29266357,2.0625,-4.421875,-0.96875
1664563808738,-0.5161133,-0.47564697,0.37005615,14.921875,-4.09375,4.875
1664563808783,-0.52685547,-0.5269165,0.2921753,-1.6875,-1.3125,0.296875
1664563808827,-0.6035156,-0.6099243,0.3991089,7.09375,1.640625,3.140625
1664563808857,-0.5488281,-0.63775635,0.30682373,9.859375,0.875,-1.953125
1664563808902,-0.6894531,-0.67852783,0.4225464,1.828125,3.90625,-2.578125
1664563808948,-0.71313477,-0.7046509,0.49993896,2.4375,2.921875,-5.5
1664563808977,-0.77197266,-1.0308228,0.28582764,-10.71875,1.515625,-0.578125
1664563809023,-0.90722656,-0.94976807,0.21258545,-10.71875,9.65625,0.078125
1664563809052,-0.71435547,-0.9534302,0.2687378,-6.296875,-4.0,7.4375
1664563809098,-0.9770508,-0.81329346,0.28289795,-12.03125,1.4375,7.859375
1664563809142,-0.6086426,-0.88604736,0.1552124,16.78125,-6.703125,13.546875
1664563809175,-0.8688965,-0.7498169,0.2501831,0.828125,-15.078125,4.8125
1664563809217,-0.73046875,-0.7498169,0.23773193,7.796875,-7.65625,5.203125
1664563809263,-0.6291504,-0.65216064,0.13543701,5.984375,-0.046875,3.5
1664563809292,-0.66503906,-0.5930786,0.2765503,4.359375,-13.03125,9.390625
1664563809338,-0.6291504,-0.65802,0.14544678,0.6875,-2.875,1.15625
1664563809382,-0.6166992,-0.65704346,0.199646,-0.390625,-5.1875,2.859375
1664563809415,-0.5991211,-0.6465454,0.20526123,-0.15625,-3.875,1.4375
1664563809457,-0.6999512,-0.62872314,0.23138428,-7.09375,-0.71875,-1.984375
1664563809487,-0.5979004,-0.569397,0.14788818,-10.96875,4.59375,-4.140625
1664563809533,-0.49145508,-0.522522,0.18304443,-5.796875,1.59375,1.1875
1664563809578,-0.54711914,-0.5401001,0.22747803,-5.703125,6.90625,6.484375
1664563809607,-0.67944336,-0.5930786,0.22991943,-5.859375,9.953125,1.8125
1664563809653,-0.4814453,-0.6428833,0.2753296,11.421875,7.34375,6.390625
1664563809698,-0.6713867,-0.6741333,0.38519287,-0.96875,5.109375,1.4375
1664563809728,-0.8198242,-0.7136841,0.4413452,-3.109375,4.90625,-2.0625
1664563809773,-0.73217773,-0.82281494,0.42889404,-4.671875,10.6875,-6.453125
1664563809802,-0.7832031,-0.8748169,0.34368896,-2.4375,-3.21875,-10.0625
1664563809848,-0.8911133,-0.94488525,0.35516357,-3.609375,10.9375,-18.65625
1664563809892,-0.845459,-0.9246216,0.4508667,2.921875,19.109375,-15.75
1664563809922,-0.7067871,-0.8765259,0.21722412,7.515625,15.75,-7.96875
1664563809967,-0.7011719,-0.9060669,0.36468506,6.859375,1.234375,0.328125
1664563810012,-0.6623535,-0.8731079,0.33636475,-2.078125,0.40625,2.609375
1664563810042,-0.5969238,-0.7229614,0.20550537,5.859375,7.03125,0.078125
1664563810087,-0.55981445,-0.6460571,0.2592163,13.140625,-8.171875,6.015625
1664563810133,-0.5656738,-0.6355591,0.37200928,9.953125,-6.296875,7.359375
1664563810162,-0.5126953,-0.6460571,0.26287842,1.34375,-10.046875,5.671875
1664563810208,-0.54956055,-0.5093384,0.25823975,-5.734375,-7.890625,0.46875
1664563810238,-0.53271484,-0.45440674,0.3024292,0.1875,-5.3125,3.8125
1664563810282,-0.35839844,-0.5823364,0.1605835,4.03125,4.75,4.109375
1664563810328,-0.5019531,-0.548645,0.44647217,7.703125,-7.40625,3.453125
1664563810357,-0.5637207,-0.69781494,0.29852295,-2.046875,-0.71875,-2.015625
1664563810402,-0.6862793,-0.70196533,0.35076904,-2.90625,-2.671875,-1.234375
1664563810448,-0.7207031,-0.80670166,0.44329834,3.4375,-2.1875,-0.5
1664563810478,-0.8149414,-0.8286743,0.5192261,-2.640625,2.796875,-4.5625
1664563810523,-0.93359375,-0.93170166,0.3788452,-6.234375,6.296875,-1.09375
1664563810554,-0.65112305,-0.9717407,0.2929077,1.890625,-0.484375,3.484375
1664563810597,-0.5288086,-0.7581177,0.21063232,3.625,-6.625,4.828125
1664563810643,-0.72387695,-0.6585083,0.39886475,-2.0,7.71875,11.796875
1664563810673,-0.8364258,-1.1316528,0.17279053,-12.046875,-0.015625,9.78125
1664563810718,-0.6984863,-0.8357544,0.10418701,8.25,-6.6875,4.0625
1664563810762,-0.77734375,-0.81256104,0.45770264,14.96875,-18.78125,7.640625
1664563810792,-0.6218262,-0.83551025,0.13275146,16.203125,12.109375,5.40625
1664563810838,-0.5288086,-0.69195557,0.066345215,22.46875,-16.84375,16.59375
1664563810868,-0.5505371,-0.67071533,0.18475342,11.09375,-8.578125,2.375
1664563810913,-0.5239258,-0.6148071,0.21551514,10.234375,-1.296875,5.34375
1664563810958,-0.56591797,-0.6104126,0.08685303,-0.015625,-4.640625,0.859375
1664563810988,-0.5234375,-0.538147,0.14715576,-7.125,1.0,-6.9375
1664563811033,-0.5695801,-0.548645,0.23382568,-8.0625,7.578125,-3.921875
1664563811078,-0.49829102,-0.5906372,0.17547607,-10.671875,8.828125,0.140625
1664563811107,-0.5695801,-0.6397095,0.2267456,-8.09375,5.484375,-3.4375
1664563811152,-0.49682617,-0.69659424,0.19671631,-2.140625,5.859375,0.53125
1664563811198,-0.63549805,-0.6992798,0.25604248,-8.03125,5.921875,-1.03125
1664563811228,-0.7392578,-0.7007446,0.3805542,-7.453125,7.21875,-6.609375
1664563811273,-0.8288574,-0.86724854,0.35565186,-5.671875,7.90625,-15.296875
1664563811303,-0.7763672,-1.0078735,0.19940186,-0.625,5.4375,-18.546875
1664563811348,-0.8000488,-1.2210083,0.28875732,8.03125,10.234375,-19.71875
1664563811393,-0.6435547,-1.138977,0.51483154,26.890625,13.4375,5.59375
1664563811423,-1.0100098,-0.9104614,0.38006592,-23.875,-4.296875,-15.640625
1664563811468,-0.85961914,-0.9014282,0.34857178,0.625,0.921875,-0.046875
1664563811513,-0.4555664,-0.7703247,0.109069824,14.921875,8.1875,3.125
1664563811542,-0.5559082,-0.65582275,0.22845459,7.125,-10.734375,8.59375
1664563811588,-0.47607422,-0.6148071,0.24359131,3.515625,-2.46875,9.15625
1664563811618,-0.44921875,-0.6399536,0.22723389,5.140625,-3.515625,1.46875
1664563811663,-0.5036621,-0.5906372,0.22064209,1.59375,-3.03125,0.109375
1664563811708,-0.5942383,-0.6021118,0.29852295,-6.484375,-7.34375,-3.609375
1664563811738,-0.46191406,-0.49639893,0.2518921,2.5625,-2.078125,-1.703125
1664563811785,-0.45288086,-0.5015259,0.27020264,-1.171875,-5.671875,-2.640625
1664563811828,-0.47875977,-0.62042236,0.2074585,-11.0625,2.625,-1.1875
1664563811857,-0.5527344,-0.65875244,0.3546753,14.40625,-6.734375,-1.671875
1664563811903,-0.7307129,-0.74591064,0.354187,-4.390625,2.875,-6.359375
1664563811948,-0.7167969,-0.79888916,0.45233154,1.9375,-3.15625,-3.640625
1664563811978,-1.0175781,-0.9121704,0.33929443,-11.546875,-0.59375,-1.953125
1664563812023,-0.6948242,-1.2097778,0.19744873,-0.140625,-8.40625,13.796875
1664563812053,-0.51293945,-0.9517212,0.007751465,18.3125,4.234375,22.65625
1664563812098,-1.0080566,-0.92559814,0.2946167,-7.421875,-13.8125,12.546875
1664563812143,-0.87597656,-0.85943604,0.26556396,4.484375,3.296875,-3.96875
1664563812173,-0.5864258,-0.9055786,0.22601318,8.171875,1.546875,-1.484375
1664563812218,-0.595459,-0.70269775,0.12957764,-7.625,-5.578125,-8.875
1664563812263,-0.6335449,-0.6199341,0.21136475,7.4375,-1.390625,-1.171875
1664563812293,-0.5620117,-0.64141846,0.11517334,-4.0,-3.53125,5.734375
1664563812338,-0.6218262,-0.65875244,0.1642456,-4.140625,-5.296875,0.796875
1664563812368,-0.6413574,-0.6399536,0.19744873,-2.1875,-0.375,0.453125
1664563812413,-0.4777832,-0.59088135,0.18841553,-3.21875,2.703125,-1.96875
1664563812458,-0.50439453,-0.4229126,0.20257568,-5.046875,8.25,1.65625
1664563812488,-0.47998047,-0.56134033,0.10321045,0.90625,9.71875,-0.0625
1664563812533,-0.54785156,-0.47662354,0.2579956,-1.0625,3.21875,3.046875
1664563812578,-0.8708496,-0.71221924,0.33441162,6.03125,13.03125,1.640625
1664563812607,-0.6225586,-0.8648071,0.19793701,2.6875,10.125,0.65625
1664563812653,-0.6665039,-0.81256104,0.3612671,1.890625,7.46875,-3.9375
1664563812698,-0.9499512,-0.708313,0.49163818,-2.171875,7.953125,-10.34375
1664563812731,-0.8322754,-0.83477783,0.24139404,2.0625,12.03125,-19.671875
1664563812773,-0.5307617,-0.96661377,0.16204834,20.359375,15.5,-8.453125
1664563812803,-0.7363281,-1.0647583,0.31756592,9.59375,4.5625,-3.046875
1664563812848,-0.8129883,-0.9939575,0.385437,4.890625,2.625,-5.796875
1664563812893,-0.7836914,-0.89678955,0.25726318,-9.640625,2.71875,-11.265625
1664563812923,-0.77441406,-0.99224854,0.21331787,3.421875,0.5,1.328125
1664563812967,-0.48168945,-0.7595825,0.21990967,0.140625,-0.609375,3.890625
1664563813013,-0.52368164,-0.64312744,0.16912842,6.1875,-6.25,5.734375
1664563813042,-0.5720215,-0.65093994,0.25946045,1.5,-0.3125,3.421875
1664563813088,-0.47314453,-0.6782837,0.19647217,6.234375,1.515625,-0.890625
1664563813118,-0.52856445,-0.6878052,0.2411499,-3.640625,1.03125,-3.046875
1664563813162,-0.55859375,-0.60894775,0.28533936,0.96875,-0.171875,-0.734375
1664563813208,-0.48779297,-0.5696411,0.26287842,-2.609375,-1.59375,-4.84375
1664563813238,-0.5319824,-0.5232544,0.30145264,-3.34375,1.0,-4.015625
1664563813283,-0.49169922,-0.55792236,0.23138428,6.109375,2.828125,7.703125
1664563813328,-0.49389648,-0.770813,0.23577881,2.1875,-2.59375,-1.921875
1664563813358,-0.6772461,-0.71466064,0.35150146,-4.109375,1.46875,-3.546875
1664563813403,-0.701416,-0.722229,0.39666748,-4.84375,4.015625,-6.75
1664563813435,-0.828125,-0.8245239,0.5848999,-13.90625,4.796875,-6.78125
1664563813477,-0.9277344,-1.2056274,0.3678589,-20.90625,5.234375,5.078125
1664563813523,-0.61694336,-1.0652466,0.08050537,-8.484375,-11.984375,9.203125
1664563813553,-0.626709,-0.5667114,0.45233154,-12.515625,-18.078125,4.25
1664563813597,-0.8076172,-0.45758057,0.42181396,-6.125,8.703125,-0.3125
1664563813644,-0.8171387,-1.1519165,0.10345459,-10.546875,8.421875,6.53125
1664563813674,-0.63671875,-0.77301025,0.11590576,19.296875,-10.125,0.171875
1664563813718,-0.8383789,-0.70684814,0.5360718,4.765625,-9.46875,6.140625
1664563813793,-0.68188477,-0.74591064,0.15496826,9.15625,-1.0625,3.21875
1664563813796,-0.56518555,-0.7271118,0.13763428,11.359375,-1.171875,6.59375
1664563813838,-0.5793457,-0.6411743,0.23504639,15.265625,-8.953125,5.453125
1664563813868,-0.5842285,-0.66851807,0.2514038,4.234375,-4.09375,3.953125
1664563813914,-0.59033203,-0.6038208,0.20794678,3.15625,-6.34375,1.921875
1664563813958,-0.5422363,-0.5256958,0.1005249,-6.328125,-1.078125,-2.265625
1664563813988,-0.5925293,-0.48101807,0.30291748,-9.28125,0.765625,-1.640625
1664563814033,-0.39379883,-0.53912354,0.070251465,8.84375,3.40625,1.171875
1664563814078,-0.60791016,-0.5396118,0.25897217,-10.109375,8.5,2.140625
1664563814108,-0.7578125,-0.71710205,0.2958374,3.140625,17.46875,-6.078125
1664563814153,-0.72509766,-0.7190552,0.32904053,-7.5625,8.84375,-10.59375
1664563814183,-0.73046875,-0.7280884,0.3991089,-5.859375,-2.796875,-5.890625
1664563814228,-0.88500977,-0.78302,0.3546753,-17.828125,-1.25,-12.421875
1664563814273,-0.9885254,-0.87335205,0.28948975,-4.390625,3.640625,-18.234375
1664563814305,-0.6291504,-0.960022,0.30047607,21.359375,1.484375,-8.828125
1664563814348,-0.67529297,-1.0742798,0.35784912,-2.09375,2.5,-0.625
1664563814408,-0.94311523,-0.8147583,0.34222412,10.453125,3.546875,-2.921875
1664563814422,-0.6364746,-0.81329346,0.26019287,3.9375,5.640625,-1.796875
1664563814468,-0.6525879,-0.85601807,0.23358154,0.796875,3.953125,1.625
1664563814513,-0.560791,-0.6987915,0.23504639,13.8125,-3.890625,7.296875
1664563814543,-0.5666504,-0.65216064,0.21185303,6.875,6.390625,6.265625
1664563814588,-0.47705078,-0.60943604,0.20794678,14.109375,-0.25,8.09375
1664563814618,-0.44433594,-0.5964966,0.25579834,8.015625,-0.25,2.296875
1664563814663,-0.5317383,-0.66119385,0.32000732,-1.75,-4.71875,-5.359375
1664563814708,-0.52856445,-0.49395752,0.24945068,-12.265625,-2.6875,-4.046875
1664563814740,-0.40722656,-0.44586182,0.22918701,-0.3125,1.5,4.34375
1664563814782,-0.47583008,-0.7588501,0.2658081,4.84375,-5.140625,6.890625
1664563814828,-0.6381836,-0.68341064,0.35101318,-3.703125,-3.6875,1.6875
1664563814858,-0.76708984,-0.7349243,0.42303467,-9.59375,0.609375,-4.34375
1664563814903,-0.79833984,-0.7371216,0.45037842,-15.21875,-3.46875,-3.1875
1664563814932,-0.9482422,-1.102356,0.3847046,-25.328125,4.890625,4.5625
1664563814977,-0.6477051,-1.0991821,0.17254639,-18.96875,-10.71875,3.03125
1664563815023,-0.8540039,-0.7817993,0.35247803,-36.5,-15.875,1.15625
1664563815053,-0.6948242,-0.8909302,0.19134521,-3.328125,-12.171875,9.703125
1664563815098,-0.65722656,-0.7695923,0.2645874,-1.4375,-10.671875,1.5625
1664563815143,-0.9313965,-0.69854736,0.35784912,-4.09375,-3.640625,-3.796875
1664563815173,-0.6713867,-0.7966919,0.26190186,3.765625,-5.1875,0.859375
1664563815218,-0.61938477,-0.66290283,0.26239014,3.390625,-1.21875,1.28125
1664563815265,-0.6269531,-0.5808716,0.25360107,4.90625,-1.875,4.84375
1664563815293,-0.59643555,-0.6043091,0.18060303,6.78125,-4.265625,9.671875
1664563815340,-0.57666016,-0.614563,0.20355225,7.71875,-3.09375,3.984375
1664563815368,-0.5136719,-0.5640259,0.20257568,-0.5,-5.5,-0.921875
1664563815415,-0.4597168,-0.42095947,0.26434326,-2.984375,-8.265625,3.6875
1664563815457,-0.6113281,-0.40753174,0.1305542,-8.859375,0.40625,1.09375
1664563815487,-0.6105957,-0.5293579,0.23699951,-5.609375,7.328125,0.78125
1664563815533,-0.7692871,-0.6399536,0.2670288,-10.8125,16.921875,-6.984375
1664563815578,-0.71875,-0.69073486,0.3517456,8.65625,16.6875,-4.0625
1664563815610,-0.89868164,-0.5899048,0.4491577,-10.078125,15.8125,-17.84375
1664563815653,-0.8120117,-0.86383057,0.42694092,-6.046875,0.53125,-11.453125
1664563815683,-0.8342285,-1.135315,0.3961792,20.953125,22.296875,-9.90625
1664563815728,-0.8198242,-0.913147,0.4755249,8.140625,13.375,-19.28125
1664563815773,-0.5991211,-0.81622314,0.43719482,1.140625,-8.609375,-2.71875
1664563815803,-0.95410156,-0.9492798,0.39837646,-4.296875,2.984375,-2.140625
1664563815848,-0.6257324,-0.8479614,0.45159912,13.890625,-8.625,-4.46875
1664563815893,-0.61816406,-0.76446533,0.24481201,6.21875,-2.4375,-0.03125
1664563815932,-0.53881836,-0.7295532,0.2177124,5.65625,-16.390625,8.6875
1664563815968,-0.609375,-0.5479126,0.3156128,11.203125,2.890625,5.6875
1664563815997,-0.49902344,-0.631897,0.24407959,13.671875,-1.09375,7.640625
1664563816045,-0.3779297,-0.6248169,0.24920654,6.375,-7.734375,4.671875
1664563816088,-0.55810547,-0.56500244,0.28485107,-9.765625,2.75,-1.84375
1664563816118,-0.44628906,-0.44586182,0.28094482,24.375,-8.296875,10.015625
1664563816163,-0.45092773,-0.61676025,0.27093506,-0.625,0.484375,-4.3125
1664563816210,-0.4951172,-0.57354736,0.21697998,11.1875,-5.578125,12.6875
1664563816237,-0.5378418,-0.6309204,0.293396,4.03125,-9.328125,1.234375
1664563816284,-0.7495117,-0.8164673,0.40667725,6.46875,2.484375,-4.875
1664563816328,-0.61938477,-0.7839966,0.41864014,5.53125,-0.75,2.0
1664563816358,-0.9987793,-1.2693481,0.22723389,-32.15625,1.671875,-0.390625
1664563816403,-0.6833496,-1.0603638,-0.10699463,-2.359375,11.703125,12.75
1664563816432,-0.7067871,-0.66534424,0.10809326,-1.59375,-50.40625,43.546875
1664563816478,-0.85668945,-1.0310669,0.019714355,-18.796875,3.1875,3.5
1664563816523,-0.7207031,-0.9507446,0.13250732,-6.40625,-16.59375,15.03125
1664563816555,-0.9445801,-0.77130127,0.34466553,-13.21875,-9.40625,-2.359375
1664563816598,-0.58984375,-0.87579346,0.07659912,-3.1875,6.90625,1.125
1664563816643,-0.57177734,-0.65411377,0.07318115,7.1875,-16.25,4.046875
1664563816673,-0.5925293,-0.6460571,0.24017334,3.75,-0.46875,-1.1875
1664563816718,-0.5666504,-0.59039307,0.16619873,-0.578125,-5.265625,-0.109375
1664563816747,-0.578125,-0.6084595,0.12322998,-2.453125,-0.8125,-0.265625
1664563816794,-0.5671387,-0.60284424,0.19451904,-1.09375,-0.609375,-3.890625
1664563816838,-0.45507812,-0.52130127,0.16326904,-0.21875,7.953125,-0.96875
1664563816868,-0.5378418,-0.6326294,0.17938232,-0.5625,4.984375,-0.03125
1664563816913,-0.60595703,-0.63775635,0.17034912,-4.171875,7.234375,-0.15625
1664563816960,-0.83740234,-0.7131958,0.2772827,-4.0625,13.296875,-1.84375
1664563816988,-0.55126953,-0.7991333,0.20819092,6.875,5.828125,2.765625
1664563817033,-0.75219727,-0.7971802,0.34002686,2.765625,5.875,-1.0
1664563817077,-0.85253906,-0.80181885,0.37005615,3.40625,2.59375,-9.359375
1664563817108,-0.7458496,-0.8442993,0.26654053,5.046875,2.375,-8.015625
1664563817153,-0.64746094,-0.83135986,0.14227295,-1.46875,6.171875,-11.484375
1664563817183,-0.86865234,-1.0408325,0.29388428,9.921875,-0.4375,-5.53125
1664563817228,-0.6359863,-1.0615845,0.24432373,14.890625,11.625,-10.671875
1664563817273,-0.779541,-0.87579346,0.21453857,-5.71875,4.09375,-4.8125
1664563817303,-0.7492676,-0.9224243,0.23577881,-6.09375,-8.296875,-3.125
1664563817349,-0.5161133,-0.81573486,0.1630249,4.1875,5.015625,1.171875
1664563817393,-0.55493164,-0.6890259,0.1359253,1.234375,2.109375,-0.90625
1664563817423,-0.6044922,-0.6577759,0.22943115,1.546875,-2.28125,1.453125
1664563817468,-0.46972656,-0.61968994,0.15960693,3.46875,7.546875,-3.765625
1664563817498,-0.44091797,-0.53448486,0.2164917,6.84375,4.609375,-2.90625
1664563817543,-0.4663086,-0.66656494,0.23651123,-1.09375,0.28125,-3.109375
1664563817588,-0.5727539,-0.4216919,0.27435303,-8.140625,4.875,-1.015625
1664563817618,-0.38842773,-0.458313,0.15765381,13.875,7.875,5.90625
1664563817663,-0.60058594,-0.8543091,0.34954834,11.6875,2.890625,-3.234375
1664563817708,-0.7282715,-0.7307739,0.3204956,1.578125,8.078125,-2.09375
1664563817737,-0.6875,-0.78863525,0.32366943,-2.421875,1.71875,-4.6875
1664563817783,-0.81152344,-0.7637329,0.494812,-3.078125,-3.203125,-4.59375
1664563817828,-0.8388672,-0.92144775,0.45721436,-16.3125,6.234375,2.140625
1664563817858,-0.7050781,-1.0598755,0.19769287,-15.78125,-6.90625,7.515625
1664563817903,-0.609375,-0.85113525,0.12005615,-10.0625,-5.015625,4.359375
1664563817933,-0.67163086,-0.64923096,0.37225342,-4.421875,-3.203125,6.34375
1664563817978,-0.9633789,-0.9234009,0.1696167,-13.671875,0.421875,6.5625
1664563818023,-0.7114258,-0.8633423,0.21307373,10.859375,-4.515625,1.3125
1664563818056,-0.6977539,-0.77667236,0.34417725,7.40625,-1.15625,-3.375
1664563818098,-0.66552734,-0.7085571,0.1942749,10.5625,4.3125,5.59375
1664563818143,-0.6047363,-0.67315674,0.10028076,5.375,-1.265625,8.765625
1664563818173,-0.5812988,-0.65509033,0.23284912,7.859375,-3.046875,5.15625
1664563818218,-0.4892578,-0.61798096,0.13348389,3.671875,-1.21875,2.671875
1664563818247,-0.48242188,-0.50860596,0.121032715,-7.984375,-1.5,2.21875
1664563818293,-0.4819336,-0.47613525,0.16937256,6.953125,-0.171875,5.28125
1664563818338,-0.4128418,-0.473938,0.16546631,2.3125,-1.453125,8.8125
1664563818370,-0.61279297,-0.60113525,0.22283936,-10.234375,2.5,4.65625
1664563818413,-0.66552734,-0.6838989,0.22918701,-4.8125,4.78125,5.421875
1664563818458,-0.9345703,-0.6958618,0.45672607,-9.953125,5.046875,-3.171875
1664563818488,-0.8120117,-0.76812744,0.40057373,3.828125,7.8125,-6.359375
1664563818533,-0.9238281,-1.1182251,0.27020264,-16.109375,0.890625,-16.375
1664563818577,-0.80810547,-0.9024048,0.21038818,16.140625,11.328125,-30.8125
1664563818608,-0.7446289,-1.0090942,0.512146,27.484375,5.09375,-13.390625
1664563818653,-0.75219727,-1.0115356,0.26898193,-11.03125,2.046875,-2.8125
1664563818682,-0.81152344,-1.1248169,0.44769287,-4.9375,-5.5,-14.796875
1664563818728,-0.6608887,-0.92144775,0.1564331,12.375,12.78125,2.34375
1664563818772,-0.36645508,-0.65826416,0.12347412,21.96875,-13.453125,9.53125
1664563818803,-0.49975586,-0.6655884,0.22845459,-0.578125,-7.25,4.1875
1664563818848,-0.49853516,-0.5576782,0.27825928,18.46875,-3.953125,3.5625
1664563818893,-0.45092773,-0.5396118,0.1227417,1.0625,6.890625,-3.296875
1664563818923,-0.44482422,-0.5166626,0.262146,10.75,0.265625,-3.75
1664563818967,-0.41430664,-0.48883057,0.20819092,8.78125,10.46875,1.5625
1664563818997,-0.51904297,-0.5911255,0.17230225,11.59375,7.953125,5.484375
1664563819043,-0.44213867,-0.6433716,0.23626709,20.703125,8.671875,10.0
1664563819087,-0.6977539,-0.7581177,0.37835693,-2.578125,5.125,-6.5
1664563819118,-0.8417969,-0.78741455,0.3480835,-4.140625,5.5,-7.484375
1664563819163,-0.6833496,-0.9072876,0.43865967,-5.828125,6.234375,-1.234375
1664563819208,-0.7714844,-1.1209106,0.2567749,1.59375,4.71875,3.265625
1664563819238,-0.61987305,-0.9607544,-0.020080566,-5.109375,-11.78125,12.265625
1664563819283,-1.0405273,-0.928772,0.2584839,-29.46875,9.875,-8.6875
1664563819315,-0.6972656,-0.722229,0.24822998,8.015625,-5.96875,-2.40625
1664563819358,-0.84155273,-0.8584595,0.30340576,-6.046875,0.0,-2.734375
1664563819405,-0.6257324,-0.83477783,0.19207764,10.4375,-10.640625,3.453125
1664563819433,-0.545166,-0.79400635,0.11199951,13.125,-5.90625,12.625
1664563819478,-0.5888672,-0.659729,0.2609253,8.421875,-9.96875,12.015625
1664563819523,-0.5109863,-0.5967407,0.12054443,3.625,-5.109375,5.875
1664563819553,-0.5979004,-0.5327759,0.2111206,-8.953125,-13.328125,1.953125
1664563819598,-0.55981445,-0.503479,0.14666748,-24.21875,5.21875,-3.265625
1664563819673,-0.40551758,-0.43218994,0.16571045,-13.6875,-5.46875,3.78125
1664563819677,-0.56152344,-0.5293579,0.27386475,-18.484375,2.609375,5.546875
1664563819717,-0.63793945,-0.55548096,0.17474365,-5.859375,6.25,1.5
1664563819748,-0.69433594,-0.647522,0.26385498,-0.859375,6.6875,2.765625
1664563819793,-0.8442383,-0.70684814,0.39593506,-5.03125,8.421875,-2.265625
1664563819838,-0.7963867,-0.8154907,0.33636475,13.953125,0.21875,-9.96875
1664563819868,-0.96240234,-1.272522,0.29364014,12.578125,-3.796875,-23.796875
1664563819914,-0.6933594,-0.9595337,0.34246826,31.140625,18.296875,-26.0625
1664563819958,-0.6516113,-1.0933228,0.36468506,27.203125,16.1875,-8.34375
1664563819987,-1.0236816,-0.91241455,0.2501831,-23.34375,-6.34375,-3.265625
1664563820033,-0.5983887,-1.0674438,0.42156982,14.53125,-9.34375,0.59375
1664563820063,-0.64746094,-0.7595825,0.15374756,-2.265625,16.828125,3.109375
1664563820108,-0.4885254,-0.7871704,0.062194824,15.171875,-6.953125,13.5625
1664563820153,-0.50927734,-0.6309204,0.36517334,-4.546875,-11.765625,7.328125
1664563820183,-0.46948242,-0.63897705,0.20379639,5.046875,0.390625,5.9375
1664563820227,-0.47314453,-0.66070557,0.16571045,0.125,-0.078125,0.375
1664563820273,-0.50097656,-0.5718384,0.21478271,-2.84375,-6.125,1.71875
1664563820303,-0.55371094,-0.5689087,0.2616577,1.9375,-1.265625,-2.484375
1664563820348,-0.4921875,-0.5835571,0.2538452,4.8125,1.421875,-4.953125
1664563820393,-0.59375,-0.47540283,0.31658936,-5.109375,4.078125,-8.9375
1664563820422,-0.5449219,-0.57891846,0.23968506,-3.171875,7.890625,1.71875
1664563820468,-0.5671387,-0.71343994,0.35443115,4.828125,-0.875,-1.328125
1664563820497,-0.80029297,-0.83013916,0.42547607,-7.359375,1.9375,-12.4375
1664563820545,-0.71972656,-0.75616455,0.39544678,3.84375,-0.640625,4.46875
1664563820588,-0.74560547,-0.8460083,0.41864014,-9.375,-6.15625,-2.1875
1664563820618,-0.83618164,-0.9067993,0.37176514,-17.265625,-8.453125,5.921875
1664563820663,-0.7414551,-0.93218994,0.18182373,-21.546875,-8.609375,13.6875
1664563820708,-0.84594727,-0.9463501,0.19158936,-15.84375,-6.53125,8.09375
1664563820738,-0.8925781,-0.61431885,0.25897217,-6.703125,2.71875,-9.296875
1664563820783,-0.7788086,-1.0669556,0.46990967,-2.0625,2.046875,9.0
1664563820813,-0.60668945,-0.84454346,0.06317139,2.015625,6.984375,-4.65625
1664563820858,-0.73095703,-0.5679321,0.26116943,1.125,-16.28125,2.375
1664563820903,-0.55200195,-0.75372314,0.18719482,7.4375,2.859375,6.375
1664563820932,-0.5463867,-0.6499634,0.13641357,7.984375,0.9375,3.078125
1664563820978,-0.6027832,-0.65460205,0.16595459,5.59375,-2.90625,1.25
1664563821023,-0.59106445,-0.611145,0.26190186,1.765625,-5.125,1.96875
1664563821054,-0.657959,-0.60162354,0.27972412,-6.71875,4.828125,-0.484375
1664563821098,-0.5822754,-0.4446411,0.18475342,-11.078125,9.546875,-2.8125
1664563821143,-0.3881836,-0.53082275,0.20892334,7.765625,-5.90625,5.09375
1664563821173,-0.6345215,-0.45635986,0.24383545,-3.84375,9.578125,7.21875
1664563821218,-0.68359375,-0.6682739,0.23968506,-0.890625,11.75,-2.203125
1664563821248,-0.68725586,-0.63409424,0.32904053,7.5,6.203125,3.578125
1664563821293,-0.84399414,-0.7161255,0.39935303,2.28125,10.953125,-1.921875
1664563821338,-0.8642578,-0.7061157,0.48260498,4.59375,7.859375,-11.5
1664563821368,-0.9477539,-0.9678345,0.32000732,-8.375,2.609375,-16.953125
1664563821413,-0.79248047,-0.9668579,0.28070068,12.0,2.046875,-17.109375
1664563821458,-0.6657715,-1.0708618,0.36346436,12.109375,2.0625,-12.453125
1664563821488,-0.8762207,-0.8389282,0.32757568,-7.3125,5.5625,-10.4375
1664563821532,-0.6958008,-0.8452759,0.25653076,14.21875,0.703125,2.640625
1664563821563,-0.6164551,-0.8953247,0.32000732,0.828125,1.953125,1.21875
1664563821608,-0.52905273,-0.7744751,0.24163818,8.140625,-3.75,5.84375
1664563821653,-0.5871582,-0.6445923,0.22113037,-2.1875,-4.53125,4.53125
1664563821683,-0.5605469,-0.7202759,0.29193115,7.078125,-7.40625,5.875
1664563821728,-0.5012207,-0.6633911,0.22381592,8.109375,0.21875,2.28125
1664563821773,-0.53686523,-0.56988525,0.22698975,-1.1875,-0.4375,4.796875
1664563821803,-0.38183594,-0.550354,0.24285889,8.109375,-5.390625,2.59375
1664563821851,-0.5270996,-0.57354736,0.29510498,1.90625,2.109375,0.109375
1664563821877,-0.5144043,-0.5054321,0.17425537,1.59375,9.5625,16.375
1664563821923,-0.4182129,-0.5466919,0.17279053,17.28125,-4.203125,9.46875
1664563821968,-0.71972656,-0.78009033,0.34075928,1.359375,2.453125,-2.234375
1664563821998,-0.7583008,-0.80718994,0.44769287,2.140625,-1.015625,-5.546875
1664563822043,-0.7375488,-0.8057251,0.3139038,-1.015625,2.6875,-2.734375
1664563822088,-0.7619629,-1.02594,0.24456787,-6.953125,-5.78125,9.75
1664563822118,-0.68310547,-1.0269165,0.17645264,-13.265625,-11.0,6.78125
1664563822163,-0.6447754,-0.8904419,0.1149292,-12.109375,-12.78125,4.03125
1664563822208,-1.0466309,-0.62506104,0.35443115,-15.125,7.125,-3.3125
1664563822238,-0.7944336,-1.085022,0.22088623,-6.5,2.5625,-6.640625
1664563822285,-0.65527344,-0.7427368,0.14788818,0.5625,0.484375,-3.359375
1664563822313,-0.9104004,-0.80548096,0.3475952,-7.03125,9.671875,-3.03125
1664563822360,-0.59643555,-0.76934814,0.11981201,-2.609375,0.234375,1.859375
1664563822403,-0.5695801,-0.6773071,0.20721436,0.328125,-1.90625,0.6875
1664563822433,-0.49072266,-0.6421509,0.21136475,5.140625,-3.203125,8.71875
1664563822478,-0.49731445,-0.6177368,0.19793701,1.03125,-6.546875,10.71875
1664563822523,-0.55493164,-0.60943604,0.18890381,-3.03125,-9.703125,7.125
1664563822552,-0.5554199,-0.4920044,0.22869873,-14.234375,-6.546875,6.359375
1664563822598,-0.55615234,-0.43804932,0.26898193,-7.75,-6.078125,4.0625
1664563822628,-0.5036621,-0.48443604,0.23822021,-4.421875,-5.046875,8.875
1664563822673,-0.704834,-0.5352173,0.30096436,-10.609375,0.03125,2.859375
1664563822718,-0.77856445,-0.614563,0.30267334,-7.609375,6.984375,-2.03125
1664563822748,-0.8215332,-0.5977173,0.46258545,-4.3125,6.6875,-7.84375
1664563822793,-0.9182129,-0.6453247,0.5385132,-1.1875,13.703125,-16.703125
1664563822838,-1.1079102,-1.0379028,0.29559326,-7.703125,1.421875,-33.78125
1664563822868,-0.73535156,-1.1968384,0.22381592,9.65625,20.96875,-18.015625
1664563822913,-0.69750977,-1.2461548,0.4262085,17.1875,12.71875,-25.46875
1664563822961,-0.8171387,-0.61553955,0.36883545,3.046875,7.0,-13.9375
1664563822987,-0.8227539,-1.0664673,0.25653076,-25.3125,-8.34375,-3.078125
1664563823063,-0.6333008,-0.6187134,0.3583374,15.5625,14.4375,-4.921875
1664563823065,-0.47827148,-0.5964966,0.2411499,4.640625,-3.609375,8.625
1664563823108,-0.47924805,-0.61187744,0.24456787,7.546875,-1.6875,9.921875
1664563823153,-0.4729004,-0.5755005,0.31732178,8.859375,-6.984375,8.90625
1664563823183,-0.51831055,-0.5654907,0.2897339,8.375,-5.84375,5.28125
1664563823230,-0.6254883,-0.61431885,0.41522217,6.0,-10.734375,1.859375
1664563823273,-0.74731445,-0.5256958,0.43792725,-2.796875,-10.78125,0.109375
1664563823303,-0.71118164,-0.67633057,0.30682373,-3.0,-4.28125,2.0625
1664563823349,-0.8339844,-0.6836548,0.60321045,1.03125,-2.984375,-6.515625
1664563823378,-0.90625,-0.63946533,0.46868896,14.171875,16.96875,-11.46875
1664563823423,-0.8154297,-0.5444946,0.57806396,8.0625,16.15625,-16.015625
1664563823468,-0.89331055,-1.0032349,0.3163452,-15.484375,16.3125,2.484375
1664563823500,-0.67529297,-1.2417603,0.09100342,-25.1875,25.921875,8.640625
1664563823543,-0.44018555,-0.552063,-0.066711426,2.734375,8.1875,8.828125
1664563823590,-0.7260742,-0.53497314,0.15057373,-10.890625,-61.46875,19.578125
1664563823618,-0.71899414,-1.2583618,0.024597168,-15.0,40.46875,5.9375
1664563823663,-0.54956055,-0.7966919,-0.13116455,19.625,6.828125,-4.84375
1664563823709,-0.5422363,-0.8616333,0.30706787,-15.546875,-82.375,18.0625
1664563823739,-0.62939453,-0.6296997,0.17059326,-0.4375,3.53125,6.015625
1664563823783,-0.5878906,-0.6133423,0.20941162,-2.84375,-19.5625,10.53125
1664563823812,-0.5773926,-0.8135376,0.121276855,0.734375,-6.375,6.96875
1664563823858,-0.5944824,-0.73150635,0.23773193,0.046875,-20.3125,13.765625
1664563823903,-0.53271484,-0.7251587,0.22259521,3.890625,-7.109375,11.609375
1664563823932,-0.6567383,-0.5928345,0.24822998,-10.328125,-6.859375,-1.0625
1664563823978,-0.6335449,-0.62750244,0.19793701,-13.6875,-5.0625,2.140625
1664563824023,-0.6057129,-0.70977783,0.17181396,-12.828125,-12.3125,3.40625
1664563824054,-0.6496582,-0.6980591,0.25823975,-10.703125,-3.1875,1.40625
1664563824098,-0.6982422,-0.8381958,0.34783936,-7.09375,0.84375,0.046875
1664563824128,-0.7319336,-1.0071411,0.32269287,-13.890625,-10.421875,3.65625
1664563824173,-0.7529297,-0.7896118,0.37176514,-13.265625,-2.828125,-5.34375
1664563824218,-0.7233887,-0.7373657,0.23016357,-2.734375,0.015625,-5.46875
1664563824249,-0.42041016,-0.79522705,0.02532959,1.390625,-8.328125,-2.640625
1664563824293,-0.43530273,-0.91290283,0.14666748,-4.828125,-12.5,-0.265625
1664563824338,-0.71777344,-0.97052,0.3583374,6.078125,4.03125,-3.125
1664563824370,-0.69262695,-0.78204346,0.051940918,-18.609375,3.1875,-9.296875
1664563824414,-0.72924805,-0.6995239,0.30462646,-12.890625,-13.53125,-0.390625
1664563824458,-0.51708984,-0.6399536,0.1515503,-1.890625,9.6875,-0.109375
1664563824488,-0.53466797,-0.70098877,0.23724365,3.734375,2.546875,3.015625
1664563824535,-0.54711914,-0.7061157,0.2020874,-1.046875,2.84375,-0.609375
1664563824563,-0.5246582,-0.7229614,0.24554443,6.796875,3.859375,0.1875
1664563824610,-0.52905273,-0.6289673,0.21038818,6.4375,7.71875,-4.140625
1664563824653,-0.52197266,-0.4805298,0.22283936,5.421875,9.75,-3.546875
1664563824683,-0.3955078,-0.46783447,0.20306396,10.375,11.484375,-8.0
1664563824728,-0.4050293,-0.44903564,0.27801514,16.703125,7.65625,-2.71875
1664563824773,-0.5007324,-0.5845337,0.28289795,2.453125,7.9375,-0.765625
1664563824803,-0.5698242,-0.78326416,0.25897217,6.765625,4.484375,-2.203125
1664563824849,-0.68066406,-0.8557739,0.4845581,5.203125,2.40625,4.375
1664563824878,-0.7663574,-0.7493286,0.5153198,-1.8125,0.71875,-9.3125
1664563824923,-1.010498,-1.0720825,0.37615967,-12.71875,11.1875,-8.171875
1664563824968,-0.5041504,-1.2908325,0.31488037,8.125,3.6875,8.6875
1664563824998,-0.9824219,-0.9451294,0.23919678,-42.8125,-12.640625,-7.9375
1664563825043,-0.8039551,-0.7720337,0.081726074,12.90625,20.953125,8.671875
1664563825088,-0.42797852,-0.72857666,0.47747803,12.625,-25.625,-0.921875
1664563825118,-1.0068359,-0.9458618,0.2592163,3.203125,16.890625,3.875
1664563825163,-0.65185547,-0.6836548,0.058776855,2.828125,-13.484375,1.828125
1664563825193,-0.62890625,-0.6199341,0.309021,20.515625,4.265625,-3.71875
1664563825238,-0.625,-0.6814575,0.17327881,3.984375,-1.671875,0.5625
1664563825284,-0.5266113,-0.60772705,0.1293335,5.875,-0.0625,4.234375
1664563825315,-0.6333008,-0.62945557,0.19647217,-0.1875,-1.96875,1.203125
1664563825358,-0.53100586,-0.6704712,0.1930542,-6.203125,2.109375,-2.484375
1664563825403,-0.56274414,-0.52960205,0.26190186,-5.25,1.984375,-2.578125
1664563825433,-0.5878906,-0.5552368,0.19818115,-0.328125,1.171875,7.015625
1664563825480,-0.52075195,-0.5108032,0.23065186,-15.90625,6.046875,0.078125
1664563825554,-0.58496094,-0.5899048,0.27801514,8.140625,4.015625,11.875
1664563825558,-0.54663086,-0.70025635,0.18817139,-2.28125,-4.859375,13.84375
1664563825598,-0.7290039,-0.69488525,0.52752686,0.203125,6.78125,4.03125
1664563825628,-0.7380371,-0.75128174,0.4093628,6.46875,6.046875,1.125
1664563825673,-0.7319336,-0.7822876,0.51239014,-2.59375,1.875,0.25
1664563825718,-0.9243164,-0.989563,0.3793335,-7.5,12.359375,-18.25
1664563825748,-0.8117676,-1.2241821,0.371521,8.96875,17.734375,-26.578125
1664563825793,-0.7050781,-0.9036255,0.4064331,12.609375,10.65625,-13.40625
1664563825840,-0.8405762,-0.83795166,0.09100342,11.15625,13.8125,5.34375
1664563825868,-0.48168945,-0.8867798,0.2538452,9.875,-18.671875,8.640625
1664563825913,-0.5373535,-0.80963135,0.2892456,3.421875,1.40625,9.015625
1664563825943,-0.65356445,-0.7756958,0.12762451,9.53125,3.640625,3.375
1664563825988,-0.55908203,-0.6643677,0.22283936,6.859375,-13.796875,3.078125
1664563826033,-0.5432129,-0.73101807,0.2062378,-0.859375,1.484375,-1.046875
1664563826063,-0.47875977,-0.6824341,0.2850952,8.84375,-9.46875,1.15625
1664563826108,-0.46069336,-0.6038208,0.2074585,1.0625,-2.546875,-1.875
1664563826154,-0.5078125,-0.5359497,0.2970581,-7.828125,-7.40625,-3.234375
1664563826183,-0.52319336,-0.55426025,0.29925537,1.046875,1.421875,-3.734375
1664563826228,-0.529541,-0.5232544,0.23358154,8.5,1.5625,5.09375
1664563826273,-0.42333984,-0.6694946,0.1696167,18.671875,4.59375,12.203125
1664563826304,-0.54663086,-0.75567627,0.41400146,23.875,-1.28125,-5.5625
1664563826350,-0.76049805,-0.8262329,0.3961792,0.1875,5.0625,-3.71875
1664563826378,-0.5595703,-0.8167114,0.37078857,1.328125,2.609375,-1.359375
1664563826423,-0.97875977,-1.1968384,0.34320068,-12.3125,14.46875,-2.046875
1664563826468,-0.5654297,-1.315979,0.06365967,-2.65625,15.65625,12.71875
1664563826498,-0.5300293,-0.83721924,-0.04425049,-4.9375,-19.734375,15.9375
1664563826543,-0.98999023,-0.7473755,0.24481201,-8.46875,16.125,8.734375
1664563826588,-0.6022949,-1.0737915,-0.058654785,12.4375,12.296875,1.640625
1664563826620,-0.7438965,-0.8442993,0.5360718,-19.765625,-27.234375,6.875
1664563826663,-0.82543945,-0.67926025,0.22845459,-8.859375,-0.625,-2.546875
1664563826693,-0.55444336,-0.72540283,0.03704834,1.171875,4.125,0.75
1664563826739,-0.51123047,-0.6951294,0.21600342,12.671875,-7.5,5.625
1664563826784,-0.51000977,-0.645813,0.21258545,6.1875,-3.578125,1.125
1664563826812,-0.5427246,-0.6304321,0.13079834,-15.21875,-0.203125,-5.5
1664563826858,-0.52856445,-0.536438,0.16400146,-27.234375,-0.53125,-1.453125
1664563826903,-0.4038086,-0.48590088,0.20135498,-17.84375,-2.859375,-4.75
1664563826932,-0.5197754,-0.54156494,0.26483154,-14.234375,5.078125,-1.984375
1664563826978,-0.55493164,-0.611145,0.16326904,-3.234375,4.875,-7.0625
1664563827023,-0.59228516,-0.6218872,0.41522217,5.578125,9.125,-4.5625
1664563827055,-0.6921387,-0.6494751,0.38104248,0.59375,6.140625,-6.28125
1664563827098,-0.9448242,-0.9639282,0.29510498,-8.5625,5.640625,-11.421875
1664563827130,-0.86816406,-1.222229,0.29022217,-3.0625,2.703125,-16.34375
1664563827174,-0.6726074,-1.0391235,0.3493042,19.171875,14.265625,-21.5625
1664563827219,-0.8251953,-0.9487915,0.35150146,-4.484375,6.09375,-10.21875
1664563827248,-0.93115234,-1.1433716,0.38446045,1.96875,4.921875,-3.75
1664563827296,-0.5900879,-0.8052368,0.35565186,0.5625,8.296875,-12.328125
1664563827339,-0.5871582,-0.6633911,0.18133545,0.96875,5.140625,1.625
1664563827368,-0.45825195,-0.6194458,0.19281006,10.96875,-2.96875,4.203125
1664563827413,-0.54125977,-0.6062622,0.33221436,8.265625,3.34375,4.03125
1664563827443,-0.4428711,-0.6265259,0.19378662,11.828125,8.046875,-0.625
1664563827488,-0.4951172,-0.60650635,0.2584839,10.828125,-1.34375,-3.3125
1664563827533,-0.55371094,-0.5964966,0.3546753,-2.75,-1.0625,-2.28125
1664563827563,-0.47192383,-0.4788208,0.277771,0.96875,-2.453125,-3.65625
1664563827609,-0.49975586,-0.60772705,0.24578857,5.765625,0.734375,1.921875
1664563827654,-0.46899414,-0.6524048,0.3991089,11.3125,-7.296875,0.71875
1664563827683,-0.62475586,-0.7210083,0.3085327,-9.015625,-0.046875,-1.828125
1664563827728,-0.75341797,-0.73931885,0.38763428,-1.859375,-5.0,-2.8125
1664563827758,-0.73095703,-0.71954346,0.42059326,-4.921875,-3.40625,-1.375
1664563827802,-0.85253906,-0.8701782,0.4401245,-17.8125,-2.8125,0.3125
1664563827848,-0.80810547,-1.053772,0.35076904,-13.640625,4.1875,7.0625
1664563827878,-0.60498047,-0.8755493,0.13665771,-10.46875,-4.203125,2.078125
1664563827923,-0.96362305,-0.5288696,0.3493042,-2.96875,12.671875,-4.046875
1664563827969,-0.7141113,-1.2088013,0.2987671,10.546875,-2.03125,13.421875
1664563827998,-0.5654297,-0.7918091,0.2423706,1.546875,-9.359375,-1.359375
1664563828043,-0.82958984,-0.7149048,0.40985107,3.21875,-8.25,-1.359375
1664563828089,-0.59472656,-0.7788696,0.23236084,7.578125,-8.171875,7.296875
1664563828118,-0.578125,-0.694397,0.21722412,7.453125,-6.796875,6.984375
1664563828164,-0.60009766,-0.65997314,0.23577881,8.046875,-5.375,5.484375
1664563828193,-0.53515625,-0.6370239,0.21795654,-1.046875,-7.5625,4.359375
1664563828240,-0.5773926,-0.60650635,0.19525146,-8.15625,2.03125,-4.234375
1664563828283,-0.5612793,-0.51031494,0.25823975,-5.046875,2.921875,-7.421875
1664563828313,-0.49121094,-0.43878174,0.23309326,-5.25,7.359375,-7.75
1664563828358,-0.52368164,-0.49420166,0.20574951,-7.046875,11.671875,-0.625
1664563828404,-0.5629883,-0.6223755,0.21942139,0.109375,3.75,-1.140625
1664563828433,-0.6459961,-0.647522,0.3908081,9.984375,8.0,-0.53125
1664563828479,-0.7873535,-0.6687622,0.42938232,3.765625,9.203125,-0.53125
1664563828509,-0.8754883,-0.6765747,0.46722412,0.234375,7.515625,-5.109375
1664563828554,-0.8569336,-0.88409424,0.33343506,-3.078125,5.796875,-6.5625
1664563828598,-0.7788086,-1.0217896,0.27947998,18.359375,0.390625,-4.40625
1664563828628,-0.67407227,-0.8682251,0.2765503,17.640625,8.125,-1.359375
1664563828673,-0.6647949,-0.9324341,0.28411865,15.84375,5.28125,-0.546875
1664563828718,-0.77783203,-1.0977173,0.35638428,8.734375,-3.0,0.515625
1664563828748,-0.7175293,-0.88482666,0.34222412,-3.078125,2.4375,3.140625
1664563828794,-0.60375977,-0.9102173,0.1539917,1.140625,-2.4375,8.234375
1664563828838,-0.5373535,-0.6692505,0.2670288,4.21875,-10.46875,6.953125
1664563828869,-0.47192383,-0.6939087,0.21429443,0.640625,-6.5,7.703125
1664563828913,-0.42041016,-0.61846924,0.15081787,4.421875,-3.515625,4.78125
1664563828943,-0.41992188,-0.5523071,0.199646,1.484375,-10.984375,3.828125
1664563828988,-0.43920898,-0.6272583,0.27996826,4.28125,-13.625,-1.640625
1664563829034,-0.4729004,-0.6008911,0.26483154,-10.6875,-3.921875,-0.28125
1664563829063,-0.50439453,-0.54278564,0.199646,3.09375,-1.234375,10.03125
1664563829108,-0.57177734,-0.68927,0.22210693,1.390625,-6.796875,-0.859375
1664563829154,-0.61621094,-0.7053833,0.3493042,4.671875,3.125,-2.015625
1664563829183,-0.7348633,-0.8345337,0.37225342,-5.0625,1.96875,-5.8125
1664563829228,-0.72509766,-0.82696533,0.42474365,-11.03125,-0.578125,-4.03125
1664563829258,-0.8391113,-0.90948486,0.34661865,-13.375,10.78125,-2.09375
1664563829304,-0.60498047,-1.0322876,0.14105225,-0.609375,4.984375,7.25
1664563829348,-0.43139648,-0.84454346,0.051696777,32.21875,-0.65625,17.359375
1664563829381,-0.91625977,-1.046936,0.2645874,-17.890625,-8.0,11.671875
1664563829424,-0.8618164,-1.0906372,0.20306396,-5.6875,-12.484375,0.046875
1664563829468,-0.68359375,-0.831604,0.17230225,3.09375,-1.21875,-7.859375
1664563829498,-0.7614746,-0.8257446,0.3764038,-11.734375,-0.875,-7.359375
1664563829543,-0.5756836,-0.70758057,0.12664795,3.984375,-0.1875,6.984375
1664563829588,-0.5678711,-0.5901489,0.21282959,-8.078125,-16.078125,8.015625
1664563829618,-0.5751953,-0.6304321,0.1149292,-4.6875,-5.71875,2.953125
1664563829663,-0.5786133,-0.65093994,0.20916748,-1.03125,0.328125,-1.9375
1664563829693,-0.6159668,-0.5564575,0.1539917,-8.34375,7.640625,-5.890625
1664563829738,-0.43896484,-0.56988525,0.20452881,6.5,4.53125,0.625
1664563829783,-0.45214844,-0.5576782,0.2111206,-3.859375,0.4375,4.03125
1664563829815,-0.47875977,-0.5527954,0.20184326,-3.296875,4.890625,4.625
1664563829858,-0.6069336,-0.6380005,0.28997803,-4.125,-2.515625,2.890625
1664563829903,-0.6591797,-0.7522583,0.32855225,-3.59375,3.203125,4.453125
1664563829933,-0.7265625,-0.7095337,0.38226318,-4.4375,1.25,-3.65625
1664563829978,-0.82836914,-0.74835205,0.48187256,-12.25,12.484375,-15.484375
1664563830008,-1.119873,-1.109436,0.44622803,-3.140625,12.15625,-24.328125
1664563830053,-0.6958008,-1.256897,0.20794678,8.28125,35.78125,-33.546875
1664563830098,-0.58691406,-0.9558716,0.3685913,6.484375,8.0,-17.328125
1664563830128,-0.81469727,-0.63165283,0.41522217,-0.5625,-0.171875,-3.640625
1664563830173,-0.7324219,-1.0237427,0.3324585,11.90625,1.0625,0.359375
1664563830217,-0.62475586,-0.7371216,0.27337646,-1.265625,3.59375,0.265625
1664563830249,-0.515625,-0.6511841,0.18841553,20.5,0.671875,4.703125
1664563830294,-0.61157227,-0.72052,0.33758545,-3.375,-8.0,0.15625
1664563830338,-0.5124512,-0.6277466,0.26190186,8.3125,0.453125,2.96875
1664563830368,-0.5029297,-0.569397,0.2333374,0.921875,-0.796875,-1.125
1664563830414,-0.4309082,-0.52789307,0.2868042,10.90625,-10.265625,4.15625
1664563830443,-0.46020508,-0.6008911,0.31463623,-1.90625,-10.609375,-0.265625
1664563830488,-0.61157227,-0.47027588,0.35882568,-9.609375,-1.796875,-0.546875
1664563830533,-0.46728516,-0.48712158,0.1552124,28.296875,1.71875,17.46875
1664563830564,-0.5253906,-0.741272,0.3168335,5.90625,-0.625,-3.90625
1664563830609,-0.845459,-0.7444458,0.5079956,-7.03125,3.828125,-6.96875
1664563830653,-0.7519531,-0.7649536,0.3451538,5.375,-3.6875,2.859375
1664563830683,-0.87524414,-0.77423096,0.4953003,-7.53125,-6.21875,-8.03125
1664563830728,-0.9650879,-0.8440552,0.39569092,-9.6875,3.953125,3.046875
1664563830759,-0.43041992,-1.0689087,0.23846436,30.5625,-2.203125,20.5
1664563830803,-0.81591797,-0.850647,0.29412842,2.296875,9.84375,3.96875
1664563830848,-0.8881836,-0.77423096,0.43695068,0.15625,10.921875,-7.875
1664563830878,-0.72387695,-0.96588135,0.23577881,-0.765625,10.96875,-4.46875
1664563830923,-0.58325195,-0.7666626,0.062927246,8.921875,-3.828125,0.515625
1664563830969,-0.59277344,-0.68341064,0.36810303,4.5625,-9.859375,2.765625
1664563830998,-0.6225586,-0.739563,0.14642334,5.25,3.328125,3.015625
1664563831043,-0.55249023,-0.6983032,0.105163574,5.84375,-3.703125,3.3125
1664563831073,-0.5637207,-0.62750244,0.20892334,1.78125,-5.546875,4.734375
1664563831118,-0.5629883,-0.6091919,0.17669678,-1.765625,-3.203125,4.921875
1664563831163,-0.43701172,-0.6099243,0.10443115,-10.09375,3.96875,2.734375
1664563831193,-0.43237305,-0.44073486,0.293396,-1.5625,-4.8125,8.3125
1664563831238,-0.5270996,-0.57940674,0.14349365,-11.703125,3.640625,9.71875
1664563831283,-0.55322266,-0.64190674,0.23040771,-4.078125,-3.671875,1.609375
1664563831313,-0.609375,-0.65826416,0.29437256,-2.4375,1.609375,4.859375
1664563831358,-0.6616211,-0.7683716,0.3751831,-1.15625,-5.546875,3.375
1664563831434,-0.8154297,-0.85113525,0.52459717,-7.8125,-4.734375,-3.96875
1664563831437,-1.0349121,-1.1148071,0.34735107,-19.546875,-2.671875,-25.484375
1664563831478,-0.751709,-0.94659424,0.13104248,1.34375,12.375,-16.515625
1664563831508,-0.57470703,-0.80255127,0.30975342,13.4375,2.828125,-13.34375
1664563831556,-0.73583984,-0.81695557,0.30194092,-2.03125,-0.765625,1.859375
1664563831599,-0.78930664,-0.9805298,0.2675171,-18.796875,-15.171875,-2.0
1664563831627,-0.5515137,-0.9470825,0.28363037,6.875,-1.125,5.234375
1664563831674,-0.6201172,-0.7366333,0.17645264,2.421875,-5.34375,2.4375
1664563831718,-0.63964844,-0.6694946,0.31903076,2.234375,-13.875,5.546875
1664563831748,-0.52197266,-0.6074829,0.23529053,-4.484375,3.4375,-2.5625
1664563831793,-0.4970703,-0.58599854,0.19647217,10.453125,2.453125,-2.140625
1664563831823,-0.42333984,-0.5371704,0.260437,2.828125,-2.203125,-1.921875
1664563831869,-0.43164062,-0.51348877,0.24505615,-1.625,-4.8125,-0.03125
1664563831913,-0.5859375,-0.50079346,0.29241943,-4.5625,8.765625,-2.515625
1664563831944,-0.52563477,-0.5405884,0.24139404,10.40625,5.875,-0.484375
1664563831990,-0.6989746,-0.67388916,0.37664795,-1.203125,6.296875,-8.453125
1664563832033,-0.7426758,-0.72320557,0.44256592,1.25,7.34375,-9.1875
1664563832064,-0.7609863,-0.78009033,0.43597412,-6.921875,5.453125,-3.703125
1664563832108,-0.94091797,-0.85357666,0.4706421,-10.15625,8.96875,-3.671875
1664563832153,-0.6965332,-1.0432739,0.27679443,-8.359375,2.71875,4.078125
1664563832183,-0.60180664,-0.8130493,0.13348389,-9.828125,-2.84375,-1.328125
1664563832244,-0.9343262,-0.8989868,0.38983154,3.40625,5.078125,11.484375
1664563832257,-0.67993164,-0.8748169,0.22357178,-10.484375,-6.921875,3.828125
1664563832304,-0.83447266,-0.7959595,0.35101318,2.296875,-11.5,-3.5
1664563832349,-0.67211914,-0.76568604,0.30584717,-3.03125,4.40625,-5.609375
1664563832378,-0.64404297,-0.6890259,0.17010498,9.0,-4.75,4.625
1664563832423,-0.5605469,-0.6553345,0.2267456,3.125,-7.640625,7.78125
1664563832468,-0.5895996,-0.6260376,0.2518921,-0.3125,-6.9375,9.15625
1664563832498,-0.59399414,-0.5730591,0.18011475,-5.953125,-8.734375,1.703125
1664563832543,-0.5341797,-0.4463501,0.21478271,-3.65625,1.46875,-3.046875
1664563832573,-0.61938477,-0.43023682,0.31903076,0.546875,1.515625,3.859375
1664563832618,-0.4873047,-0.53912354,0.22576904,5.296875,7.59375,4.21875
1664563832665,-0.4482422,-0.52227783,0.27264404,-0.546875,-3.75,4.796875
1664563832693,-0.7595215,-0.6375122,0.39935303,-6.640625,7.484375,4.21875
1664563832738,-0.67822266,-0.6658325,0.416687,2.28125,3.03125,-2.796875
1664563832784,-0.84375,-0.6524048,0.55804443,-6.875,14.65625,-16.125
1664563832813,-0.8996582,-0.9199829,0.38494873,-7.40625,-1.953125,-19.6875
1664563832860,-0.904541,-1.0774536,0.32904053,15.296875,20.734375,-22.90625
1664563832904,-0.7561035,-0.8640747,0.32537842,25.96875,14.78125,-16.046875
1664563832933,-0.57788086,-1.00177,0.39764404,5.1875,-1.46875,2.109375
1664563832978,-0.91845703,-0.9495239,0.42694092,-6.59375,-10.90625,-2.140625
1664563833008,-0.8425293,-0.81744385,0.34344482,-1.546875,5.28125,3.96875
1664563833053,-0.5769043,-0.6939087,0.2411499,13.640625,-6.84375,11.578125
1664563833099,-0.56689453,-0.6057739,0.27996826,3.125,-8.53125,6.859375
1664563833131,-0.5422363,-0.59576416,0.22576904,8.265625,-6.5,8.140625
1664563833173,-0.4411621,-0.6248169,0.2189331,3.96875,-5.90625,7.203125
1664563833219,-0.47192383,-0.4746704,0.22772217,4.015625,-6.296875,5.03125
1664563833249,-0.4802246,-0.4512329,0.20697021,0.640625,-2.4375,2.796875
1664563833294,-0.40014648,-0.5317993,0.29779053,5.875,-2.890625,-3.125
1664563833323,-0.5097656,-0.63116455,0.37347412,-3.875,-2.65625,-0.578125
1664563833368,-0.5756836,-0.7246704,0.36566162,-1.4375,-2.125,2.171875
1664563833413,-0.77978516,-0.71173096,0.49456787,-4.1875,-1.984375,-0.640625
1664563833443,-0.78222656,-0.6914673,0.5031128,-0.859375,2.203125,-3.21875
1664563833488,-0.88378906,-1.0618286,0.1605835,-22.140625,-1.09375,8.15625
1664563833533,-0.5983887,-0.9859009,0.020202637,-8.25,7.828125,4.484375
1664563833563,-0.7697754,-0.9805298,0.5338745,-1.796875,-19.078125,20.890625
1664563833608,-1.0129395,-0.9265747,0.08807373,-9.171875,-1.109375,3.453125
1664563833638,-0.6726074,-0.70147705,0.37542725,-2.421875,-7.953125,-6.03125
1664563833683,-0.79174805,-0.9067993,0.3217163,-7.046875,-6.046875,1.703125
1664563833728,-0.70825195,-0.65093994,0.24041748,-1.3125,-6.25,-1.625
1664563833758,-0.6711426,-0.64508057,0.2399292,-2.375,-7.421875,3.25
1664563833804,-0.6040039,-0.60723877,0.2687378,0.90625,-9.4375,2.984375
1664563833848,-0.6328125,-0.5786743,0.2230835,-2.46875,-0.59375,0.5625
1664563833878,-0.6323242,-0.56085205,0.21917725,-5.0,-2.765625,0.15625
1664563833923,-0.57836914,-0.5498657,0.26019287,0.578125,0.328125,-1.609375
1664563833968,-0.6467285,-0.5286255,0.2267456,-5.984375,7.796875,-2.484375
1664563834000,-0.4519043,-0.46124268,0.22723389,0.453125,1.984375,4.34375
1664563834044,-0.6171875,-0.49224854,0.34613037,-0.40625,6.125,4.921875
1664563834072,-0.6281738,-0.6116333,0.2411499,0.984375,10.96875,-1.90625
1664563834118,-0.72558594,-0.60528564,0.42132568,0.5625,8.875,-2.515625
1664563834163,-0.8937988,-0.663147,0.49456787,-2.953125,17.578125,-12.71875
1664563834193,-1.0100098,-0.98687744,0.35736084,-10.109375,11.46875,-17.96875
1664563834238,-0.76342773,-0.91070557,0.27874756,8.5625,9.015625,-13.109375
1664563834284,-0.592041,-0.897522,0.36444092,18.734375,2.28125,-2.8125
1664563834313,-0.76049805,-0.9656372,0.42816162,-4.046875,10.078125,-5.578125
1664563834358,-0.7385254,-0.9927368,0.3624878,22.65625,5.984375,-1.5625
1664563834388,-0.7331543,-0.7793579,0.26507568,8.75,8.84375,2.703125
1664563834434,-0.59350586,-0.7468872,0.26141357,12.859375,-3.546875,2.765625
1664563834478,-0.5888672,-0.5786743,0.387146,4.34375,3.8125,1.046875
1664563834510,-0.51660156,-0.5960083,0.18914795,11.046875,4.3125,-0.53125
1664563834554,-0.4741211,-0.5569458,0.20770264,11.328125,0.953125,1.734375
1664563834598,-0.45361328,-0.5581665,0.25897217,9.46875,1.75,-1.453125
1664563834628,-0.42089844,-0.51104736,0.34857178,14.5625,-2.296875,-1.03125
1664563834673,-0.48413086,-0.61602783,0.2567749,-2.25,8.84375,-4.1875
1664563834718,-0.6069336,-0.7024536,0.45159912,19.859375,-5.515625,-0.46875
1664563834748,-0.7385254,-0.6956177,0.37908936,-5.421875,4.453125,-7.375
1664563834793,-0.8173828,-0.7481079,0.40716553,0.046875,3.046875,-11.34375
1664563834823,-0.71435547,-0.677063,0.42034912,2.265625,7.234375,-11.484375
1664563834868,-0.7319336,-0.8689575,0.2662964,-6.015625,1.4375,3.203125
1664563834913,-0.6647949,-0.92266846,0.14813232,-14.640625,7.90625,-0.828125
1664563834943,-0.81274414,-0.9805298,0.23016357,2.1875,-10.125,15.3125
1664563834988,-0.79248047,-1.055481,0.260437,6.546875,-3.4375,16.71875
1664563835033,-0.6882324,-0.7390747,0.23797607,-24.1875,-16.5625,-4.4375
1664563835063,-0.89624023,-0.6851196,0.52948,-9.546875,-1.90625,-8.234375
1664563835108,-0.67529297,-0.78912354,0.18304443,2.15625,2.9375,-0.34375
1664563835138,-0.5246582,-0.65216064,0.18353271,-0.671875,-11.015625,1.734375
1664563835183,-0.6135254,-0.6189575,0.39227295,-14.859375,-13.671875,7.953125
1664563835229,-0.63720703,-0.61920166,0.24261475,-10.375,-10.1875,8.015625
1664563835259,-0.6308594,-0.5125122,0.1954956,-13.28125,-2.71875,3.546875
1664563835304,-0.6447754,-0.44854736,0.33416748,0.4375,-3.546875,0.671875
1664563835349,-0.5551758,-0.5352173,0.2831421,2.21875,7.5625,3.78125
1664563835379,-0.5632324,-0.5261841,0.29608154,-10.609375,-0.84375,4.125
1664563835423,-0.58154297,-0.51763916,0.36932373,3.015625,1.8125,5.0625
1664563835469,-0.7128906,-0.59552,0.3912964,-7.765625,4.59375,2.875
1664563835498,-0.65600586,-0.6555786,0.44281006,-3.5,4.0,-2.34375
1664563835543,-0.74853516,-0.6206665,0.5309448,-5.21875,5.359375,-10.09375
1664563835573,-0.8215332,-0.5767212,0.5067749,-1.53125,2.390625,-15.9375
1664563835619,-0.77978516,-0.87628174,0.4196167,21.390625,13.09375,-13.90625
1664563835664,-0.87646484,-0.8723755,0.24188232,12.9375,9.078125,-22.640625
1664563835701,-0.732666,-0.94610596,0.3727417,28.390625,2.234375,1.109375
1664563835738,-0.767334,-0.9290161,0.26141357,15.203125,5.5,1.65625
1664563835783,-0.7871094,-1.0872192,0.30511475,-12.28125,-9.796875,4.0
1664563835815,-0.7163086,-0.75323486,0.26971436,9.640625,0.359375,9.90625
1664563835858,-0.67285156,-0.78375244,0.19622803,-5.71875,-3.015625,-1.359375
1664563835889,-0.60498047,-0.63531494,0.3324585,5.71875,-0.1875,-2.234375
1664563835934,-0.5048828,-0.5256958,0.17913818,13.921875,4.59375,-1.046875
1664563835978,-0.46362305,-0.50079346,0.22113037,7.359375,-1.703125,0.4375
1664563836008,-0.32421875,-0.43804932,0.23406982,11.53125,-7.4375,4.265625
1664563836053,-0.46923828,-0.62164307,0.28875732,-10.328125,-5.53125,0.59375
1664563836099,-0.6208496,-0.458313,0.28753662,-10.984375,3.59375,6.375
1664563836128,-0.5046387,-0.58843994,0.23309326,10.640625,2.953125,-0.390625
1664563836173,-0.85424805,-0.7246704,0.47625732,-3.046875,7.796875,-10.84375
1664563836218,-0.7192383,-0.6116333,0.35931396,3.421875,1.703125,0.078125
1664563836248,-0.88305664,-0.87335205,0.44818115,-15.0625,11.5625,-1.171875
1664563836294,-0.7446289,-1.1123657,0.3600464,0.625,-2.078125,6.265625
1664563836323,-0.73095703,-0.9170532,0.14202881,-3.640625,1.4375,14.375
1664563836368,-0.82714844,-0.9517212,0.16668701,-10.703125,0.109375,11.1875
1664563836414,-0.8640137,-0.6765747,0.33929443,1.234375,-6.109375,2.015625
1664563836442,-0.6364746,-0.9380493,0.43060303,7.390625,-8.9375,10.34375
1664563836489,-0.75878906,-1.0112915,0.28167725,-12.359375,-8.703125,0.03125
1664563836533,-0.6694336,-0.737854,0.2074585,8.4375,-14.5625,6.390625
1664563836563,-0.5505371,-0.6038208,0.31292725,-1.015625,-11.6875,1.5625
1664563836608,-0.592041,-0.5808716,0.2008667,4.6875,-3.265625,7.671875
1664563836638,-0.5058594,-0.5466919,0.12347412,4.1875,-1.203125,-1.359375
1664563836683,-0.51953125,-0.4956665,0.18450928,-4.21875,1.265625,-3.078125
1664563836729,-0.5480957,-0.49371338,0.2982788,-3.515625,0.640625,2.515625
1664563836758,-0.5769043,-0.5195923,0.25701904,-4.734375,1.09375,1.28125
1664563836804,-0.49267578,-0.5405884,0.20355225,-2.046875,-0.359375,6.109375
1664563836848,-0.71606445,-0.59210205,0.3661499,-5.984375,5.3125,-0.3125
1664563836878,-0.8869629,-0.74176025,0.44525146,-4.296875,9.46875,-9.21875
1664563836924,-0.78125,-0.6968384,0.3673706,-0.953125,12.90625,-10.71875
1664563836953,-0.7351074,-0.68951416,0.49163818,5.84375,9.6875,-11.578125
1664563836999,-0.83154297,-0.8731079,0.27752686,-7.828125,9.46875,-17.953125
1664563837043,-0.59228516,-0.9175415,0.27142334,25.234375,3.484375,2.453125
1664563837073,-0.6188965,-1.227356,0.28070068,14.796875,3.46875,9.65625
1664563837121,-0.93408203,-0.94195557,0.47772217,-15.03125,-6.25,-4.109375
1664563837164,-0.7836914,-0.8550415,0.2579956,-3.359375,4.453125,-3.5
1664563837192,-0.5510254,-0.8831177,0.31170654,11.15625,1.09375,3.25
1664563837238,-0.5397949,-0.6226196,0.2501831,-3.421875,-2.90625,-2.640625
1664563837313,-0.5605469,-0.56573486,0.25213623,4.015625,-0.046875,2.765625
1664563837315,-0.4465332,-0.52789307,0.1564331,14.703125,6.96875,-0.15625
1664563837358,-0.39672852,-0.49346924,0.2164917,11.734375,-2.34375,0.96875
1664563837388,-0.4711914,-0.48858643,0.32659912,6.46875,1.765625,1.578125
1664563837434,-0.44213867,-0.5654907,0.23040771,-1.0625,6.15625,-0.453125
1664563837479,-0.5270996,-0.72857666,0.291687,13.328125,-4.796875,3.578125
1664563837509,-0.751709,-0.8936157,0.52142334,-14.125,-6.28125,-1.375
1664563837554,-0.81396484,-0.6655884,0.31610107,1.5625,-5.703125,-3.203125
1664563837598,-0.60009766,-0.80303955,0.29901123,13.015625,1.984375,-0.0625
1664563837629,-0.8046875,-0.7493286,0.45428467,-9.53125,1.390625,-6.140625
1664563837673,-0.67529297,-0.9536743,0.30926514,-2.9375,12.8125,11.671875
1664563837703,-0.4375,-0.8484497,0.058776855,5.1875,3.328125,3.265625
1664563837748,-0.97998047,-0.70391846,0.59124756,-54.5625,-16.921875,1.484375
1664563837793,-0.7609863,-1.1887817,0.28607178,12.375,15.40625,7.09375
1664563837824,-0.7661133,-0.8147583,0.29852295,-23.421875,-14.265625,-15.15625
1664563837870,-0.8696289,-0.8682251,0.40203857,3.09375,0.671875,-1.171875
1664563837913,-0.6245117,-0.73223877,0.23162842,5.109375,-6.046875,0.15625
1664563837943,-0.51782227,-0.60235596,0.21234131,9.296875,-9.578125,6.953125
1664563837988,-0.7055664,-0.58843994,0.32025146,3.78125,-1.3125,2.359375
1664563838034,-0.5632324,-0.53863525,0.21453857,2.9375,1.0625,4.84375
1664563838066,-0.5703125,-0.5540161,0.2555542,3.234375,1.484375,2.21875
1664563838109,-0.6894531,-0.5569458,0.30462646,-3.90625,8.640625,-2.15625
1664563838139,-0.47558594,-0.5393677,0.22723389,10.4375,-0.203125,0.921875
1664563838184,-0.60595703,-0.47906494,0.3151245,-7.21875,8.625,-1.625
1664563838229,-0.5444336,-0.60894775,0.25775146,16.390625,1.03125,-0.84375
1664563838258,-0.56518555,-0.5459595,0.21209717,5.46875,12.65625,3.015625
1664563838303,-0.7734375,-0.64190674,0.4393921,-0.234375,9.015625,-2.53125
1664563838349,-0.7307129,-0.74664307,0.34954834,1.84375,2.265625,-3.296875
1664563838378,-0.7307129,-0.6963501,0.48138428,-4.53125,-1.140625,-6.71875
1664563838423,-1.0083008,-0.8562622,0.43499756,-12.09375,9.203125,-19.65625
1664563838452,-0.8017578,-0.9470825,0.34002686,8.96875,10.578125,-17.28125
1664563838499,-0.5114746,-0.91070557,0.3241577,10.5625,4.765625,-3.5625
1664563838544,-0.9255371,-0.9414673,0.39056396,-6.890625,0.734375,-4.6875
1664563838573,-0.8063965,-0.85235596,0.44622803,2.953125,4.578125,-2.046875
1664563838618,-0.7019043,-0.84869385,0.29071045,-1.578125,6.546875,-1.578125
1664563838663,-0.57714844,-0.7630005,0.24822998,6.1875,-1.203125,3.9375
1664563838694,-0.5246582,-0.57354736,0.3234253,3.265625,-0.875,2.28125
1664563838741,-0.44995117,-0.55303955,0.23602295,16.609375,-1.046875,2.109375
1664563838783,-0.36767578,-0.4981079,0.14764404,8.5,7.328125,0.65625
1664563838812,-0.39135742,-0.4680786,0.2675171,11.40625,-16.765625,3.5
1664563838859,-0.40161133,-0.4590454,0.30682373,5.21875,4.578125,-4.6875
1664563838889,-0.5061035,-0.5562134,0.2477417,0.234375,0.25,5.40625
1664563838933,-0.59033203,-0.75787354,0.3834839,-0.515625,-5.75,3.84375
1664563838979,-0.81762695,-0.66656494,0.4784546,-7.671875,-5.953125,-3.671875
1664563839009,-0.8540039,-0.7283325,0.45135498,0.125,1.296875,-8.75
1664563839054,-0.96533203,-0.95025635,0.44110107,-15.609375,7.171875,-0.34375
1664563839099,-0.63500977,-1.2219849,0.418396,-13.15625,2.546875,7.25
1664563839129,-0.7272949,-0.72369385,0.12591553,-23.46875,-14.046875,-7.984375
1664563839174,-0.8586426,-0.53204346,0.42523193,-7.78125,16.953125,-2.875
1664563839203,-0.7507324,-1.2112427,0.29241943,2.15625,4.40625,18.90625
1664563839248,-0.6130371,-0.84088135,0.07269287,2.03125,-23.1875,-1.453125
1664563839293,-0.87280273,-0.7612915,0.47576904,-2.140625,-4.234375,3.125
1664563839324,-0.701416,-0.7168579,0.20111084,11.40625,-4.125,3.859375
1664563839369,-0.56396484,-0.55792236,0.093688965,9.859375,-8.65625,7.421875
1664563839414,-0.60498047,-0.6062622,0.322937,10.703125,-7.890625,7.265625
1664563839444,-0.5163574,-0.57818604,0.13641357,-3.078125,-5.828125,3.1875
1664563839488,-0.6635742,-0.616272,0.29412842,-12.765625,-2.390625,2.734375
1664563839534,-0.54174805,-0.44830322,0.17352295,-0.578125,2.75,0.5625
1664563839563,-0.43237305,-0.3579712,0.33953857,8.375,-0.40625,2.265625
1664563839609,-0.6201172,-0.56329346,0.2789917,-3.390625,9.34375,2.578125
1664563839639,-0.60668945,-0.5840454,0.23358154,0.640625,10.59375,3.3125
1664563839683,-0.7375488,-0.6338501,0.44256592,-2.75,9.890625,1.765625
1664563839729,-0.80859375,-0.68218994,0.47210693,0.640625,9.15625,-2.75
1664563839758,-0.767334,-0.6873169,0.38885498,-3.0625,10.390625,-6.875
1664563839804,-0.7348633,-0.8713989,0.27874756,2.03125,-4.4375,-6.28125
1664563839848,-0.79125977,-0.89312744,0.32928467,16.921875,8.203125,-9.21875
1664563839879,-0.82373047,-0.9602661,0.4076538,13.296875,16.28125,-18.71875
1664563839924,-0.64331055,-0.88848877,0.47210693,10.046875,5.5,-3.21875
1664563839953,-0.90234375,-1.0591431,0.34173584,-6.03125,5.984375,-6.4375
1664563839999,-0.75268555,-0.9558716,0.51312256,4.625,-3.890625,-1.34375
1664563840043,-0.61694336,-0.78741455,0.25115967,-1.75,-1.09375,6.828125
1664563840074,-0.5246582,-0.6304321,0.2814331,11.3125,-9.265625,5.5625
1664563840119,-0.4387207,-0.56622314,0.2501831,6.265625,-3.484375,7.640625
1664563840179,-0.4074707,-0.598938,0.21966553,10.71875,-0.65625,3.28125
1664563840192,-0.4440918,-0.5574341,0.26409912,3.265625,-7.125,0.390625
1664563840238,-0.47802734,-0.5425415,0.33294678,-1.890625,-7.046875,1.71875
1664563840269,-0.48657227,-0.5864868,0.21038818,-4.359375,-5.21875,2.171875
1664563840314,-0.52685547,-0.63165283,0.35614014,1.390625,-5.21875,-0.796875
1664563840358,-0.56591797,-0.5432739,0.26507568,3.65625,-2.609375,4.234375
1664563840389,-0.673584,-0.7295532,0.40618896,-2.640625,-1.96875,-7.734375
1664563840433,-0.7890625,-0.69244385,0.39666748,-5.0,3.171875,-7.328125
1664563840479,-0.68066406,-0.753479,0.40374756,-7.390625,1.859375,-6.703125
1664563840509,-0.8562012,-0.9631958,0.32659912,-18.625,7.125,-0.40625
1664563840554,-0.6113281,-1.0640259,0.35150146,-8.09375,-0.03125,6.359375
1664563840599,-0.7626953,-0.66119385,0.18450928,-9.71875,-13.578125,6.03125
1664563840628,-0.97265625,-0.91192627,0.16546631,-12.578125,16.828125,0.625
1664563840674,-0.61376953,-0.98638916,0.27874756,13.046875,-4.296875,7.34375
1664563840703,-0.95532227,-0.80181885,0.40374756,-5.84375,-7.4375,-0.46875
1664563840750,-0.7163086,-0.8230591,0.31463623,1.921875,-4.953125,-0.015625
1664563840794,-0.58496094,-0.6626587,0.2682495,4.28125,-5.109375,-2.5625
1664563840824,-0.5666504,-0.5877075,0.25408936,7.25,-6.5,3.375
1664563840868,-0.6069336,-0.5767212,0.18988037,5.125,-3.28125,4.75
1664563840914,-0.5197754,-0.58673096,0.17254639,7.53125,-8.71875,4.96875
1664563840943,-0.6398926,-0.58135986,0.31488037,-9.875,-3.390625,0.078125
1664563840989,-0.6303711,-0.49957275,0.27630615,-4.59375,1.984375,-2.59375
1664563841021,-0.5515137,-0.46881104,0.30877686,-1.65625,6.15625,-6.40625
1664563841063,-0.6574707,-0.60235596,0.3180542,-3.9375,5.546875,-4.625
1664563841109,-0.51171875,-0.56988525,0.27313232,2.421875,4.390625,1.421875
1664563841139,-0.751709,-0.645813,0.31195068,-3.171875,5.96875,3.78125
1664563841184,-0.6845703,-0.6621704,0.36346436,0.03125,5.78125,-2.140625
1664563841229,-0.8232422,-0.6704712,0.4706421,-0.25,6.890625,-3.796875
1664563841259,-0.7062988,-0.6995239,0.3776245,-2.359375,4.859375,-8.40625
1664563841304,-0.9025879,-0.8128052,0.37957764,-1.28125,8.84375,-18.0625
1664563841379,-0.7727051,-0.9636841,0.32073975,8.5625,17.671875,-8.78125
1664563841382,-0.4885254,-0.9324341,0.35662842,23.703125,10.15625,3.21875
1664563841424,-0.888916,-0.85162354,0.38153076,-24.734375,-13.53125,0.125
1664563841453,-0.8840332,-0.89923096,0.5101929,-2.265625,-5.46875,-2.84375
1664563841498,-0.68115234,-0.77789307,0.33392334,2.140625,6.703125,0.0625
1664563841543,-0.579834,-0.7112427,0.25775146,6.078125,-5.5625,3.859375
1664563841573,-0.59375,-0.58721924,0.36297607,0.765625,-6.796875,4.640625
1664563841621,-0.5070801,-0.56744385,0.26898193,4.296875,-2.625,5.28125
1664563841663,-0.40722656,-0.52789307,0.27630615,7.71875,-8.625,1.21875
1664563841694,-0.5522461,-0.51031494,0.34979248,-6.015625,-8.609375,-0.5
1664563841739,-0.43579102,-0.48614502,0.2609253,3.390625,-3.421875,-0.125
1664563841769,-0.44702148,-0.44952393,0.36102295,3.921875,-2.140625,-5.046875
1664563841813,-0.65063477,-0.67193604,0.31878662,3.390625,-5.140625,0.625
1664563841858,-0.53759766,-0.68756104,0.3949585,7.328125,-3.359375,2.34375
1664563841891,-0.71606445,-0.67315674,0.44525146,1.515625,-2.515625,-1.25
1664563841934,-0.7871094,-0.76226807,0.5541382,-2.71875,3.921875,-2.40625
1664563841978,-0.73657227,-1.2153931,0.43328857,-7.359375,3.296875,13.53125
1664563842008,-0.7919922,-0.85650635,-0.04058838,-19.828125,1.984375,-6.875
1664563842054,-1.0739746,-0.6506958,0.607605,-13.828125,14.453125,7.90625
1664563842099,-0.7644043,-1.1694946,0.19940186,4.265625,0.59375,15.421875
1664563842129,-0.76220703,-0.6116333,0.45965576,-15.40625,-20.65625,-4.890625
1664563842173,-0.96655273,-0.8765259,0.34710693,-0.5625,6.1875,6.015625
1664563842203,-0.51782227,-0.661438,0.20379639,12.96875,-8.921875,3.84375
1664563842249,-0.7084961,-0.4961548,0.32757568,3.953125,-10.65625,7.3125
1664563842294,-0.6159668,-0.57891846,0.21380615,3.0625,-2.0625,6.109375
1664563842323,-0.5683594,-0.6177368,0.21966553,-1.046875,-4.75,1.078125
1664563842368,-0.59521484,-0.59503174,0.24432373,0.6875,-5.078125,4.375
1664563842414,-0.66430664,-0.57598877,0.2694702,-11.609375,-0.640625,0.140625
1664563842443,-0.55078125,-0.51348877,0.27703857,-2.765625,1.734375,-2.0
1664563842491,-0.6015625,-0.53326416,0.31048584,-5.4375,4.765625,-0.65625
1664563842519,-0.6298828,-0.56573486,0.30340576,-1.828125,6.734375,2.296875
1664563842564,-0.5385742,-0.58184814,0.28631592,-3.359375,-1.4375,6.546875
1664563842608,-0.69311523,-0.6069946,0.43695068,1.671875,-2.34375,3.03125
1664563842639,-0.65063477,-0.6812134,0.39154053,-2.46875,1.546875,-2.328125
1664563842684,-0.71777344,-0.6152954,0.5204468,-1.421875,1.234375,-6.96875
1664563842729,-0.9177246,-0.7210083,0.4105835,-8.015625,6.53125,-17.296875
1664563842759,-0.8425293,-0.960022,0.38446045,5.375,7.1875,-14.90625
1664563842803,-0.7932129,-0.9360962,0.27191162,5.234375,15.40625,-9.25
1664563842833,-0.6887207,-0.93096924,0.36444092,15.25,-0.53125,5.125
1664563842878,-0.87524414,-0.9829712,0.42181396,-7.65625,-6.15625,-0.453125
1664563842924,-0.83691406,-0.78448486,0.36566162,-7.15625,-2.765625,-4.15625
1664563842953,-0.6816406,-0.73101807,0.2687378,11.171875,8.203125,0.109375
1664563842999,-0.52783203,-0.6387329,0.23114014,4.59375,1.09375,1.84375
1664563843044,-0.53393555,-0.57891846,0.33441162,6.5625,-3.078125,7.28125
1664563843074,-0.4399414,-0.6165161,0.22991943,5.734375,-0.40625,4.109375
1664563843119,-0.5292969,-0.47735596,0.26776123,3.875,0.4375,2.328125
1664563843164,-0.43481445,-0.5137329,0.26605225,14.375,-2.875,4.9375
1664563843194,-0.52563477,-0.5791626,0.31854248,-2.125,-7.03125,-6.109375
1664563843239,-0.60498047,-0.45684814,0.3920288,0.53125,-0.96875,-3.53125
1664563843269,-0.5661621,-0.6548462,0.32489014,-0.765625,1.796875,-3.296875
1664563843314,-0.6555176,-0.7036743,0.44622803,2.96875,-3.96875,-0.53125
1664563843359,-0.7558594,-0.68707275,0.42303467,-0.828125,1.640625,-4.640625
1664563843388,-0.77783203,-0.7312622,0.48651123,-3.921875,0.3125,-3.53125
1664563843433,-0.9765625,-1.0339966,0.38641357,-23.5625,5.90625,5.578125
1664563843479,-0.57666016,-0.9273071,0.24163818,-4.65625,0.078125,1.4375
1664563843509,-0.71899414,-0.6380005,0.416687,-20.234375,-9.359375,-1.046875
1664563843554,-0.9416504,-0.59210205,0.4298706,-7.53125,12.6875,-6.296875
1664563843583,-0.69873047,-1.0276489,0.14422607,7.8125,9.0,13.515625
1664563843629,-0.6516113,-0.7276001,0.18597412,-2.078125,-14.765625,-7.96875
1664563843674,-1.0476074,-0.76153564,0.55511475,-0.703125,1.03125,2.5625
1664563843703,-0.7138672,-0.6865845,0.18865967,9.921875,2.046875,-3.234375
1664563843749,-0.6281738,-0.60284424,0.28948975,11.46875,-7.625,-3.71875
1664563843794,-0.69262695,-0.59088135,0.33538818,8.953125,-3.25,1.1875
1664563843824,-0.63134766,-0.57354736,0.20355225,5.75,0.984375,1.734375
1664563843869,-0.54907227,-0.5569458,0.2062378,5.46875,-0.40625,3.609375
1664563843914,-0.6074219,-0.49908447,0.29437256,0.171875,-0.296875,0.90625
1664563843943,-0.609375,-0.4824829,0.276062,-5.65625,10.375,-2.4375
1664563843988,-0.5361328,-0.50860596,0.22576904,2.953125,9.921875,3.890625
1664563844019,-0.60791016,-0.53375244,0.28826904,0.015625,7.203125,4.75
1664563844064,-0.6875,-0.57598877,0.34124756,0.09375,12.0625,1.03125
1664563844109,-0.73950195,-0.5557251,0.3925171,4.59375,14.4375,-6.25
1664563844139,-0.69677734,-0.5991821,0.4640503,8.078125,6.59375,-5.703125
1664563844184,-0.78125,-0.5786743,0.5541382,1.484375,6.921875,-10.890625
1664563844229,-0.9741211,-0.8965454,0.35736084,-8.03125,18.78125,-19.328125
1664563844258,-0.8117676,-0.9624634,0.355896,11.78125,8.59375,-9.34375
1664563844304,-0.5371094,-0.9002075,0.46820068,18.015625,-9.21875,4.21875
1664563844333,-1.1040039,-0.87579346,0.4911499,-13.1875,10.1875,-14.03125
1664563844378,-0.7741699,-0.83184814,0.3673706,15.640625,9.125,-5.9375
1664563844424,-0.63916016,-0.8233032,0.28656006,6.9375,-1.15625,6.15625
1664563844454,-0.576416,-0.8062134,0.33807373,12.375,-9.578125,3.90625
1664563844499,-0.6245117,-0.59039307,0.31365967,8.015625,0.96875,2.390625
1664563844544,-0.5419922,-0.5327759,0.2477417,8.671875,0.03125,5.375
1664563844575,-0.44726562,-0.54693604,0.2411499,12.703125,-1.484375,3.65625
1664563844619,-0.5341797,-0.6538696,0.3529663,1.984375,-7.609375,-1.25
1664563844665,-0.5354004,-0.53375244,0.3085327,0.203125,-3.484375,-1.875
1664563844693,-0.46679688,-0.49371338,0.27874756,-5.40625,-5.09375,5.53125
1664563844739,-0.5527344,-0.58477783,0.31170654,0.625,-8.578125,4.953125
1664563844768,-0.5852051,-0.55303955,0.35809326,4.9375,1.359375,-2.03125
1664563844814,-0.80810547,-0.71539307,0.402771,-3.890625,1.140625,-3.703125
1664563844858,-0.71777344,-0.67926025,0.3866577,-5.046875,-3.625,-2.921875
1664563844888,-0.7907715,-0.7192993,0.5289917,-8.609375,-0.515625,-8.3125
1664563844934,-0.9641113,-0.97198486,0.32366943,-22.25,-0.90625,3.359375
1664563844979,-0.59033203,-0.82647705,0.1762085,-10.1875,-2.890625,8.140625
1664563845008,-0.6442871,-0.6616821,0.3595581,-13.671875,-13.625,4.515625
1664563845054,-0.8864746,-0.83258057,0.36297607,-11.53125,0.75,11.765625
1664563845084,-0.81103516,-1.0188599,0.19134521,-10.359375,-0.34375,7.59375
1664563845129,-0.7355957,-0.56427,0.21746826,11.140625,-12.703125,-5.46875
1664563845174,-0.89160156,-0.9451294,0.5026245,-3.5625,-0.03125,8.953125
1664563845204,-0.7150879,-0.70196533,0.16912842,5.59375,4.765625,-1.40625
1664563845249,-0.6530762,-0.6682739,0.31951904,8.75,-10.0625,3.328125
1664563845293,-0.6418457,-0.645813,0.32513428,3.328125,-2.796875,2.390625
1664563845324,-0.58569336,-0.6223755,0.19671631,3.4375,-1.3125,3.671875
1664563845369,-0.5966797,-0.60943604,0.23577881,3.8125,-4.109375,2.265625
1664563845414,-0.6542969,-0.50445557,0.32806396,-3.4375,-5.21875,0.0
1664563845444,-0.5900879,-0.42315674,0.22381592,-8.109375,7.5625,-7.796875
1664563845489,-0.63305664,-0.4998169,0.30828857,7.078125,13.015625,0.09375
1664563845520,-0.5554199,-0.55352783,0.23553467,0.53125,12.15625,-1.078125
1664563845564,-0.5578613,-0.45098877,0.3270874,6.046875,6.65625,-0.890625
1664563845609,-0.65625,-0.5679321,0.37445068,5.46875,10.9375,-0.125
1664563845639,-0.67822266,-0.6165161,0.3673706,4.359375,8.140625,-1.28125
1664563845683,-0.8232422,-0.64434814,0.4545288,-2.796875,11.734375,-9.3125
1664563845729,-1.09375,-0.9746704,0.3612671,-11.078125,22.234375,-26.625
1664563845759,-0.7351074,-0.96221924,0.32928467,23.828125,12.609375,-18.453125
1664563845804,-0.6257324,-0.8845825,0.3973999,2.25,-3.84375,2.28125
1664563845833,-1.03125,-1.0342407,0.42474365,5.5625,7.296875,-5.96875
1664563845881,-0.6608887,-0.8049927,0.34344482,3.984375,2.765625,2.078125
1664563845924,-0.78344727,-0.81573486,0.2880249,0.375,0.671875,3.40625
1664563845953,-0.60839844,-0.77838135,0.2970581,14.765625,-8.375,5.765625
1664563845998,-0.579834,-0.5413208,0.32000732,7.828125,0.890625,2.484375
1664563846044,-0.59936523,-0.61798096,0.21380615,3.265625,3.734375,0.96875
1664563846074,-0.54125977,-0.59991455,0.2682495,7.390625,0.921875,1.171875
1664563846119,-0.5041504,-0.5215454,0.3036499,8.15625,-0.5625,0.15625
1664563846149,-0.49658203,-0.5864868,0.26678467,-0.703125,-9.8125,-4.53125
1664563846196,-0.5864258,-0.64801025,0.32684326,3.34375,-3.0625,0.109375
1664563846239,-0.47045898,-0.4487915,0.28900146,2.515625,0.921875,2.5625
1664563846268,-0.61157227,-0.6729126,0.31292725,3.40625,-2.59375,-2.90625
1664563846314,-0.79785156,-0.67388916,0.46453857,-1.140625,9.0,-8.328125
1664563846359,-0.7233887,-0.5803833,0.30511475,0.78125,9.296875,-2.640625
1664563846391,-0.7680664,-0.65289307,0.4569702,-6.75,-0.375,-7.796875
1664563846434,-0.96875,-0.87628174,0.42279053,-12.359375,15.890625,-0.25
1664563846479,-0.74780273,-0.9522095,0.3241577,-11.0,6.625,4.46875
1664563846509,-0.7897949,-0.862854,0.46307373,-7.171875,-8.953125,3.8125
1664563846554,-0.88793945,-0.70684814,0.37860107,-13.796875,8.21875,-4.234375
1664563846584,-0.6687012,-0.6668091,0.33026123,-2.0,-1.609375,-5.015625
1664563846627,-0.67822266,-0.7468872,0.2789917,-0.5625,2.953125,2.953125
