# Sensor type: Respeck
# Activity type: Descending stairs
# Activity code: 13
# Subject id: s1800825
# Notes: 
timestamp,accel_x,accel_y,accel_z,gyro_x,gyro_y,gyro_z
1664564221300,-0.7338867,-0.69073486,0.29779053,2.546875,-6.09375,0.53125
1664564221346,-0.70825195,-0.6824341,0.13665771,2.0,5.75,-1.65625
1664564221375,-0.7519531,-0.66241455,0.15911865,-1.546875,0.28125,-1.625
1664564221421,-0.7385254,-0.6721802,0.21575928,0.609375,-2.890625,-1.5
1664564221465,-0.7270508,-0.68707275,0.18841553,0.796875,-2.078125,-2.0
1664564221495,-0.7504883,-0.6699829,0.19525146,-0.234375,-0.53125,-2.0625
1664564221540,-0.7519531,-0.65826416,0.18548584,-0.21875,-0.75,-2.140625
1664564221586,-0.74243164,-0.6680298,0.20599365,-0.3125,-0.03125,-2.75
1664564221618,-0.7421875,-0.6567993,0.21600342,-1.421875,-0.1875,-3.109375
1664564221660,-0.76293945,-0.6638794,0.21429443,-1.71875,1.015625,-3.34375
1664564221705,-0.717041,-0.6433716,0.21453857,-0.4375,-1.796875,-1.640625
1664564221736,-0.7229004,-0.6602173,0.18035889,-4.09375,7.0,-4.625
1664564221782,-0.7832031,-0.6292114,0.2789917,3.140625,-1.4375,-0.5625
1664564221825,-0.7348633,-0.60894775,0.23406982,-2.953125,6.953125,-1.671875
1664564221857,-0.7746582,-0.56817627,0.22332764,-1.109375,12.234375,-2.03125
1664564221886,-0.7866211,-0.6157837,0.246521,-0.5625,7.390625,1.21875
1664564221946,-0.7910156,-0.6477661,0.22821045,-1.296875,8.640625,1.109375
1664564221975,-0.7585449,-0.6194458,0.26556396,6.375,11.796875,-1.34375
1664564222006,-0.77734375,-0.6548462,0.24017334,2.375,2.578125,-0.328125
1664564222066,-0.7458496,-0.73101807,0.28826904,2.078125,-7.28125,-1.015625
1664564222096,-0.79711914,-0.58062744,0.29803467,2.640625,-4.78125,-4.59375
1664564222125,-0.79296875,-0.5161743,0.26483154,3.09375,-2.328125,-5.46875
1664564222186,-0.7363281,-0.5459595,0.2645874,-0.546875,-5.734375,-3.953125
1664564222217,-0.7602539,-0.5498657,0.22039795,-2.0625,3.984375,-5.296875
1664564222245,-0.75756836,-0.5342407,0.26068115,7.28125,4.765625,-4.46875
1664564222308,-0.6772461,-0.567688,0.2423706,-0.09375,2.390625,-5.09375
1664564222320,-0.62158203,-0.473938,0.20184326,5.28125,0.46875,-2.109375
1664564222366,-0.66015625,-0.42730713,0.24285889,-3.671875,1.90625,-0.625
1664564222426,-0.638916,-0.41900635,0.22625732,-0.1875,1.859375,3.375
1664564222440,-0.62060547,-0.41778564,0.21551514,-3.0,1.3125,6.921875
1664564222486,-0.748291,-0.4837036,0.2765503,-9.015625,4.015625,5.671875
1664564222546,-0.7260742,-0.52130127,0.29925537,-5.21875,2.953125,9.09375
1664564222562,-0.86743164,-0.55303955,0.3287964,-9.546875,3.40625,7.859375
1664564222606,-0.9001465,-0.6194458,0.37200928,-8.484375,1.40625,7.234375
1664564222636,-0.96484375,-0.5532837,0.3932495,-4.390625,1.515625,-0.328125
1664564222681,-0.9465332,-0.736145,0.33636475,-1.609375,-5.359375,-6.390625
1664564222726,-1.0690918,-0.7962036,0.45770264,15.1875,18.828125,-16.515625
1664564222755,-0.52563477,-0.85601807,0.57977295,32.546875,-4.21875,-5.703125
1664564222801,-1.0151367,-0.62872314,0.15814209,-56.96875,-1.90625,-9.65625
1664564222846,-1.1401367,-0.8218384,0.6256714,19.359375,-4.390625,-7.28125
1664564222876,-0.64208984,-0.6734009,0.3007202,11.09375,9.109375,-6.21875
1664564222921,-0.8322754,-0.767395,0.18011475,-5.15625,8.578125,-7.40625
1664564222966,-0.7199707,-0.6626587,0.24749756,13.390625,-1.234375,8.90625
1664564222995,-0.55566406,-0.48321533,0.23138428,0.828125,-1.25,6.09375
1664564223041,-0.57006836,-0.6062622,0.2838745,16.28125,2.375,7.71875
1664564223086,-0.54541016,-0.51275635,0.26922607,3.3125,-1.109375,0.0
1664564223115,-0.52124023,-0.45587158,0.15789795,-3.875,2.984375,-4.421875
1664564223161,-0.4321289,-0.32403564,0.41522217,7.8125,-6.34375,-4.40625
1664564223206,-0.48657227,-0.4121704,0.2609253,-20.15625,3.125,-8.234375
1664564223236,-0.5805664,-0.37017822,0.27288818,6.984375,-5.5,2.640625
1664564223280,-0.70336914,-0.8184204,0.29681396,-0.515625,-0.265625,4.421875
1664564223327,-0.89086914,-0.630188,0.4171753,10.078125,4.96875,-8.9375
1664564223355,-0.98828125,-0.5835571,0.50286865,-3.15625,-5.015625,-0.984375
1664564223386,-1.0852051,-0.9487915,0.3451538,-19.0625,6.6875,2.09375
1664564223445,-0.7976074,-0.97125244,0.23431396,-6.765625,-5.5,7.890625
1664564223475,-0.66748047,-0.70391846,0.20355225,-6.046875,-9.640625,4.734375
1664564223506,-0.8562012,-0.380188,0.3270874,-10.234375,4.078125,3.203125
1664564223565,-0.93725586,-0.8491821,0.27215576,-12.859375,-1.890625,9.28125
1664564223595,-0.8425293,-0.63116455,0.26556396,-2.328125,-11.734375,5.296875
1664564223626,-1.0214844,-0.6519165,0.36932373,-7.78125,2.109375,-2.9375
1664564223686,-0.814209,-0.6921997,0.24627686,8.0,2.078125,-0.421875
1664564223715,-0.673584,-0.62823486,0.15838623,1.5625,-7.90625,-1.296875
1664564223746,-0.6479492,-0.4920044,0.32977295,-4.859375,-11.484375,4.59375
1664564223806,-0.62231445,-0.44366455,0.1984253,-3.140625,-3.5625,9.421875
1664564223821,-0.51293945,-0.36236572,0.152771,-0.25,-1.96875,7.109375
1664564223865,-0.7092285,-0.4055786,0.22772217,-10.8125,10.203125,1.921875
1664564223926,-0.57543945,-0.42877197,0.17108154,-0.65625,3.171875,1.3125
1664564223941,-0.4946289,-0.3892212,0.387146,-0.265625,2.0,6.28125
1664564223986,-0.8276367,-0.57110596,0.29071045,-13.78125,6.25,4.4375
1664564224046,-0.80322266,-0.5105591,0.35369873,-3.234375,4.953125,2.0625
1664564224061,-0.9577637,-0.5120239,0.6415405,5.171875,2.609375,-6.03125
1664564224107,-1.1975098,-0.92974854,0.38323975,-15.046875,14.203125,-18.4375
1664564224136,-0.95410156,-0.75860596,0.39154053,25.40625,9.75,-19.359375
1664564224182,-0.7302246,-0.6992798,0.39715576,5.375,-4.234375,-14.15625
1664564224228,-0.7297363,-0.74835205,0.4208374,-20.6875,-11.953125,2.96875
1664564224256,-1.1677246,-0.9163208,0.39666748,-6.328125,-1.875,-9.328125
1664564224303,-0.73339844,-0.7151489,0.3078003,9.53125,-1.65625,6.171875
1664564224347,-0.86083984,-0.6939087,0.29364014,4.09375,-8.59375,2.125
1664564224377,-0.6887207,-0.72906494,0.3102417,9.609375,-13.859375,8.78125
1664564224421,-0.57373047,-0.53741455,0.23065186,6.5,-4.984375,10.671875
1664564224466,-0.5332031,-0.48272705,0.22894287,7.84375,-10.96875,13.84375
1664564224496,-0.5083008,-0.4397583,0.18695068,6.328125,-7.65625,10.0
1664564224543,-0.41064453,-0.2937622,0.21575928,4.75,-12.640625,18.96875
1664564224586,-0.39233398,-0.4883423,0.19354248,0.40625,-2.3125,-3.25
1664564224616,-0.64038086,-0.5774536,0.4039917,15.96875,8.34375,-5.4375
1664564224663,-0.60253906,-0.4866333,0.27288818,7.1875,3.203125,-2.71875
1664564224706,-0.7746582,-0.7456665,0.42694092,-5.40625,5.46875,-8.578125
1664564224736,-0.9379883,-0.6668091,0.5807495,-0.703125,6.125,-1.1875
1664564224828,-0.9169922,-1.1604614,0.2946167,-25.265625,-8.140625,2.5625
1664564224829,-0.7019043,-0.8550415,-0.06378174,-9.65625,-3.640625,7.40625
1664564224856,-0.8156738,-0.4463501,0.5988159,7.28125,0.625,2.03125
1664564224886,-1.3508301,-0.9685669,0.15765381,-25.640625,3.640625,2.234375
1664564224991,-0.72265625,-1.0410767,0.11102295,32.234375,-0.1875,10.453125
1664564224993,-0.77124023,-0.53204346,0.18621826,-17.296875,-31.734375,7.78125
1664564225005,-0.9069824,-0.69195557,0.28997803,3.609375,10.5,-2.421875
1664564225066,-0.6452637,-0.505188,0.0016479492,0.25,2.390625,-4.859375
1664564225096,-0.6743164,-0.49346924,0.41156006,-0.796875,-4.109375,2.34375
1664564225126,-0.64038086,-0.5054321,0.21600342,0.0,6.46875,4.453125
1664564225186,-0.6750488,-0.46392822,0.17059326,-6.484375,9.609375,1.765625
1664564225201,-0.51708984,-0.40020752,0.184021,6.765625,6.0625,0.1875
1664564225246,-0.57006836,-0.40582275,0.25360107,7.140625,12.234375,3.15625
1664564225306,-0.6369629,-0.52349854,0.20599365,-2.703125,6.296875,1.5625
1664564225321,-0.6928711,-0.5359497,0.25946045,-0.140625,8.390625,3.109375
1664564225366,-0.87353516,-0.5618286,0.41864014,-1.859375,9.453125,0.546875
1664564225427,-0.87060547,-0.62677,0.43597412,3.734375,10.65625,-4.09375
1664564225440,-1.0324707,-0.8948364,0.3781128,-7.234375,13.578125,-15.40625
1664564225487,-0.7648926,-0.87994385,0.29656982,28.828125,19.84375,-14.828125
1664564225546,-0.77978516,-0.8208618,0.465271,8.75,6.203125,-11.71875
1664564225561,-1.1035156,-0.9295044,0.38690186,-8.796875,6.203125,-7.0625
1664564225607,-0.79467773,-0.85601807,0.38104248,17.25,11.578125,-10.484375
1664564225636,-0.7648926,-0.81915283,0.2489624,-0.609375,1.109375,0.828125
1664564225681,-0.61938477,-0.70684814,0.27996826,19.921875,-0.53125,-0.984375
1664564225726,-0.5744629,-0.4993286,0.28826904,4.046875,-1.984375,3.75
1664564225756,-0.54907227,-0.5137329,0.2086792,10.125,1.921875,2.46875
1664564225801,-0.52246094,-0.5239868,0.20965576,15.109375,1.890625,0.609375
1664564225846,-0.5661621,-0.5767212,0.32000732,-2.078125,0.046875,-1.453125
1664564225876,-0.576416,-0.4734497,0.29486084,-2.84375,-2.0625,-2.203125
1664564225921,-0.576416,-0.456604,0.33099365,-1.703125,-5.78125,3.359375
1664564225966,-0.55566406,-0.5786743,0.2843628,0.921875,-3.84375,1.0
1664564225996,-0.73657227,-0.57159424,0.32757568,1.71875,0.328125,-8.21875
1664564226041,-0.8195801,-0.612854,0.40740967,4.78125,1.59375,-3.46875
1664564226086,-0.89501953,-0.62042236,0.47650146,-3.875,3.5625,-10.046875
1664564226115,-0.8496094,-0.5979614,0.49700928,-3.5,0.828125,-8.9375
1664564226161,-0.91967773,-0.85772705,0.31707764,-21.28125,3.703125,1.453125
1664564226206,-0.75341797,-0.83795166,0.06878662,-12.359375,1.5,5.828125
1664564226236,-0.57543945,-0.6253052,0.22698975,5.140625,-9.515625,4.421875
1664564226326,-0.9863281,-0.600647,0.42840576,-5.421875,11.6875,3.296875
1664564226328,-1.208252,-0.9282837,0.3336792,-6.296875,17.40625,7.5
1664564226356,-0.4128418,-0.6843872,0.15081787,28.09375,-22.90625,3.015625
1664564226387,-0.7097168,-0.64923096,0.5175171,-0.03125,-7.609375,6.5625
1664564226446,-0.7741699,-0.739563,0.1005249,0.703125,-2.265625,2.734375
1664564226476,-0.6376953,-0.68218994,0.2555542,7.28125,-21.65625,13.828125
1664564226507,-0.638916,-0.5757446,0.22943115,3.9375,-11.4375,8.921875
1664564226566,-0.64746094,-0.5178833,0.27386475,-1.78125,-5.234375,6.734375
1664564226596,-0.5888672,-0.4290161,0.17645264,-0.765625,-6.0625,4.65625
1664564226627,-0.6081543,-0.4102173,0.18206787,-9.0,2.171875,3.875
1664564226686,-0.5402832,-0.43804932,0.15496826,-2.390625,0.515625,4.296875
1664564226702,-0.5827637,-0.4866333,0.17596436,-8.0625,1.4375,2.625
1664564226746,-0.67626953,-0.5942993,0.33050537,1.046875,1.625,2.796875
1664564226806,-0.77001953,-0.6421509,0.34490967,-6.515625,-6.90625,-0.6875
1664564226821,-0.9189453,-0.6519165,0.47991943,-9.125,-0.109375,-4.765625
1664564226867,-1.1394043,-0.85894775,0.32318115,-18.59375,1.625,-15.46875
1664564226926,-0.8461914,-0.88726807,0.25164795,5.46875,16.9375,-25.859375
1664564226941,-0.66796875,-0.81915283,0.43255615,13.375,-1.46875,-8.6875
1664564226985,-1.0512695,-0.92633057,0.26190186,-26.953125,5.40625,-10.21875
1664564227046,-0.8691406,-0.84332275,0.43597412,5.421875,-3.953125,-8.5625
1664564227061,-0.814209,-0.7695923,0.27703857,-1.078125,9.0625,-8.1875
1664564227106,-0.8359375,-0.65875244,0.28240967,5.78125,-6.796875,1.640625
1664564227135,-0.5566406,-0.46514893,0.18426514,5.953125,-3.984375,5.203125
1664564227181,-0.48364258,-0.4661255,0.20672607,20.046875,-6.03125,8.265625
1664564227226,-0.5131836,-0.44732666,0.23480225,3.625,-6.4375,3.5
1664564227256,-0.49926758,-0.4907837,0.18988037,5.6875,-2.015625,6.4375
1664564227301,-0.44433594,-0.5142212,0.3632202,-2.15625,-9.390625,8.9375
1664564227346,-0.6894531,-0.4451294,0.35491943,-18.640625,-3.15625,-1.078125
1664564227376,-0.7351074,-0.4968872,0.31781006,-5.609375,10.234375,-3.90625
1664564227423,-0.77441406,-0.5195923,0.4611206,2.015625,8.75,-7.421875
1664564227466,-0.92041016,-0.55426025,0.45281982,-2.953125,12.140625,-13.609375
1664564227496,-0.99902344,-0.7354126,0.4015503,-7.828125,9.3125,-1.453125
1664564227541,-0.91015625,-1.0549927,0.25604248,-17.828125,0.296875,-1.15625
1664564227586,-0.7458496,-0.6760864,0.32635498,-3.046875,-9.578125,2.703125
1664564227615,-0.84277344,-0.55963135,0.37322998,-9.578125,0.546875,5.21875
1664564227661,-1.0620117,-0.87091064,0.34539795,-4.828125,1.53125,4.5
1664564227708,-0.83081055,-0.6043091,0.17840576,12.125,-2.359375,-2.09375
1664564227736,-0.91259766,-0.7268677,0.46600342,9.921875,6.546875,0.765625
1664564227783,-0.66064453,-0.7971802,0.2267456,14.671875,0.640625,3.21875
1664564227826,-0.62841797,-0.44903564,0.260437,-6.609375,-11.609375,4.390625
1664564227858,-0.66796875,-0.49053955,0.18328857,2.078125,0.140625,5.671875
1664564227886,-0.56640625,-0.47930908,0.19573975,12.75,0.6875,3.234375
1664564227947,-0.5251465,-0.38067627,0.19207764,5.796875,0.171875,0.5
1664564227976,-0.6455078,-0.34088135,0.3053589,1.296875,4.546875,6.890625
1664564228006,-0.67333984,-0.5281372,0.2506714,1.84375,8.21875,0.40625
1664564228066,-0.5529785,-0.52056885,0.2645874,-2.390625,-2.25,7.109375
1664564228096,-0.8811035,-0.48443604,0.43011475,-9.546875,16.40625,0.40625
1664564228126,-0.74853516,-0.6140747,0.3727417,3.125,5.046875,-5.34375
1664564228186,-0.9663086,-0.7671509,0.35076904,-9.125,-1.03125,-9.421875
1664564228201,-0.9499512,-0.86724854,0.418396,25.03125,9.234375,-14.75
1664564228247,-0.7663574,-0.70098877,0.34881592,2.484375,-0.59375,-12.671875
1664564228308,-0.7651367,-0.9656372,0.42767334,-2.625,-3.34375,3.671875
1664564228321,-1.0317383,-0.94073486,0.4389038,2.296875,-4.109375,-7.40625
1664564228367,-0.77319336,-0.74786377,0.42303467,11.96875,-4.328125,8.890625
1664564228426,-0.8708496,-0.97540283,0.26727295,-3.140625,-6.125,2.6875
1664564228441,-0.69506836,-0.62677,0.3143921,7.453125,-10.9375,4.96875
1664564228487,-0.54052734,-0.41363525,0.2164917,4.234375,-7.5625,13.5625
1664564228516,-0.46069336,-0.5823364,0.20721436,8.84375,-7.21875,5.46875
1664564228561,-0.5336914,-0.53375244,0.21746826,2.578125,-6.578125,8.234375
1664564228606,-0.564209,-0.5354614,0.19500732,3.453125,-3.703125,6.9375
1664564228636,-0.5144043,-0.4758911,0.25872803,9.03125,-5.609375,3.75
1664564228681,-0.5930176,-0.52911377,0.3065796,0.71875,2.375,-1.46875
1664564228726,-0.5812988,-0.57769775,0.24969482,-4.484375,-4.203125,1.484375
1664564228755,-0.66845703,-0.7197876,0.3727417,-3.734375,-3.921875,1.921875
1664564228801,-0.8515625,-0.7424927,0.355896,-5.453125,4.859375,-5.6875
1664564228846,-0.7766113,-0.6272583,0.42401123,5.03125,-16.203125,3.3125
1664564228875,-0.79467773,-0.75177,0.46795654,-2.296875,0.203125,-4.4375
1664564228921,-0.9902344,-0.94073486,0.3427124,-19.171875,-6.0625,-0.171875
1664564228966,-0.66845703,-0.78448486,0.093933105,-13.6875,-9.046875,9.921875
1664564228996,-0.58154297,-0.62213135,0.1786499,-6.5625,-9.109375,11.5625
1664564229041,-0.84887695,-0.630188,0.21356201,-3.796875,-1.953125,9.015625
1664564229086,-1.0656738,-0.90167236,0.17840576,-5.171875,3.578125,-1.125
1664564229115,-0.7680664,-0.70025635,0.12322998,15.4375,-8.15625,2.9375
1664564229161,-0.9069824,-0.7752075,0.35906982,-1.0625,9.265625,0.4375
1664564229206,-0.6904297,-0.7280884,0.07269287,2.609375,-0.984375,0.75
1664564229236,-0.5673828,-0.6062622,0.1281128,3.34375,-6.515625,2.59375
1664564229267,-0.5979004,-0.5354614,0.1786499,4.265625,-6.34375,5.765625
1664564229327,-0.44506836,-0.4746704,0.04071045,-7.28125,-0.375,-0.71875
1664564229358,-0.4177246,-0.39898682,0.16131592,5.171875,-9.5625,2.6875
1664564229386,-0.5336914,-0.30377197,0.09637451,-7.6875,2.6875,5.484375
1664564229446,-0.73168945,-0.43511963,0.1918335,-16.046875,-8.515625,1.375
1664564229476,-0.8400879,-0.7617798,0.28363037,-17.765625,0.28125,2.328125
1664564229507,-0.92456055,-0.7776489,0.39642334,2.984375,1.34375,-1.6875
1664564229566,-0.907959,-0.7149048,0.33807373,-2.65625,-0.53125,-5.921875
1664564229596,-1.2258301,-0.88238525,0.37127686,-0.859375,20.453125,-12.4375
1664564229626,-0.8232422,-0.85479736,0.33758545,10.0,19.59375,-13.171875
1664564229687,-0.6320801,-0.81451416,0.25238037,7.90625,10.328125,-11.171875
1664564229700,-0.9650879,-0.7966919,0.24969482,-26.359375,-8.25,-2.71875
1664564229746,-0.8083496,-1.0315552,0.4225464,30.453125,7.984375,-7.578125
1664564229806,-0.6418457,-0.7300415,0.1486206,-14.015625,9.9375,-4.96875
1664564229821,-0.8642578,-0.72784424,0.23577881,-5.328125,-13.265625,0.875
1664564229866,-0.6020508,-0.66973877,0.24456787,20.34375,9.359375,-3.3125
1664564229926,-0.5703125,-0.51348877,0.23431396,9.09375,4.640625,-1.53125
1664564229941,-0.64941406,-0.58306885,0.15252686,9.09375,8.421875,-2.3125
1664564229986,-0.49902344,-0.55914307,0.22698975,19.046875,5.328125,-3.125
1664564230018,-0.47753906,-0.458313,0.21551514,15.78125,3.625,4.9375
1664564230061,-0.48413086,-0.5803833,0.2567749,-2.9375,-0.59375,4.046875
1664564230106,-0.5349121,-0.34820557,0.32684326,-10.625,1.40625,-1.96875
1664564230138,-0.5822754,-0.56500244,0.27044678,9.859375,4.65625,1.234375
1664564230181,-0.66748047,-0.6795044,0.31536865,-10.796875,-6.921875,-4.09375
1664564230226,-0.8574219,-0.5991821,0.4393921,2.234375,-4.328125,-4.984375
1664564230256,-0.8684082,-0.6404419,0.46795654,4.125,0.578125,-3.5625
1664564230301,-0.96606445,-0.7798462,0.4701538,-9.78125,-0.8125,-2.984375
1664564230376,-0.90722656,-1.2478638,0.3739624,-4.59375,9.25,14.65625
1664564230378,-0.6472168,-0.74542236,-0.101867676,4.8125,11.53125,7.125
1664564230422,-0.9543457,-0.50616455,0.8383179,-17.484375,-24.34375,16.203125
1664564230466,-0.876709,-1.1514282,0.10345459,1.78125,2.25,12.109375
1664564230496,-0.7717285,-0.67974854,0.26068115,-10.40625,-25.453125,1.796875
1664564230542,-0.8864746,-0.7744751,0.2765503,-8.703125,-2.5625,0.21875
1664564230586,-0.6437988,-0.6970825,0.14202881,7.140625,3.828125,1.671875
1664564230616,-0.62597656,-0.57940674,0.12860107,6.265625,-8.671875,5.609375
1664564230661,-0.63183594,-0.57696533,0.1876831,-3.71875,-9.03125,1.9375
1664564230706,-0.6608887,-0.5745239,0.17230225,5.1875,-1.65625,3.078125
1664564230738,-0.6936035,-0.57891846,0.20721436,2.671875,3.734375,-2.140625
1664564230766,-0.62280273,-0.4668579,0.18060303,-8.921875,9.328125,-4.796875
1664564230826,-0.63842773,-0.4915161,0.2904663,1.171875,5.796875,-0.75
1664564230856,-0.56640625,-0.48199463,0.17230225,-7.171875,14.484375,-3.984375
1664564230886,-0.6188965,-0.5401001,0.2230835,-3.71875,8.53125,-1.25
1664564230946,-0.7692871,-0.6038208,0.309021,-2.875,16.71875,-2.515625
1664564230976,-0.8483887,-0.694397,0.38079834,-4.453125,13.390625,-3.75
1664564231008,-0.798584,-0.70513916,0.45941162,-6.734375,2.59375,1.078125
1664564231067,-0.9025879,-0.67388916,0.47625732,0.25,6.203125,-4.015625
1664564231096,-0.9104004,-0.8062134,0.3192749,-5.953125,0.578125,-11.234375
1664564231126,-0.7553711,-0.8447876,0.277771,9.875,-6.203125,-4.21875
1664564231187,-0.62890625,-0.6880493,0.27850342,21.46875,-2.90625,1.015625
1664564231200,-0.7922363,-0.9209595,0.28216553,19.734375,-3.734375,2.28125
1664564231247,-0.80029297,-0.9229126,0.33026123,-1.984375,-1.984375,-3.71875
1664564231306,-0.8354492,-0.76031494,0.25750732,8.625,2.234375,-0.828125
1664564231321,-0.65405273,-0.68463135,0.20819092,6.9375,1.109375,0.671875
1664564231366,-0.6184082,-0.53619385,0.2255249,4.4375,-3.046875,4.6875
1664564231427,-0.4963379,-0.5383911,0.1605835,20.03125,-2.25,6.921875
1664564231440,-0.5554199,-0.56988525,0.168396,10.65625,-0.640625,1.890625
1664564231487,-0.5263672,-0.5977173,0.27947998,9.65625,-1.1875,-0.8125
1664564231516,-0.40844727,-0.35479736,0.21136475,3.6875,4.9375,5.53125
1664564231561,-0.5185547,-0.585022,0.31463623,-2.9375,-1.09375,-5.53125
1664564231608,-0.7036133,-0.6177368,0.35247803,-4.6875,3.984375,-8.171875
1664564231636,-0.7158203,-0.63604736,0.31414795,3.765625,4.515625,-6.0
1664564231681,-0.88305664,-0.7229614,0.4694214,-8.578125,-4.859375,-10.4375
1664564231727,-0.85253906,-0.6880493,0.32977295,-16.84375,9.75,-15.390625
1664564231756,-1.0092773,-0.96051025,0.46600342,-7.40625,2.796875,1.296875
1664564231802,-0.7067871,-0.88409424,0.17376709,-11.078125,-4.1875,8.34375
1664564231847,-0.685791,-0.82891846,0.1473999,-4.3125,-19.96875,11.578125
1664564231878,-1.0161133,-0.64556885,0.32244873,-0.640625,8.15625,14.0
1664564231921,-0.9995117,-0.7473755,0.10321045,14.25,3.875,4.5625
1664564231966,-0.58935547,-0.7979126,0.37176514,5.03125,-9.671875,7.921875
1664564231996,-1.0129395,-0.68463135,0.26507568,-6.578125,3.59375,1.90625
1664564232041,-0.65722656,-0.6826782,0.13763428,17.34375,5.734375,0.78125
1664564232085,-0.5710449,-0.5928345,0.19915771,9.84375,4.390625,5.046875
1664564232116,-0.57421875,-0.5420532,0.19329834,1.8125,0.4375,4.890625
1664564232161,-0.5270996,-0.46636963,0.1071167,4.84375,1.984375,2.703125
1664564232206,-0.43676758,-0.4397583,0.07635498,7.203125,6.25,-4.28125
1664564232236,-0.40625,-0.37921143,0.11956787,2.171875,-4.15625,4.28125
1664564232266,-0.4350586,-0.5418091,0.11859131,-3.625,-7.46875,20.921875
1664564232326,-0.88378906,-0.53448486,0.33026123,-24.8125,-2.625,5.265625
1664564232355,-0.95288086,-0.6087036,0.26727295,-13.109375,3.171875,-10.1875
1664564232386,-0.7878418,-0.7888794,0.37322998,3.234375,-8.921875,-10.515625
1664564232446,-1.0058594,-1.0962524,0.24603271,-3.125,31.375,-20.6875
1664564232476,-0.7150879,-1.0569458,0.24676514,32.484375,4.359375,-14.953125
1664564232506,-0.7636719,-0.8152466,0.649353,-22.25,-17.265625,-5.484375
1664564232566,-1.1513672,-1.1155396,0.42132568,-18.6875,21.34375,-19.96875
1664564232581,-0.7854004,-0.88116455,0.22503662,19.09375,14.625,-22.828125
1664564232627,-0.65405273,-0.880188,0.28826904,-4.3125,4.515625,3.71875
1664564232686,-0.5722656,-0.7263794,0.19915771,2.8125,-7.796875,-1.890625
1664564232701,-0.57910156,-0.44854736,0.30145264,-18.0625,-0.53125,1.75
1664564232746,-0.48828125,-0.4998169,0.22747803,19.875,1.0,4.765625
1664564232806,-0.4716797,-0.5105591,0.24627686,8.671875,1.4375,-3.046875
1664564232821,-0.5605469,-0.49005127,0.33392334,4.796875,-0.140625,-4.578125
1664564232866,-0.5852051,-0.59869385,0.27386475,5.828125,6.390625,-5.4375
1664564232926,-0.6022949,-0.45318604,0.39105225,-15.3125,-2.375,-7.78125
1664564232941,-0.5871582,-0.45611572,0.3258667,8.984375,2.21875,1.03125
1664564232987,-0.67822266,-0.6929321,0.39544678,-24.234375,-8.265625,0.625
1664564233016,-0.78930664,-0.5928345,0.41326904,0.015625,-1.703125,-7.890625
1664564233061,-0.83154297,-0.6506958,0.46673584,-10.34375,3.109375,-7.984375
1664564233106,-1.0236816,-0.8010864,0.40447998,-12.046875,-0.484375,-0.859375
1664564233136,-0.7265625,-0.9048462,0.35443115,-3.421875,-0.765625,5.703125
1664564233181,-0.67041016,-0.65289307,0.1906128,-18.640625,-12.1875,1.328125
1664564233227,-0.9562988,-0.42510986,0.387146,-8.546875,-3.71875,5.578125
1664564233258,-1.1728516,-0.90216064,0.25994873,-9.84375,16.4375,9.59375
1664564233301,-0.66674805,-0.81134033,0.15985107,18.65625,1.203125,-1.328125
1664564233348,-0.9970703,-0.52056885,0.51556396,2.703125,-2.375,2.265625
1664564233376,-0.72631836,-0.85284424,0.2399292,1.765625,-7.296875,4.8125
1664564233422,-0.6479492,-0.5315552,0.25946045,12.921875,-13.265625,11.078125
1664564233466,-0.66186523,-0.5022583,0.24554443,-4.640625,-7.203125,11.90625
1664564233496,-0.6503906,-0.51812744,0.19696045,7.21875,-6.796875,6.1875
1664564233541,-0.5708008,-0.4829712,0.2062378,10.546875,-4.984375,1.5625
1664564233586,-0.66064453,-0.5220337,0.24310303,-8.078125,1.53125,-3.03125
1664564233617,-0.6401367,-0.41168213,0.20599365,-6.046875,7.671875,-3.234375
1664564233662,-0.6064453,-0.4505005,0.26116943,-2.078125,13.140625,1.109375
1664564233706,-0.7595215,-0.57598877,0.28948975,-6.09375,10.609375,-2.15625
1664564233736,-0.6635742,-0.5823364,0.25335693,15.0625,4.921875,-8.328125
1664564233766,-0.93481445,-0.5444946,0.4533081,-1.703125,12.359375,-4.671875
1664564233826,-0.9108887,-0.50494385,0.4118042,0.25,11.359375,-7.984375
1664564233857,-0.75756836,-0.53009033,0.50531006,0.25,9.859375,-8.078125
1664564233886,-1.166748,-0.7451782,0.47528076,-9.234375,17.34375,-20.609375
1664564233947,-0.78222656,-0.94415283,0.21014404,9.1875,5.359375,-19.125
1664564233976,-0.6862793,-0.8374634,0.2789917,41.359375,4.640625,-8.765625
1664564234006,-0.7910156,-0.7029419,0.48797607,-7.609375,-1.859375,4.125
1664564234066,-0.8586426,-0.84625244,0.3607788,8.140625,2.015625,-6.046875
1664564234081,-0.9001465,-0.78204346,0.4401245,-3.375,2.3125,-3.453125
1664564234127,-0.7595215,-0.62750244,0.25457764,12.328125,-0.96875,7.5625
1664564234187,-0.64331055,-0.6790161,0.20404053,6.96875,-4.703125,4.4375
1664564234201,-0.59814453,-0.6201782,0.37322998,-0.265625,-9.375,10.484375
1664564234246,-0.5476074,-0.569397,0.2423706,-0.265625,-4.203125,10.875
1664564234309,-0.57592773,-0.4915161,0.28900146,-0.78125,-8.171875,1.203125
1664564234321,-0.61450195,-0.49664307,0.2892456,0.328125,-9.21875,2.734375
1664564234367,-0.47924805,-0.4866333,0.3217163,-8.0625,-8.75,-0.140625
1664564234427,-0.5349121,-0.47369385,0.3348999,-9.375,-6.484375,1.109375
1664564234441,-0.57910156,-0.5161743,0.26141357,-13.421875,-9.65625,8.234375
1664564234487,-0.6452637,-0.53375244,0.34075928,-1.125,-7.953125,1.03125
1664564234516,-0.82055664,-0.5889282,0.4220581,-7.390625,-5.453125,-2.84375
1664564234561,-0.8183594,-0.63653564,0.49261475,-6.140625,-1.796875,-4.453125
1664564234606,-1.0805664,-1.0784302,0.29315186,-37.640625,-17.328125,3.140625
1664564234636,-0.7248535,-0.93218994,0.036071777,-21.328125,5.03125,1.234375
1664564234681,-0.9680176,-0.64190674,0.29974365,0.921875,-38.296875,25.109375
1664564234726,-1.0437012,-0.6668091,0.1408081,1.03125,11.65625,2.828125
1664564234756,-0.7944336,-0.84039307,0.41033936,0.734375,-10.171875,3.84375
1664564234801,-0.79956055,-0.72052,0.3287964,-5.171875,-8.65625,5.765625
1664564234846,-0.814209,-0.60284424,0.22503662,-9.640625,-6.234375,0.328125
1664564234876,-0.69506836,-0.6174927,0.21063232,6.234375,-1.40625,3.53125
1664564234921,-0.61694336,-0.52471924,0.23919678,-5.0,-10.4375,1.71875
1664564234966,-0.673584,-0.45928955,0.24188232,-4.5625,-2.390625,-0.90625
1664564234996,-0.6801758,-0.48760986,0.1642456,-5.234375,7.34375,-4.875
1664564235041,-0.6789551,-0.47247314,0.23773193,-14.640625,6.390625,-12.953125
1664564235086,-0.57592773,-0.2300415,0.27850342,2.703125,10.0,-10.609375
1664564235116,-0.65600586,-0.36895752,0.34954834,7.546875,15.921875,-2.15625
1664564235161,-0.796875,-0.43634033,0.18060303,-2.40625,21.921875,-4.5625
1664564235206,-0.65600586,-0.5459595,0.35687256,16.421875,13.203125,-0.53125
1664564235236,-0.8581543,-0.53790283,0.4899292,-0.78125,17.78125,-4.6875
1664564235268,-0.8781738,-0.5432739,0.42401123,3.28125,18.046875,-8.921875
1664564235326,-1.170166,-0.6704712,0.47479248,-5.96875,21.671875,-25.84375
1664564235356,-0.87719727,-0.8858032,0.49676514,21.171875,22.984375,-14.796875
1664564235386,-0.64746094,-1.0584106,0.4274292,-1.25,-4.0625,-1.234375
1664564235447,-1.222168,-0.6692505,0.48773193,-4.4375,6.96875,-22.1875
1664564235476,-0.907959,-0.6531372,0.40740967,23.09375,5.140625,2.296875
1664564235507,-0.61572266,-0.86724854,0.45965576,-3.3125,-6.328125,6.453125
1664564235566,-0.8059082,-0.59869385,0.30828857,2.90625,1.359375,5.09375
1664564235581,-0.59765625,-0.46051025,0.24749756,16.109375,-8.1875,4.625
1664564235627,-0.5793457,-0.56256104,0.35638428,11.359375,-12.40625,9.21875
1664564235686,-0.5593262,-0.5791626,0.3192749,12.5,-9.171875,9.640625
1664564235703,-0.5673828,-0.5112915,0.25897217,-0.625,-5.0,9.109375
1664564235746,-0.6682129,-0.38897705,0.34588623,-0.75,-5.28125,0.609375
1664564235806,-0.5,-0.37823486,0.33831787,17.9375,-10.15625,-0.25
1664564235821,-0.4489746,-0.5198364,0.31243896,-1.609375,-6.0,2.578125
1664564235868,-0.6315918,-0.5112915,0.30975342,10.25,-7.015625,8.15625
1664564235926,-0.77124023,-0.6358032,0.38739014,11.625,-1.484375,1.328125
1664564235942,-0.94873047,-0.61505127,0.48284912,3.734375,6.328125,-7.21875
1664564235986,-0.8708496,-0.62945557,0.45037842,1.5625,3.125,-8.328125
1664564236016,-1.0068359,-0.9920044,0.26141357,-20.359375,4.09375,3.0625
1664564236061,-0.6652832,-0.8682251,0.31292725,-10.609375,-1.453125,-0.453125
1664564236106,-0.7705078,-0.5117798,0.22406006,-5.875,-0.53125,4.328125
1664564236136,-1.114502,-0.8320923,0.28533936,-0.046875,7.859375,12.171875
1664564236195,-0.69555664,-0.847229,0.21844482,-4.0,-8.1875,4.34375
1664564236227,-1.1264648,-0.56207275,0.45965576,18.625,-0.15625,-2.453125
1664564236255,-0.7211914,-0.741272,0.26287842,7.265625,-4.75,1.84375
1664564236302,-0.532959,-0.5479126,0.18109131,7.984375,-12.46875,9.140625
1664564236346,-0.6621094,-0.61602783,0.19378662,12.421875,-8.0,11.609375
1664564236377,-0.62353516,-0.53790283,0.14154053,7.375,-10.625,8.171875
1664564236422,-0.61376953,-0.5606079,0.17156982,10.328125,-6.65625,-1.578125
1664564236466,-0.65844727,-0.44171143,0.24993896,-11.421875,0.3125,-0.8125
1664564236496,-0.6279297,-0.43389893,0.21600342,-5.109375,13.03125,-0.671875
1664564236542,-0.4987793,-0.46343994,0.16448975,4.375,4.390625,2.09375
1664564236586,-0.64331055,-0.49664307,0.1708374,0.953125,17.859375,3.71875
1664564236616,-0.74853516,-0.58135986,0.28338623,11.578125,5.234375,4.421875
1664564236646,-0.7145996,-0.58843994,0.3102417,-1.828125,2.078125,0.34375
1664564236706,-0.92578125,-0.60601807,0.49163818,-2.8125,8.609375,-3.953125
1664564236739,-0.9165039,-0.6616821,0.40374756,-5.828125,7.28125,-13.0
1664564236766,-1.029541,-0.91485596,0.29901123,-7.34375,7.015625,-20.265625
1664564236828,-0.79345703,-0.8989868,0.18109131,15.78125,8.421875,-10.109375
1664564236856,-0.7553711,-1.1043091,0.3209839,13.796875,-2.296875,-2.828125
1664564236886,-0.96069336,-0.72320557,0.37054443,-8.640625,-1.25,0.5
1664564236947,-0.9248047,-0.9163208,0.3307495,-2.140625,2.546875,-3.296875
1664564236976,-0.70166016,-0.7703247,0.19036865,5.171875,0.53125,6.015625
1664564237008,-0.548584,-0.57037354,0.15545654,1.234375,-7.734375,7.59375
1664564237067,-0.58984375,-0.5874634,0.26434326,13.453125,-5.6875,10.890625
1664564237081,-0.44750977,-0.5215454,0.17523193,-2.4375,-6.96875,6.234375
1664564237127,-0.43481445,-0.5508423,0.17938232,0.90625,-1.375,2.90625
1664564237187,-0.41967773,-0.3826294,0.17523193,10.71875,-6.015625,11.0
1664564237201,-0.4387207,-0.6296997,0.2333374,-2.4375,-9.015625,-0.140625
1664564237248,-0.6035156,-0.5071411,0.27386475,-6.984375,-1.3125,-2.328125
1664564237306,-0.73828125,-0.7346802,0.30560303,-6.15625,-5.09375,-0.84375
1664564237321,-0.90234375,-0.69781494,0.44866943,-9.3125,-2.59375,-11.890625
1664564237366,-0.83154297,-0.70098877,0.3793335,-12.703125,-0.4375,-10.40625
1664564237396,-0.93310547,-1.0652466,0.19598389,-32.578125,-3.5,1.203125
1664564237441,-0.67285156,-0.99420166,0.152771,-24.265625,-7.65625,-2.09375
1664564237486,-1.1027832,-0.66656494,0.20062256,-18.3125,-12.4375,13.96875
1664564237516,-0.9304199,-0.66656494,0.19525146,23.859375,2.421875,3.640625
1664564237561,-0.7937012,-0.89923096,0.29779053,-17.671875,-5.359375,7.578125
1664564237606,-0.9345703,-0.8496704,0.23138428,-1.921875,-7.21875,8.28125
1664564237636,-0.75683594,-0.61602783,0.1630249,9.078125,-2.765625,-0.109375
1664564237681,-0.73706055,-0.65753174,0.20770264,7.609375,2.3125,1.421875
1664564237726,-0.579834,-0.5750122,0.1630249,10.78125,-7.15625,6.6875
1664564237756,-0.5925293,-0.565979,0.16986084,0.5625,-2.890625,2.828125
1664564237801,-0.5822754,-0.56207275,0.16278076,2.078125,-6.125,2.421875
1664564237846,-0.59228516,-0.49249268,0.20819092,1.140625,-4.46875,-0.75
1664564237876,-0.5539551,-0.3711548,0.14813232,2.25,1.65625,-1.171875
1664564237921,-0.58154297,-0.42877197,0.19378662,0.109375,1.484375,5.15625
1664564237966,-0.65771484,-0.5281372,0.20062256,-13.25,0.296875,-1.90625
1664564237996,-0.76708984,-0.64727783,0.22625732,5.78125,4.03125,-1.28125
1664564238042,-0.84643555,-0.6721802,0.33514404,-4.5625,6.453125,-0.640625
1664564238086,-0.8769531,-0.6511841,0.432312,-3.953125,-0.640625,-0.53125
1664564238118,-0.90844727,-0.68341064,0.322937,-10.421875,1.890625,-6.875
1664564238146,-0.92285156,-0.88897705,0.25604248,-11.9375,-1.5,-12.90625
1664564238191,-0.8305664,-0.7485962,0.23236084,20.0625,25.234375,-18.125
1664564238236,-0.7734375,-0.73028564,0.3348999,10.03125,10.296875,-11.078125
1664564238267,-0.9250488,-1.0730591,0.22064209,1.359375,18.609375,-18.03125
1664564238326,-0.87158203,-0.7937622,0.35882568,-18.46875,-5.71875,-6.765625
1664564238356,-0.69970703,-0.7041626,0.24871826,21.390625,6.640625,9.90625
1664564238389,-0.71875,-0.79693604,0.27313232,-12.546875,-2.96875,-2.4375
1664564238449,-0.5905762,-0.51153564,0.2098999,4.671875,-1.25,1.421875
1664564238475,-0.5390625,-0.44610596,0.25579834,3.6875,-2.828125,4.265625
1664564238506,-0.5012207,-0.56817627,0.23602295,13.71875,-4.125,2.8125
1664564238566,-0.5078125,-0.4907837,0.309021,-13.28125,0.96875,-4.71875
1664564238581,-0.564209,-0.42315674,0.3554077,0.109375,-9.015625,5.625
1664564238627,-0.5859375,-0.54693604,0.21868896,-11.984375,-7.78125,8.125
1664564238686,-0.60595703,-0.5618286,0.3131714,15.21875,-8.09375,7.796875
1664564238701,-0.72998047,-0.62628174,0.37322998,4.75,-7.171875,4.34375
1664564238748,-0.87939453,-0.6235962,0.46453857,-0.71875,-2.6875,-6.359375
1664564238806,-0.84521484,-0.54693604,0.43597412,1.25,3.765625,-8.25
1664564238822,-0.9025879,-0.7798462,0.4244995,-17.546875,7.0,-7.9375
1664564238866,-0.95996094,-1.2073364,0.30755615,-22.875,21.421875,-0.171875
1664564238897,-0.5270996,-0.8555298,-0.08428955,8.234375,7.4375,4.375
1664564238941,-0.9343262,-0.26348877,0.8234253,-74.15625,-33.765625,6.328125
1664564238986,-1.2087402,-1.041565,0.21990967,-5.90625,17.46875,11.28125
1664564239016,-0.6972656,-1.022522,0.011657715,38.15625,-13.546875,4.4375
1664564239062,-1.0651855,-0.3394165,0.64398193,-40.90625,-14.25,-6.703125
1664564239107,-0.8317871,-0.7251587,0.2526245,16.0,-2.40625,4.828125
1664564239136,-0.62646484,-0.55792236,0.08880615,12.25,0.921875,9.59375
1664564239182,-0.60791016,-0.39093018,0.33026123,5.21875,-7.953125,5.390625
1664564239227,-0.5871582,-0.5437622,0.21234131,-1.9375,1.0625,5.15625
1664564239255,-0.64819336,-0.5725708,0.22625732,-11.890625,8.703125,-0.578125
1664564239301,-0.6022949,-0.43927002,0.18963623,-7.21875,13.25,-3.25
1664564239346,-0.67529297,-0.45880127,0.32806396,-4.21875,10.125,-2.0
1664564239376,-0.64086914,-0.49005127,0.34051514,-1.421875,11.46875,-4.578125
1664564239421,-0.63549805,-0.53619385,0.24749756,2.75,6.703125,0.640625
1664564239466,-0.7324219,-0.567688,0.4147339,-5.59375,8.25,2.765625
1664564239496,-0.8027344,-0.5767212,0.45477295,-3.546875,6.984375,-1.09375
1664564239541,-0.8588867,-0.49468994,0.45281982,1.453125,9.578125,-12.390625
1664564239586,-0.9121094,-0.7920532,0.4232788,3.609375,-5.03125,-18.59375
1664564239616,-0.8586426,-0.9915161,0.2506714,7.953125,8.859375,-18.296875
1664564239646,-0.7805176,-0.91363525,0.4401245,12.3125,-0.328125,-8.921875
1664564239706,-0.95581055,-0.62701416,0.37078857,5.875,2.25,-1.1875
1664564239736,-0.8881836,-0.833313,0.4286499,2.46875,-1.09375,-2.921875
1664564239766,-0.7348633,-0.72857666,0.291687,11.375,-2.40625,4.84375
1664564239826,-0.62475586,-0.5930786,0.2850952,8.109375,-2.046875,1.359375
1664564239858,-0.6257324,-0.54400635,0.24749756,10.671875,-4.296875,3.015625
1664564239886,-0.49243164,-0.4968872,0.27069092,10.234375,-4.109375,6.53125
1664564239948,-0.5046387,-0.50616455,0.27581787,1.296875,-5.21875,5.0
1664564239976,-0.50927734,-0.49957275,0.25823975,1.125,-7.78125,8.140625
1664564240006,-0.5,-0.51690674,0.38104248,7.40625,-9.1875,5.0
1664564240066,-0.6376953,-0.50738525,0.19891357,-1.984375,2.3125,3.703125
1664564240126,-0.5673828,-0.5171509,0.36566162,18.40625,-16.921875,7.25
1664564240128,-0.7607422,-0.64678955,0.35882568,0.546875,-2.65625,-1.234375
1664564240187,-0.78222656,-0.6626587,0.3612671,1.984375,-4.6875,1.96875
1664564240202,-1.0339355,-0.76348877,0.49334717,-6.578125,11.453125,-0.140625
1664564240246,-0.9016113,-1.1843872,0.32855225,3.78125,-1.96875,6.046875
1664564240307,-0.6677246,-0.8208618,-0.039855957,-9.03125,-5.5625,13.875
1664564240321,-0.87353516,-0.6067505,0.39471436,-7.328125,7.3125,13.09375
1664564240366,-0.9560547,-0.9324341,0.2033081,-2.515625,3.8125,-1.203125
1664564240396,-0.74316406,-0.8936157,0.15203857,8.03125,-5.390625,-0.625
1664564240442,-0.8310547,-0.63482666,0.43597412,-12.796875,-7.5,-3.5625
1664564240487,-0.7939453,-0.659729,0.20892334,-2.65625,7.84375,-7.125
1664564240516,-0.68310547,-0.61505127,0.16595459,10.5,4.6875,-2.1875
1664564240561,-0.6364746,-0.50567627,0.22625732,1.375,-11.140625,5.28125
1664564240606,-0.6220703,-0.5557251,0.24188232,-2.140625,2.015625,-1.09375
1664564240636,-0.5961914,-0.49176025,0.18988037,3.6875,3.546875,-1.921875
1664564240681,-0.5810547,-0.38433838,0.16033936,-8.6875,3.671875,-1.0
1664564240726,-0.5671387,-0.39630127,0.21942139,2.21875,8.71875,0.5
1664564240756,-0.5864258,-0.5046997,0.18109131,-2.046875,1.625,1.46875
1664564240801,-0.6838379,-0.56378174,0.21722412,6.78125,8.46875,2.234375
1664564240845,-0.78930664,-0.6043091,0.29974365,10.28125,6.359375,0.546875
1664564240876,-0.9584961,-0.5991821,0.42474365,-7.5625,9.515625,-6.21875
1664564240921,-0.99609375,-0.8196411,0.3065796,-7.84375,8.3125,-22.234375
1664564240966,-0.7097168,-0.89678955,0.2772827,20.609375,10.21875,-15.75
1664564240996,-0.8654785,-0.8477173,0.2814331,3.46875,13.234375,-15.015625
1664564241041,-0.76538086,-0.99346924,0.47625732,4.78125,11.5625,-18.609375
1664564241086,-1.0725098,-0.928772,0.4003296,-9.171875,4.1875,-13.703125
1664564241116,-0.92944336,-0.83380127,0.40057373,12.25,7.796875,-10.640625
1664564241147,-0.65405273,-0.6074829,0.20697021,-4.421875,-3.515625,4.828125
1664564241206,-0.6345215,-0.52178955,0.24212646,-3.90625,-9.390625,6.296875
1664564241236,-0.57543945,-0.44171143,0.2616577,0.765625,-4.765625,7.734375
1664564241266,-0.4638672,-0.53619385,0.26605225,10.859375,-1.578125,9.625
1664564241326,-0.5349121,-0.4788208,0.28338623,-7.046875,-7.484375,6.375
1664564241356,-0.59375,-0.4824829,0.33270264,2.703125,-2.0,1.421875
1664564241387,-0.53100586,-0.52008057,0.32122803,0.515625,-4.203125,3.71875
1664564241447,-0.6801758,-0.661438,0.31219482,1.609375,-1.65625,4.0625
1664564241461,-0.78466797,-0.6382446,0.371521,0.296875,-3.609375,-0.484375
1664564241508,-0.8330078,-0.597229,0.4232788,4.09375,-5.546875,-3.90625
1664564241566,-0.83374023,-0.5588989,0.38031006,-14.28125,2.3125,-12.890625
1664564241581,-0.8095703,-0.6646118,0.36712646,-19.90625,-6.71875,6.171875
1664564241626,-0.7475586,-0.8718872,0.19403076,-20.171875,2.578125,1.234375
1664564241686,-0.8161621,-0.7451782,0.11224365,-7.90625,-1.203125,7.28125
1664564241703,-1.2524414,-0.7683716,0.4022827,-10.875,9.609375,2.015625
1664564241747,-0.70751953,-0.7197876,0.4315796,-4.671875,-4.6875,2.921875
1664564241822,-1.076416,-0.7876587,0.38739014,3.6875,10.0625,4.1875
1664564241823,-0.748291,-0.8320923,0.1864624,14.5,-5.21875,-0.28125
1664564241869,-0.5834961,-0.5354614,0.44354248,-4.28125,-12.71875,7.453125
1664564241896,-0.6594238,-0.5708618,0.23065186,-8.109375,-10.828125,10.65625
1664564241941,-0.67211914,-0.45562744,0.2592163,7.375,-5.03125,6.984375
1664564241986,-0.6647949,-0.4175415,0.25238037,10.703125,-3.109375,1.734375
1664564242016,-0.65600586,-0.49127197,0.30047607,2.765625,-1.328125,-2.75
1664564242061,-0.6152344,-0.4336548,0.21820068,-7.15625,7.296875,-3.328125
1664564242107,-0.6604004,-0.37286377,0.3427124,12.78125,-1.078125,1.40625
1664564242138,-0.5419922,-0.5215454,0.19207764,-1.484375,0.65625,3.484375
1664564242181,-0.7841797,-0.4397583,0.33953857,-7.375,2.9375,5.5625
1664564242226,-0.8041992,-0.56207275,0.28729248,2.8125,-1.734375,-3.53125
1664564242256,-0.8930664,-0.48809814,0.3522339,-7.390625,-0.390625,-2.5
1664564242301,-0.9128418,-0.7505493,0.24847412,-12.53125,-13.59375,-11.375
1664564242345,-0.9650879,-1.0232544,0.36541748,36.828125,6.03125,-9.25
1664564242376,-0.8601074,-0.84210205,0.40325928,16.375,-0.40625,-8.4375
1664564242422,-0.7294922,-0.80181885,0.4069214,4.296875,0.875,-2.21875
1664564242468,-1.1745605,-1.0056763,0.35809326,-8.46875,6.453125,-17.15625
1664564242497,-0.7705078,-0.79644775,0.3307495,17.15625,8.5,-5.265625
1664564242587,-0.5847168,-0.68341064,0.14471436,6.0,-1.390625,7.609375
1664564242589,-0.55859375,-0.65093994,0.24359131,2.21875,-5.375,5.734375
1664564242617,-0.56640625,-0.55474854,0.33099365,17.09375,-4.484375,9.78125
1664564242646,-0.4790039,-0.58477783,0.20648193,5.828125,0.6875,5.40625
1664564242707,-0.57543945,-0.4644165,0.2518921,3.90625,-1.0,4.609375
1664564242739,-0.48535156,-0.49517822,0.20159912,0.890625,0.015625,0.515625
1664564242766,-0.5300293,-0.57476807,0.2850952,7.59375,0.625,-3.796875
1664564242826,-0.53759766,-0.37164307,0.2189331,-1.234375,2.546875,10.171875
1664564242855,-0.60595703,-0.6765747,0.2423706,8.640625,-5.46875,-3.40625
1664564242886,-0.75,-0.74053955,0.39422607,25.6875,2.640625,-0.203125
1664564242947,-0.9416504,-0.7046509,0.4196167,-3.171875,3.3125,-3.53125
1664564242961,-1.0197754,-0.8753052,0.30999756,-15.765625,10.25,-4.1875
1664564243007,-0.77124023,-1.0784302,0.2921753,-7.78125,-8.890625,8.765625
1664564243068,-0.7819824,-0.50738525,0.1395874,-14.1875,-1.421875,1.78125
1664564243082,-1.1047363,-0.6201782,0.20013428,-8.59375,32.515625,3.359375
1664564243126,-0.64868164,-1.1157837,0.11004639,24.796875,-6.96875,-2.15625
1664564243187,-0.9538574,-0.5874634,0.59783936,-19.578125,-12.65625,5.203125
1664564243201,-0.9055176,-0.7485962,0.27142334,1.5625,9.296875,-3.078125
1664564243247,-0.57299805,-0.7468872,0.036071777,6.703125,-1.9375,4.375
1664564243307,-0.6303711,-0.6589966,0.22479248,5.59375,-13.078125,5.5
1664564243321,-0.58447266,-0.55426025,0.15618896,-1.96875,-7.90625,6.109375
1664564243367,-0.6530762,-0.60821533,0.16668701,-1.46875,-4.09375,1.78125
1664564243396,-0.6152344,-0.5064087,0.1408081,-9.328125,-0.171875,0.546875
1664564243441,-0.62353516,-0.43292236,0.19696045,-8.1875,3.203125,0.421875
1664564243486,-0.64160156,-0.45147705,0.20770264,-4.875,6.03125,1.140625
1664564243516,-0.46313477,-0.46051025,0.17547607,0.921875,1.5625,5.390625
1664564243561,-0.7102051,-0.581604,0.2345581,-4.15625,7.375,4.234375
1664564243608,-0.69970703,-0.64971924,0.22869873,8.453125,3.734375,7.953125
1664564243636,-0.9177246,-0.61065674,0.4472046,-4.65625,3.421875,0.875
1664564243683,-0.9304199,-0.75372314,0.449646,3.5625,4.5625,-4.765625
1664564243727,-0.94750977,-0.8135376,0.28851318,-9.59375,3.640625,-12.625
1664564243756,-0.90722656,-0.819397,0.2584839,3.96875,3.65625,-18.84375
1664564243801,-0.92041016,-1.0342407,0.30145264,12.296875,15.640625,-17.75
1664564243846,-0.6477051,-0.75201416,0.30047607,17.921875,7.6875,-8.515625
1664564243876,-0.7583008,-0.81695557,0.16693115,-14.859375,-3.078125,0.171875
1664564243921,-0.84277344,-0.9116821,0.43084717,-13.84375,-9.9375,-1.78125
1664564243966,-0.6809082,-0.67266846,0.17791748,2.9375,5.515625,-2.9375
1664564243996,-0.6850586,-0.60821533,0.18695068,-3.84375,-3.6875,-4.5625
1664564244042,-0.6394043,-0.57159424,0.25726318,4.484375,-3.984375,-2.0
1664564244086,-0.5720215,-0.46783447,0.25604248,1.53125,3.46875,-1.59375
1664564244116,-0.49902344,-0.42803955,0.21307373,4.734375,0.6875,1.3125
1664564244147,-0.5307617,-0.611145,0.31781006,-6.375,-6.203125,1.078125
1664564244208,-0.5449219,-0.3550415,0.31903076,-13.984375,-0.671875,0.46875
1664564244236,-0.63720703,-0.48980713,0.37078857,-5.890625,-0.109375,0.90625
1664564244267,-0.7194824,-0.57110596,0.36151123,-7.9375,0.734375,-3.3125
1664564244327,-0.8076172,-0.60040283,0.3883667,-5.234375,1.46875,-1.140625
1664564244356,-0.7458496,-0.5420532,0.371521,-6.109375,-1.703125,2.234375
1664564244386,-1.0827637,-0.99713135,0.36419678,-17.6875,2.421875,13.671875
1664564244447,-0.6591797,-1.0010376,0.020935059,-26.015625,-11.203125,12.484375
1664564244462,-0.64819336,-0.5671997,0.26190186,18.53125,-17.40625,16.40625
1664564244506,-1.0651855,-0.95025635,0.3571167,-17.515625,-0.34375,11.734375
1664564244566,-0.77612305,-0.8521118,0.12298584,15.765625,-16.3125,4.796875
1664564244581,-1.1748047,-0.4500122,0.59490967,-13.21875,2.96875,-0.921875
1664564244627,-0.9489746,-1.0044556,0.20306396,14.4375,13.578125,7.59375
1664564244686,-0.50756836,-0.6812134,0.12689209,-5.484375,-29.140625,2.359375
1664564244702,-0.7697754,-0.62335205,0.25408936,2.0625,10.921875,-3.0625
1664564244746,-0.6281738,-0.53741455,0.29559326,4.421875,-10.78125,8.234375
1664564244807,-0.5942383,-0.44805908,0.22113037,-1.625,0.09375,2.859375
1664564244824,-0.66552734,-0.4282837,0.25775146,-0.734375,3.625,1.359375
1664564244866,-0.70288086,-0.45196533,0.21234131,3.609375,12.359375,-1.546875
1664564244896,-0.64624023,-0.5615845,0.27435303,-0.1875,10.671875,-0.546875
1664564244941,-0.6525879,-0.5574341,0.2592163,6.953125,8.0,-0.703125
1664564244988,-0.65844727,-0.57769775,0.3361206,4.671875,1.46875,1.625
1664564245017,-0.6867676,-0.62164307,0.4142456,-1.015625,-1.125,2.53125
1664564245061,-0.8666992,-0.5808716,0.45306396,-3.046875,3.546875,-0.25
1664564245106,-0.85498047,-0.56451416,0.432312,0.484375,2.59375,-7.125
1664564245136,-0.7988281,-0.47198486,0.4310913,2.65625,4.28125,-12.921875
1664564245181,-0.935791,-0.61798096,0.29510498,-13.421875,5.859375,-26.46875
1664564245227,-0.74902344,-0.9480591,0.1864624,4.078125,8.53125,-16.734375
1664564245258,-0.66015625,-0.8484497,0.21722412,4.046875,3.90625,1.640625
1664564245301,-0.86938477,-1.1592407,0.39154053,45.515625,7.125,3.703125
1664564245346,-0.9328613,-0.8994751,0.354187,-2.9375,-0.734375,0.390625
1664564245376,-0.9748535,-0.71661377,0.32611084,-7.828125,0.875,3.234375
1664564245424,-0.8022461,-0.59039307,0.34906006,24.21875,-2.1875,3.015625
1664564245466,-0.5541992,-0.5654907,0.13812256,18.171875,-1.859375,5.953125
1664564245496,-0.47607422,-0.5059204,0.21844482,23.53125,-13.140625,7.75
1664564245526,-0.56640625,-0.5696411,0.24090576,15.203125,-8.21875,9.03125
1664564245588,-0.5280762,-0.5820923,0.2699585,5.390625,-12.6875,7.28125
1664564245616,-0.6582031,-0.5178833,0.35247803,8.3125,-6.9375,4.0
1664564245646,-0.81933594,-0.58795166,0.37786865,-6.40625,-3.890625,-1.15625
1664564245706,-0.9055176,-0.44122314,0.42230225,3.921875,8.703125,-11.359375
1664564245736,-0.8942871,-0.52301025,0.4545288,4.953125,11.234375,-17.96875
1664564245768,-0.9436035,-0.5425415,0.45526123,-8.84375,28.140625,-26.96875
1664564245827,-0.9946289,-1.0584106,0.34100342,-19.078125,-0.9375,-10.90625
1664564245886,-0.72436523,-0.81256104,0.016784668,-21.921875,27.640625,-4.1875
1664564245888,-0.8256836,-0.6682739,0.13031006,-10.0,4.765625,7.34375
1664564245946,-0.75268555,-0.9048462,0.026306152,3.109375,21.4375,-5.078125
1664564245960,-0.87109375,-0.7769165,0.25872803,24.96875,-1.828125,12.96875
1664564246007,-0.6369629,-0.6790161,0.23406982,2.828125,-2.140625,5.90625
1664564246066,-0.58496094,-0.64556885,0.20965576,23.390625,-5.328125,5.1875
1664564246082,-0.5913086,-0.65802,0.19525146,2.015625,-11.234375,11.28125
1664564246127,-0.70654297,-0.6157837,0.14007568,4.3125,-10.609375,15.34375
1664564246186,-0.70336914,-0.61602783,0.18743896,-6.203125,-12.375,5.03125
1664564246202,-0.638916,-0.5845337,0.1762085,-3.0,-4.796875,4.25
1664564246247,-0.66186523,-0.60479736,0.24163818,-6.203125,-8.796875,6.75
1664564246276,-0.7011719,-0.58599854,0.19647217,-13.703125,-13.96875,4.125
1664564246321,-0.69677734,-0.6548462,0.24066162,-17.140625,1.203125,1.53125
1664564246366,-0.82714844,-0.6038208,0.3217163,-10.90625,-4.765625,3.875
1664564246396,-0.7548828,-0.6199341,0.30926514,-8.703125,4.171875,-6.96875
1664564246441,-0.7763672,-0.8045044,0.42401123,-17.578125,-16.625,3.640625
1664564246486,-0.8869629,-0.7854614,0.28289795,-18.09375,2.265625,-8.34375
1664564246516,-0.69970703,-0.6970825,0.19720459,-3.96875,4.40625,-12.25
1664564246561,-0.43017578,-0.5527954,0.07757568,10.953125,-3.796875,-10.03125
1664564246606,-0.60791016,-0.9434204,0.13983154,-2.296875,-15.953125,0.015625
1664564246636,-1.0834961,-0.83062744,0.52020264,-16.28125,-1.046875,-7.65625
1664564246681,-0.69750977,-0.6838989,0.08905029,16.703125,11.15625,0.0625
1664564246726,-0.7536621,-0.70562744,0.2609253,-26.3125,-2.125,-11.859375
1664564246755,-0.7727051,-0.66534424,0.40081787,8.546875,-0.78125,-7.0625
1664564246801,-0.64404297,-0.5310669,0.28997803,2.4375,7.375,-3.90625
1664564246846,-0.59350586,-0.56085205,0.199646,11.28125,-0.09375,1.0625
1664564246876,-0.5905762,-0.53302,0.20574951,4.59375,11.390625,-4.71875
1664564246921,-0.5041504,-0.4619751,0.24847412,19.03125,-4.453125,-3.515625
1664564246967,-0.54663086,-0.49713135,0.340271,8.953125,11.390625,-5.359375
1664564246996,-0.60498047,-0.36627197,0.3270874,-7.484375,4.09375,-6.515625
1664564247026,-0.5883789,-0.4492798,0.2062378,4.59375,8.4375,0.421875
1664564247086,-0.62890625,-0.583313,0.30047607,22.59375,5.28125,5.546875
1664564247116,-0.5930176,-0.612854,0.2994995,9.796875,1.734375,-1.953125
1664564247146,-0.99780273,-0.677063,0.47283936,-1.828125,11.578125,-9.296875
1664564247206,-0.91748047,-0.6970825,0.4310913,3.234375,4.671875,-3.734375
1664564247236,-1.0314941,-0.8897095,0.31097412,-14.109375,8.40625,4.25
1664564247266,-0.7775879,-1.083313,0.28240967,-15.46875,-0.453125,5.453125
1664564247326,-1.0427246,-0.7720337,0.30169678,-20.5,5.859375,5.203125
1664564247387,-0.9626465,-0.4290161,0.26654053,11.59375,12.734375,-5.109375
1664564247388,-0.82128906,-0.9805298,0.48016357,8.46875,2.875,3.765625
1664564247446,-0.720459,-0.8545532,0.27996826,-10.53125,-17.859375,12.484375
1664564247461,-0.8522949,-0.62164307,0.32391357,-1.0625,-25.59375,17.09375
1664564247507,-0.66015625,-0.58380127,0.2819214,1.1875,-11.421875,11.703125
1664564247566,-0.64282227,-0.4932251,0.16888428,4.515625,-8.5,12.5625
1664564247581,-0.57910156,-0.49395752,0.14520264,2.1875,-8.90625,10.875
1664564247627,-0.58618164,-0.5899048,0.17010498,14.09375,-14.53125,13.5625
1664564247686,-0.65063477,-0.565979,0.31658936,0.703125,-6.34375,7.171875
1664564247700,-0.611084,-0.52716064,0.11590576,-7.765625,3.265625,5.25
1664564247747,-0.6479492,-0.5093384,0.2699585,-1.203125,-0.125,1.921875
1664564247776,-0.69799805,-0.51031494,0.2518921,5.53125,12.46875,-6.921875
1664564247821,-0.55908203,-0.5635376,0.1954956,10.234375,10.65625,0.796875
1664564247865,-0.69140625,-0.64019775,0.30560303,-4.015625,7.234375,-0.578125
1664564247896,-0.7001953,-0.6116333,0.4159546,1.53125,-1.71875,2.578125
1664564247942,-0.82788086,-0.66973877,0.39031982,-7.40625,6.046875,-4.46875
1664564247986,-0.89453125,-0.677063,0.46820068,-0.453125,4.03125,-9.21875
1664564248018,-0.9577637,-0.7163696,0.29608154,-3.796875,10.625,-26.265625
1664564248061,-0.8540039,-0.7954712,0.34906006,14.71875,16.03125,-23.15625
1664564248106,-0.7988281,-0.78985596,0.24676514,8.296875,18.703125,-16.1875
1664564248136,-0.77978516,-1.0593872,0.40374756,0.875,5.984375,-12.828125
1664564248182,-0.7741699,-0.6326294,0.31463623,7.515625,5.375,-4.6875
1664564248226,-0.8161621,-0.74468994,0.35247803,-8.84375,-7.265625,2.984375
1664564248256,-0.7866211,-0.7678833,0.34881592,6.984375,1.0,0.421875
1664564248302,-0.66186523,-0.5322876,0.22454834,5.953125,0.9375,3.3125
1664564248346,-0.5966797,-0.5215454,0.26287842,5.0,-5.59375,2.484375
1664564248376,-0.5151367,-0.5745239,0.27996826,7.359375,-7.5,3.765625
1664564248422,-0.47509766,-0.54937744,0.29241943,-1.078125,-9.28125,4.234375
1664564248467,-0.57543945,-0.5864868,0.33050537,-5.59375,-9.734375,3.609375
1664564248496,-0.6164551,-0.4607544,0.36712646,-10.34375,-6.703125,-6.109375
1664564248527,-0.67456055,-0.43658447,0.25701904,-4.09375,-1.796875,0.046875
1664564248586,-0.5332031,-0.6069946,0.3451538,-0.21875,-11.671875,7.421875
1664564248617,-0.6508789,-0.5125122,0.36444092,9.171875,1.546875,-0.640625
1664564248646,-0.8149414,-0.569397,0.40716553,-2.953125,0.5625,-1.296875
1664564248707,-0.75561523,-0.67071533,0.48602295,2.21875,4.375,-2.40625
1664564248736,-1.0625,-1.1311646,0.47991943,-14.984375,18.265625,4.109375
1664564248766,-0.5773926,-1.1834106,-0.019836426,10.609375,26.796875,-4.890625
1664564248827,-1.1767578,-0.8171997,-0.144104,-17.984375,-57.421875,43.46875
1664564248856,-1.0019531,-0.5496216,0.16668701,37.125,12.953125,-7.828125
1664564248887,-0.876709,-0.82891846,0.54119873,-9.640625,1.140625,5.953125
1664564248946,-0.8483887,-0.6482544,0.11590576,2.75,1.625,-0.015625
1664564248961,-0.5266113,-0.46295166,0.15618896,15.0,-9.015625,8.734375
1664564249007,-0.6994629,-0.5889282,0.19915771,4.5,5.78125,-1.03125
1664564249068,-0.68481445,-0.59161377,0.13739014,-4.390625,-7.359375,0.625
1664564249081,-0.6633301,-0.5877075,0.2387085,8.8125,9.59375,-3.3125
1664564249127,-0.7277832,-0.5894165,0.2267456,-0.796875,3.890625,-3.109375
1664564249187,-0.7297363,-0.5906372,0.26068115,-10.03125,14.5,-8.578125
1664564249201,-0.58251953,-0.40093994,0.2711792,0.25,14.03125,-6.546875
1664564249247,-0.69799805,-0.4998169,0.29779053,-3.203125,18.921875,-5.046875
1664564249276,-0.63061523,-0.50177,0.20819092,2.9375,12.375,-4.4375
1664564249321,-0.59228516,-0.47857666,0.25238037,2.078125,10.9375,0.359375
1664564249366,-0.7121582,-0.5310669,0.38739014,-1.46875,11.625,-2.046875
1664564249396,-0.7133789,-0.60821533,0.3270874,2.828125,8.9375,-4.296875
1664564249441,-0.77685547,-0.5305786,0.4562378,-0.921875,9.3125,-5.546875
1664564249486,-1.1877441,-0.91534424,0.3480835,-25.1875,11.734375,-29.203125
1664564249516,-0.94433594,-1.0496216,0.33294678,25.015625,3.234375,-16.265625
1664564249561,-0.8366699,-1.0049438,0.26434326,11.359375,6.90625,-20.125
1664564249606,-0.9526367,-0.7053833,0.5507202,5.171875,-8.78125,6.90625
1664564249636,-0.7805176,-0.82403564,0.26849365,4.84375,-4.28125,-6.46875
1664564249681,-0.85180664,-0.54937744,0.4171753,-5.640625,1.09375,-0.609375
1664564249727,-0.64038086,-0.5203247,0.17303467,7.6875,-3.703125,1.96875
1664564249757,-0.5332031,-0.5462036,0.2140503,12.828125,-0.375,-0.171875
1664564249801,-0.5263672,-0.66070557,0.3180542,10.796875,-4.8125,5.3125
1664564249846,-0.54003906,-0.598938,0.2748413,-3.703125,-8.203125,8.171875
1664564249876,-0.56347656,-0.45855713,0.27142334,-3.859375,-5.90625,3.546875
1664564249921,-0.6047363,-0.47003174,0.3505249,-2.859375,-9.609375,0.609375
1664564249966,-0.49438477,-0.48809814,0.26483154,2.0625,-4.421875,5.40625
1664564249996,-0.6040039,-0.5835571,0.26849365,-8.6875,-6.59375,8.09375
1664564250026,-0.68310547,-0.47857666,0.27459717,5.296875,-7.984375,8.328125
1664564250087,-0.8540039,-0.53790283,0.434021,1.59375,-6.9375,0.484375
1664564250117,-0.86083984,-0.5630493,0.3678589,-5.703125,0.53125,-9.96875
1664564250146,-0.95654297,-0.7710571,0.39031982,-9.890625,2.921875,-4.28125
1664564250206,-0.7380371,-1.0388794,0.33538818,-17.703125,0.171875,-3.234375
1664564250236,-0.73583984,-0.60723877,0.0524292,-9.625,-10.21875,12.265625
1664564250268,-1.1213379,-1.0745239,0.42034912,-13.640625,-9.875,10.34375
1664564250326,-0.7980957,-0.6421509,0.1227417,1.671875,-6.515625,-0.625
1664564250341,-1.2680664,-0.73272705,0.5988159,-10.9375,17.28125,-8.328125
1664564250386,-0.70288086,-0.8015747,0.081970215,15.40625,10.5,-4.21875
1664564250447,-0.66625977,-0.55255127,0.2970581,1.1875,2.515625,0.46875
1664564250461,-0.63183594,-0.6135864,0.27142334,3.640625,5.390625,4.0
1664564250506,-0.60498047,-0.58673096,0.21038818,2.21875,1.015625,3.703125
1664564250567,-0.6489258,-0.51763916,0.2218628,3.140625,-0.46875,1.90625
1664564250581,-0.7062988,-0.47613525,0.27508545,2.71875,1.40625,-2.875
1664564250628,-0.6870117,-0.48468018,0.2946167,4.703125,6.609375,-6.375
1664564250671,-0.5678711,-0.4055786,0.19085693,1.796875,7.34375,-5.109375
1664564250701,-0.7441406,-0.4985962,0.3295288,2.0625,4.609375,0.109375
1664564250747,-0.65966797,-0.5784302,0.19793701,1.921875,7.109375,-1.4375
1664564250776,-0.6879883,-0.52789307,0.34832764,2.609375,3.28125,0.328125
1664564250822,-0.90112305,-0.4763794,0.48138428,1.625,1.578125,-3.84375
1664564250867,-0.88549805,-0.49127197,0.5153198,1.765625,15.375,-8.640625
1664564250897,-0.83813477,-0.62506104,0.42669678,-4.8125,9.453125,-15.25
1664564250941,-0.95092773,-0.86846924,0.31903076,4.765625,9.90625,-15.609375
1664564250987,-0.8066406,-0.71539307,0.29241943,4.984375,1.546875,0.25
1664564251017,-0.829834,-0.9290161,0.43841553,15.59375,-2.046875,-4.359375
1664564251061,-0.96484375,-0.84869385,0.4406128,17.34375,6.59375,-7.640625
1664564251107,-0.8486328,-0.7329712,0.24578857,3.1875,5.765625,3.1875
1664564251136,-0.6047363,-0.7588501,0.21185303,13.390625,-12.453125,8.515625
1664564251181,-0.64990234,-0.63165283,0.38812256,8.703125,-6.6875,4.421875
1664564251226,-0.61938477,-0.5393677,0.17059326,-0.203125,2.8125,3.15625
1664564251256,-0.5187988,-0.425354,0.2670288,15.390625,-5.859375,1.453125
1664564251301,-0.5019531,-0.43927002,0.20941162,6.453125,-1.53125,-6.125
1664564251347,-0.38916016,-0.4524536,0.260437,2.625,-7.96875,3.828125
1664564251376,-0.5046387,-0.5256958,0.2753296,-6.171875,-2.4375,1.3125
1664564251466,-0.6594238,-0.57696533,0.28289795,3.3125,-1.15625,3.171875
1664564251468,-0.7260742,-0.53985596,0.4069214,3.390625,-1.71875,0.3125
1664564251499,-0.8029785,-0.5996704,0.3739624,-5.03125,3.75,-4.25
1664564251526,-0.9086914,-0.71295166,0.5231323,-9.28125,10.375,-1.890625
1664564251589,-0.77490234,-1.0288696,0.40301514,6.671875,-4.703125,-1.71875
1664564251616,-0.857666,-0.69903564,0.031433105,-24.84375,-4.828125,-0.046875
1664564251646,-1.0317383,-0.75982666,0.5194702,-8.8125,6.09375,15.6875
1664564251707,-1.0031738,-0.8887329,0.2345581,-6.421875,-10.96875,2.515625
1664564251736,-0.9836426,-0.6079712,0.4393921,2.625,-9.484375,1.234375
1664564251768,-0.87402344,-0.73638916,0.3829956,-8.953125,-2.03125,2.109375
1664564251827,-0.7446289,-0.61431885,0.19598389,-3.109375,-8.65625,4.71875
1664564251843,-0.6513672,-0.5286255,0.22845459,2.453125,-6.140625,8.25
1664564251886,-0.6281738,-0.5076294,0.2531128,-4.40625,-11.609375,9.734375
1664564251948,-0.6813965,-0.48077393,0.2387085,-3.59375,-5.875,6.53125
1664564251961,-0.67089844,-0.48614502,0.21014404,-3.875,-0.984375,2.296875
1664564252007,-0.6982422,-0.4060669,0.2567749,-7.84375,5.625,-0.09375
1664564252051,-0.6413574,-0.3255005,0.27093506,-0.1875,13.5,4.578125
1664564252082,-0.6154785,-0.4920044,0.25042725,-4.15625,3.46875,4.25
1664564252126,-0.5957031,-0.53448486,0.36541748,-2.296875,2.953125,1.0625
1664564252186,-0.6711426,-0.58380127,0.32977295,-0.34375,0.90625,2.484375
1664564252201,-0.7927246,-0.55352783,0.43328857,-0.34375,5.296875,-3.6875
1664564252246,-0.94799805,-0.52838135,0.55145264,-0.09375,9.03125,-10.109375
1664564252278,-1.1557617,-0.81134033,0.38568115,-14.921875,2.03125,-21.875
1664564252321,-0.79541016,-0.98101807,0.2838745,-1.234375,9.0,-14.0
1664564252366,-0.7861328,-0.7896118,0.35198975,18.109375,10.25,-7.1875
1664564252396,-0.80493164,-0.92071533,0.3607788,2.875,2.34375,-1.71875
1664564252441,-0.998291,-0.75860596,0.3998413,-9.015625,-0.8125,-8.859375
1664564252486,-0.83813477,-0.6375122,0.3859253,2.484375,4.625,-0.859375
1664564252516,-0.7006836,-0.6851196,0.2645874,9.796875,2.578125,-1.125
1664564252561,-0.6669922,-0.5227661,0.32147217,-0.265625,1.46875,-1.703125
1664564252606,-0.58447266,-0.4829712,0.2904663,5.34375,-2.453125,6.734375
1664564252636,-0.4387207,-0.5899048,0.2526245,5.40625,-1.53125,6.671875
1664564252682,-0.61206055,-0.552063,0.3571167,-2.15625,-3.8125,-3.328125
1664564252726,-0.60424805,-0.39093018,0.3024292,-6.5,5.421875,2.375
1664564252756,-0.43066406,-0.54766846,0.26531982,4.625,2.09375,12.9375
1664564252802,-0.59155273,-0.5132446,0.47332764,-25.75,-9.421875,2.859375
1664564252847,-0.71606445,-0.33502197,0.36419678,-3.390625,-3.84375,3.859375
1664564252876,-0.70581055,-0.5540161,0.3883667,-9.171875,0.453125,-1.46875
1664564252921,-0.86279297,-0.5881958,0.5409546,-7.25,1.4375,-9.4375
1664564252966,-0.7519531,-0.616272,0.55633545,-6.3125,-2.15625,-6.171875
1664564252996,-0.90893555,-0.85772705,0.5223999,-31.25,0.28125,5.171875
1664564253027,-0.7590332,-0.7979126,0.15032959,-18.046875,-10.59375,5.578125
1664564253086,-0.80688477,-0.80914307,0.4640503,-1.984375,-9.6875,19.140625
1664564253116,-1.2126465,-0.70025635,0.46209717,-8.078125,-3.03125,0.640625
1664564253147,-1.0388184,-0.62213135,0.44622803,8.0,1.421875,-5.9375
1664564253207,-0.8054199,-0.6836548,0.42889404,-2.953125,-4.0625,-1.71875
1664564253238,-0.79956055,-0.57598877,0.38787842,1.6875,0.453125,-2.359375
1664564253266,-0.6916504,-0.5437622,0.2662964,9.1875,-0.15625,4.234375
1664564253326,-0.6320801,-0.48272705,0.24871826,8.34375,-0.34375,4.859375
1664564253341,-0.6809082,-0.4595337,0.31072998,8.53125,-0.234375,6.25
1664564253387,-0.6369629,-0.4524536,0.25360107,8.65625,1.828125,3.234375
1664564253447,-0.61206055,-0.3953247,0.33441162,9.515625,-0.6875,2.484375
1664564253461,-0.67407227,-0.41558838,0.23382568,-2.8125,13.234375,-0.578125
1664564253507,-0.5644531,-0.4163208,0.30950928,11.53125,0.546875,-1.015625
1664564253566,-0.5605469,-0.47442627,0.28118896,0.046875,9.0,-1.984375
1664564253581,-0.72998047,-0.49664307,0.43304443,6.828125,7.203125,-2.078125
1664564253627,-0.75390625,-0.49346924,0.45111084,3.515625,5.046875,-3.203125
1664564253657,-0.9316406,-0.52545166,0.5643921,-3.234375,5.5,-12.03125
1664564253701,-1.1015625,-0.85894775,0.4845581,1.21875,2.59375,-23.21875
1664564253746,-0.89404297,-0.86846924,0.27166748,18.265625,11.3125,-18.234375
1664564253776,-0.548584,-0.940979,0.40350342,34.984375,-9.3125,-0.75
1664564253822,-1.0756836,-0.8225708,0.44378662,-39.109375,-9.671875,12.140625
1664564253866,-1.1435547,-0.8218384,0.48284912,16.78125,0.625,-16.71875
1664564253896,-0.80126953,-0.5820923,0.2880249,-1.59375,11.609375,1.078125
1664564253941,-0.6298828,-0.6802368,0.25042725,17.59375,-1.03125,2.4375
1664564253987,-0.5,-0.54644775,0.3673706,3.140625,-13.140625,11.265625
1664564254018,-0.48046875,-0.48638916,0.26849365,-5.09375,-0.15625,9.0625
1664564254061,-0.46923828,-0.46221924,0.27313232,9.40625,-11.015625,4.46875
1664564254106,-0.6501465,-0.4973755,0.38641357,-24.15625,-6.609375,-4.59375
1664564254136,-0.58813477,-0.4336548,0.33270264,-0.640625,-4.65625,-1.421875
1664564254181,-0.6020508,-0.42926025,0.3607788,-9.65625,-2.453125,-2.328125
1664564254226,-0.6567383,-0.47613525,0.30999756,-13.078125,-2.0625,0.484375
1664564254256,-0.6179199,-0.45758057,0.38128662,5.953125,2.765625,-0.53125
1664564254301,-0.8198242,-0.58306885,0.47650146,-10.546875,2.453125,-9.0625
1664564254346,-0.74902344,-0.45098877,0.4616089,-1.453125,3.8125,-8.796875
1664564254376,-1.076416,-0.78497314,0.38934326,-37.375,7.359375,-1.71875
1664564254407,-0.71606445,-0.9668579,0.29608154,-9.625,2.84375,5.828125
1664564254466,-0.81933594,-0.55010986,0.26922607,-7.1875,-7.546875,11.3125
1664564254496,-1.3237305,-0.57647705,0.52557373,-6.453125,9.984375,2.328125
1664564254526,-0.89453125,-0.81378174,0.41351318,12.953125,3.15625,-0.75
1664564254586,-0.8015137,-0.69903564,0.44232178,-1.390625,-12.28125,3.234375
1664564254616,-0.9904785,-0.6033325,0.34613037,-9.328125,-1.78125,2.15625
1664564254646,-0.7368164,-0.4883423,0.27313232,15.84375,1.0625,0.15625
1664564254707,-0.59228516,-0.44659424,0.24041748,20.453125,0.84375,5.78125
1664564254766,-0.6569824,-0.45587158,0.2526245,8.265625,-2.84375,0.03125
1664564254768,-0.7385254,-0.4175415,0.33831787,1.25,0.078125,-2.46875
1664564254827,-0.63671875,-0.42315674,0.21990967,-2.1875,1.0625,-7.0625
1664564254842,-0.6855469,-0.30841064,0.3847046,8.0625,9.609375,-3.234375
1664564254887,-0.74731445,-0.36480713,0.29022217,10.796875,17.484375,-6.0
1664564254947,-0.6479492,-0.4048462,0.30413818,17.265625,11.078125,-2.9375
1664564254962,-0.7180176,-0.51348877,0.35906982,8.09375,9.578125,0.328125
1664564255007,-0.78515625,-0.43951416,0.43255615,2.125,11.203125,-1.6875
1664564255067,-0.95996094,-0.41485596,0.4833374,2.453125,10.53125,-9.0
1664564255081,-0.8708496,-0.5071411,0.49334717,4.703125,6.265625,-13.34375
1664564255128,-1.1245117,-0.6790161,0.49456787,7.5,9.421875,-25.375
1664564255156,-0.89941406,-0.99102783,0.36712646,7.84375,0.46875,-13.09375
1664564255202,-0.50146484,-0.9212036,0.5507202,22.15625,-19.140625,-1.25
1664564255247,-1.28125,-0.57037354,0.3324585,-13.640625,11.984375,-5.921875
1664564255276,-0.9645996,-0.70318604,0.38397217,18.921875,-7.09375,-1.609375
1664564255321,-0.6665039,-0.63067627,0.36297607,13.0,-5.59375,5.328125
1664564255366,-0.7878418,-0.5755005,0.2802124,1.984375,0.203125,3.390625
1664564255399,-0.6677246,-0.5269165,0.26287842,15.15625,-9.15625,8.40625
1664564255441,-0.54711914,-0.5466919,0.27825928,4.546875,-7.84375,15.703125
1664564255516,-0.5024414,-0.54156494,0.3163452,-2.09375,-11.625,16.859375
1664564255518,-0.6118164,-0.45367432,0.29144287,-7.453125,-9.1875,11.78125
1664564255561,-0.6105957,-0.38067627,0.25897217,-7.015625,-10.421875,10.6875
1664564255608,-0.48413086,-0.43414307,0.2489624,-5.265625,-12.640625,4.453125
1664564255636,-0.5427246,-0.5886841,0.35101318,7.4375,-4.4375,4.6875
1664564255681,-0.7128906,-0.6411743,0.37127686,-1.234375,-17.671875,14.546875
1664564255727,-0.8195801,-0.47149658,0.37225342,-23.6875,-5.6875,-1.90625
1664564255758,-0.95092773,-0.442688,0.5570679,-5.484375,0.921875,-9.78125
1664564255802,-1.0390625,-0.8899536,0.34613037,-27.03125,11.921875,-5.21875
1664564255847,-0.82714844,-1.1113892,0.3546753,-18.625,0.640625,1.671875
1664564255876,-0.87231445,-0.6223755,0.2506714,-16.0625,-7.140625,7.1875
1664564255906,-1.3129883,-0.5022583,0.401062,-7.84375,25.859375,-2.953125
1664564255967,-0.717041,-0.9993286,0.16400146,7.9375,-0.046875,13.796875
1664564256012,-0.6809082,-0.675354,0.37225342,-12.234375,-23.578125,10.125
1664564256027,-0.9350586,-0.71173096,0.33636475,-10.6875,-8.375,11.09375
1664564256087,-0.7976074,-0.47906494,0.17425537,7.015625,-3.4375,7.765625
1664564256116,-0.6333008,-0.5342407,0.16693115,15.234375,-3.59375,3.984375
1664564256147,-0.60961914,-0.52423096,0.27679443,2.921875,-6.234375,2.8125
1664564256207,-0.7619629,-0.4812622,0.2645874,4.75,4.6875,2.515625
1664564256237,-0.5058594,-0.47662354,0.1564331,3.453125,-1.46875,1.28125
1664564256268,-0.5715332,-0.42486572,0.2387085,-0.625,2.125,-1.21875
1664564256327,-0.7661133,-0.35528564,0.35491943,-5.078125,14.53125,-2.140625
1664564256342,-0.7595215,-0.47686768,0.28167725,9.296875,13.125,-8.484375
1664564256387,-0.5776367,-0.4685669,0.28948975,0.703125,10.34375,-2.921875
1664564256448,-0.9123535,-0.5491333,0.3776245,-4.5,14.4375,-6.953125
1664564256461,-0.68530273,-0.5303345,0.36834717,5.890625,6.546875,-2.90625
1664564256507,-0.86157227,-0.6201782,0.36590576,3.328125,-3.09375,-9.5625
1664564256567,-1.1206055,-0.93707275,0.45941162,19.609375,14.59375,-12.703125
1664564256581,-0.8479004,-0.89019775,0.40985107,15.8125,22.296875,-13.859375
1664564256628,-0.7426758,-0.7542114,0.3637085,2.5,7.3125,-8.46875
1664564256656,-1.0466309,-0.91534424,0.4364624,0.53125,0.140625,-7.84375
1664564256701,-0.8166504,-0.7156372,0.371521,1.5,6.21875,-12.34375
1664564256746,-0.6196289,-0.60943604,0.2098999,19.953125,5.21875,11.828125
1664564256776,-0.5402832,-0.7761841,0.25091553,0.46875,-9.78125,7.234375
1664564256822,-0.63427734,-0.50494385,0.39398193,10.15625,-10.734375,8.3125
1664564256867,-0.4663086,-0.44488525,0.21990967,-2.140625,-3.71875,9.140625
1664564256896,-0.5661621,-0.6231079,0.31488037,9.40625,-8.53125,6.453125
1664564256941,-0.5895996,-0.42437744,0.3397827,-12.90625,1.671875,-5.96875
1664564256986,-0.48632812,-0.41534424,0.24554443,9.421875,-9.75,4.71875
1664564257016,-0.6218262,-0.6416626,0.4418335,-15.703125,-4.5,-5.84375
1664564257062,-0.7026367,-0.39508057,0.3534546,7.5625,2.25,-3.53125
1664564257136,-0.69970703,-0.5628052,0.4147339,-0.015625,-1.875,-1.796875
1664564257138,-0.86206055,-0.6199341,0.5109253,-0.5,4.578125,-9.578125
1664564257182,-1.1520996,-0.9746704,0.2772827,-34.21875,10.875,0.5
1664564257226,-0.609375,-0.8484497,0.09954834,-5.671875,0.984375,8.96875
1664564257256,-0.69921875,-0.3184204,0.22625732,21.40625,-9.21875,13.65625
1664564257301,-0.8522949,-0.79156494,0.5626831,-5.359375,16.484375,1.265625
1664564257346,-1.1687012,-1.2315063,0.1749878,6.140625,14.921875,3.921875
1664564257376,-0.5583496,-0.6030884,0.040222168,2.171875,-42.0,22.453125
1664564257407,-1.1064453,-0.79473877,0.5282593,24.46875,21.265625,-4.078125
1664564257467,-0.8015137,-0.7329712,0.14007568,1.640625,3.765625,-2.15625
1664564257496,-0.5878906,-0.36871338,0.16912842,0.90625,-16.0625,-0.75
1664564257527,-0.6928711,-0.65338135,0.36102295,-6.015625,1.46875,-4.4375
1664564257586,-0.5966797,-0.5022583,0.2074585,3.203125,3.359375,0.34375
1664564257617,-0.62353516,-0.4368286,0.22406006,1.140625,2.15625,-5.875
1664564257647,-0.7324219,-0.42730713,0.28753662,3.03125,17.15625,-10.5
1664564257707,-0.65625,-0.44537354,0.26605225,1.21875,12.25,-11.265625
1664564257722,-0.57006836,-0.50177,0.29388428,-2.8125,4.6875,-1.671875
1664564257767,-0.69628906,-0.47003174,0.35198975,-0.40625,9.484375,0.109375
1664564257827,-0.6323242,-0.5454712,0.3373413,-2.96875,1.5625,2.25
1664564257841,-0.81591797,-0.56988525,0.46014404,-9.21875,5.203125,0.359375
1664564257887,-0.83325195,-0.5366821,0.49578857,-4.46875,0.9375,-5.90625
1664564257946,-1.0161133,-0.6331177,0.57244873,-18.71875,9.78125,-13.65625
1664564257962,-1.026123,-0.6218872,0.41497803,-4.640625,6.640625,-26.09375
1664564258007,-0.69140625,-0.7608032,0.3685913,17.28125,-10.46875,-3.15625
1664564258067,-0.89160156,-0.82354736,0.34002686,-10.09375,4.796875,-1.375
1664564258082,-1.0268555,-0.6799927,0.40667725,7.515625,9.859375,-10.0
1664564258127,-0.7163086,-0.5977173,0.39788818,3.0,2.6875,0.546875
1664564258156,-0.8249512,-0.7744751,0.39642334,-0.546875,-4.640625,0.234375
1664564258201,-0.638916,-0.46148682,0.3143921,-1.390625,-2.71875,5.328125
1664564258247,-0.52075195,-0.42926025,0.31732178,8.890625,-10.3125,12.15625
1664564258276,-0.5891113,-0.5757446,0.3078003,3.1875,-13.5,10.8125
1664564258321,-0.65283203,-0.44317627,0.3143921,-2.140625,-5.734375,10.0
1664564258367,-0.46606445,-0.4151001,0.26068115,14.140625,-9.171875,7.296875
1664564258396,-0.6525879,-0.5508423,0.44500732,-9.015625,-7.796875,3.171875
1664564258444,-0.5991211,-0.46270752,0.39666748,-7.0625,-2.78125,2.015625
1664564258487,-0.7597656,-0.6592407,0.47869873,-4.265625,-5.875,1.078125
1664564258518,-0.8442383,-0.59942627,0.43499756,-24.15625,7.125,-17.546875
1664564258561,-0.76220703,-0.4985962,0.60150146,0.5625,2.515625,-10.28125
1664564258609,-1.097168,-0.74835205,0.4767456,-26.96875,8.84375,3.21875
1664564258637,-0.81591797,-0.87091064,0.20794678,-10.953125,11.0,8.53125
1664564258682,-0.6870117,-0.38360596,0.35931396,-8.5625,-9.890625,8.515625
1664564258727,-1.0007324,-0.32354736,0.43450928,-7.28125,14.4375,-11.375
1664564258756,-1.09375,-1.013977,0.39300537,13.546875,22.8125,1.859375
1664564258847,-0.54052734,-0.708313,0.086364746,4.78125,-13.140625,3.6875
1664564258849,-1.2114258,-0.45928955,0.63079834,11.28125,16.125,-1.75
1664564258877,-0.7145996,-0.8184204,0.34466553,1.3125,-5.484375,3.984375
1664564258906,-0.69433594,-0.35479736,0.39422607,-9.703125,-14.0,-0.09375
1664564258967,-0.76708984,-0.47320557,0.39691162,13.578125,1.078125,6.890625
1664564258996,-0.63500977,-0.48687744,0.2243042,4.65625,1.78125,3.171875
1664564259026,-0.5551758,-0.41046143,0.25238037,9.1875,-3.578125,5.328125
1664564259086,-0.67041016,-0.3406372,0.36468506,0.59375,2.5,3.078125
1664564259117,-0.66748047,-0.34674072,0.33148193,5.90625,7.9375,-0.78125
1664564259146,-0.6682129,-0.36187744,0.31951904,-0.1875,7.234375,0.265625
1664564259207,-0.6611328,-0.42388916,0.31903076,6.640625,11.75,1.28125
1664564259222,-0.7692871,-0.44195557,0.45233154,6.296875,10.546875,-3.203125
1664564259267,-0.8300781,-0.4763794,0.5565796,6.03125,8.578125,-7.71875
1664564259327,-1.0893555,-0.80670166,0.39788818,-10.078125,5.4375,-17.9375
1664564259341,-0.859375,-0.67437744,0.3961792,10.625,7.203125,-16.625
1664564259387,-0.6870117,-0.7288208,0.53045654,15.375,-5.015625,-4.875
1664564259446,-1.0788574,-0.9368286,0.41131592,-18.734375,-3.984375,-10.171875
1664564259461,-0.9147949,-0.87872314,0.45355225,30.75,9.359375,-3.75
1664564259507,-0.736084,-0.71539307,0.42840576,4.15625,-7.484375,6.984375
1664564259569,-1.0161133,-0.82354736,0.52215576,5.296875,-5.859375,0.078125
1664564259581,-0.66381836,-0.473938,0.29388428,3.96875,-4.109375,5.453125
1664564259627,-0.53222656,-0.43634033,0.25335693,3.5,-9.125,15.734375
1664564259656,-0.49121094,-0.6333618,0.28656006,14.859375,-12.140625,14.671875
1664564259702,-0.47070312,-0.56695557,0.29412842,6.5,-14.125,16.234375
1664564259746,-0.53344727,-0.45440674,0.24871826,-3.203125,-8.9375,13.921875
1664564259776,-0.57592773,-0.51934814,0.31854248,-1.890625,-11.671875,1.15625
1664564259822,-0.6125488,-0.43389893,0.33441162,-1.40625,-8.5625,0.828125
1664564259867,-0.5749512,-0.5088501,0.3258667,-3.65625,-4.6875,6.46875
1664564259897,-0.75805664,-0.6621704,0.36590576,-6.59375,-6.609375,0.09375
1664564259941,-0.7697754,-0.5117798,0.40740967,2.1875,-0.390625,-4.390625
1664564259986,-0.8317871,-0.65411377,0.5048218,-8.125,1.359375,-7.0625
1664564260016,-1.032959,-0.8208618,0.4220581,-20.71875,1.765625,-6.09375
1664564260061,-0.8088379,-0.9483032,0.23040771,-24.078125,-0.046875,2.96875
1664564260106,-0.57543945,-0.5352173,0.26434326,-3.59375,-19.328125,9.0
1664564260136,-1.1337891,-0.5166626,0.3986206,-23.09375,13.3125,5.21875
1664564260181,-0.96484375,-1.0120239,0.19403076,9.59375,6.015625,1.015625
1664564260226,-0.7409668,-0.55181885,0.29608154,5.90625,-12.578125,-3.671875
1664564260258,-0.9765625,-0.83380127,0.42279053,2.5,2.890625,5.65625
1664564260301,-0.75097656,-0.6536255,0.22381592,-0.9375,3.265625,-2.53125
1664564260347,-0.6730957,-0.49298096,0.27972412,8.765625,-6.890625,0.46875
1664564260376,-0.71777344,-0.5305786,0.30682373,9.1875,0.109375,0.859375
1664564260407,-0.6623535,-0.53375244,0.2579956,2.796875,2.59375,-0.015625
1664564260467,-0.5625,-0.44073486,0.20477295,5.0,0.734375,-0.546875
1664564260496,-0.732666,-0.43023682,0.3295288,3.375,6.125,-1.234375
1664564260527,-0.66064453,-0.47198486,0.21722412,6.921875,10.265625,-6.265625
1664564260586,-0.48754883,-0.3982544,0.27288818,12.296875,5.09375,1.453125
1664564260616,-0.78466797,-0.49053955,0.31365967,6.140625,7.4375,2.609375
1664564260647,-0.65112305,-0.5142212,0.3180542,12.03125,6.734375,2.328125
1664564260707,-0.8310547,-0.47735596,0.42181396,-3.859375,7.21875,-4.03125
1664564260721,-0.921875,-0.58013916,0.5126343,2.609375,9.375,-6.171875
1664564260769,-0.8676758,-0.68170166,0.3727417,-6.953125,2.171875,-11.515625
1664564260827,-1.0512695,-0.85943604,0.43475342,10.0,20.375,-16.859375
1664564260841,-0.8522949,-0.69122314,0.39642334,4.359375,17.4375,-17.375
1664564260887,-0.62353516,-0.6812134,0.4335327,9.296875,1.5625,0.546875
1664564260947,-1.0463867,-0.9258423,0.35736084,-9.734375,2.71875,-1.515625
1664564260961,-0.7854004,-0.78131104,0.44818115,13.625,-1.984375,0.5625
1664564261007,-0.75756836,-0.68218994,0.3505249,0.265625,2.8125,2.640625
1664564261066,-0.8171387,-0.7493286,0.30145264,1.1875,-9.296875,1.484375
1664564261082,-0.5395508,-0.48736572,0.2999878,16.59375,-5.59375,4.359375
1664564261127,-0.5390625,-0.5203247,0.29364014,5.953125,-6.8125,11.0625
1664564261156,-0.51123047,-0.58135986,0.26385498,-4.53125,-11.703125,9.8125
1664564261202,-0.56933594,-0.48858643,0.2958374,6.328125,-6.53125,6.890625
1664564261246,-0.5578613,-0.3723755,0.23602295,-2.03125,-2.078125,4.765625
1664564261277,-0.546875,-0.63067627,0.28338623,5.015625,-9.203125,-2.78125
1664564261321,-0.5710449,-0.43658447,0.2399292,5.375,3.671875,0.03125
1664564261367,-0.44458008,-0.5466919,0.3180542,7.59375,-10.75,6.6875
1664564261396,-0.765625,-0.67926025,0.5241089,-15.3125,3.03125,-0.15625
1664564261441,-1.026123,-0.38702393,0.51971436,-5.546875,5.390625,-12.875
1664564261488,-1.0388184,-0.94366455,0.27142334,-26.578125,11.359375,2.96875
1664564261516,-0.56640625,-1.0269165,0.31951904,1.515625,2.203125,-2.5625
1664564261562,-1.184082,-0.55474854,0.33221436,-27.65625,1.6875,-1.546875
1664564261607,-0.8815918,-1.0274048,0.30462646,-5.3125,1.890625,0.625
1664564261638,-1.026123,-0.6565552,0.6959839,-33.921875,-6.109375,-10.828125
1664564261681,-1.1064453,-0.5977173,0.3908081,-1.296875,4.25,-1.671875
1664564261727,-0.68725586,-0.5862427,0.21600342,4.546875,4.953125,-1.625
1664564261757,-0.6645508,-0.4837036,0.29925537,14.953125,8.390625,1.90625
1664564261801,-0.5839844,-0.49005127,0.26141357,6.875,0.46875,7.15625
1664564261847,-0.65356445,-0.5195923,0.2819214,8.453125,-2.203125,4.953125
1664564261876,-0.71533203,-0.45440674,0.3817749,8.640625,2.140625,1.703125
1664564261907,-0.7128906,-0.47564697,0.34857178,10.359375,6.6875,-3.203125
1664564261967,-0.68188477,-0.46099854,0.3661499,10.03125,4.703125,-3.421875
1664564261999,-0.60131836,-0.4199829,0.32318115,11.0625,5.59375,-2.359375
1664564262027,-0.65478516,-0.42803955,0.27801514,5.1875,2.703125,0.25
1664564262089,-0.6274414,-0.43902588,0.2555542,5.953125,3.359375,0.125
1664564262117,-0.68481445,-0.43536377,0.32611084,7.8125,3.4375,-1.109375
1664564262147,-0.74609375,-0.4680786,0.3991089,3.53125,4.375,-1.546875
1664564262206,-0.814209,-0.44610596,0.41741943,-8.03125,5.6875,-6.46875
1664564262221,-0.79296875,-0.4529419,0.47039795,3.484375,0.8125,-11.65625
1664564262267,-0.9663086,-0.6880493,0.3522339,1.65625,4.3125,-19.90625
1664564262327,-0.8144531,-1.0081177,0.38104248,17.984375,12.609375,-12.375
1664564262341,-1.0029297,-0.9776001,0.5204468,-4.75,15.5,-9.796875
1664564262387,-0.9562988,-0.5684204,0.4845581,-9.09375,2.421875,-4.84375
1664564262446,-0.8869629,-1.0266724,0.4557495,18.984375,10.0,-5.6875
1664564262461,-0.8305664,-0.7444458,0.49017334,-7.46875,-0.375,5.15625
1664564262507,-0.5344238,-0.5640259,0.2584839,-1.953125,-12.390625,5.03125
1664564262536,-0.66186523,-0.50323486,0.38739014,2.3125,-10.015625,7.78125
1664564262582,-0.47802734,-0.47686768,0.30999756,5.71875,-10.265625,7.046875
1664564262626,-0.4440918,-0.46636963,0.28875732,4.5,-7.109375,5.5625
1664564262656,-0.53686523,-0.46929932,0.3192749,-8.359375,-9.625,2.484375
1664564262701,-0.6074219,-0.46148682,0.4039917,-12.5625,-10.75,-2.015625
1664564262747,-0.7207031,-0.53570557,0.28729248,-6.171875,-1.3125,3.53125
1664564262776,-0.6411133,-0.45684814,0.42474365,7.5,-4.796875,4.21875
1664564262821,-0.7636719,-0.4451294,0.34320068,0.625,-0.5625,0.453125
1664564262867,-0.6550293,-0.51348877,0.42108154,5.953125,-4.671875,-1.0625
1664564262896,-0.9707031,-0.6904907,0.34075928,-24.953125,4.515625,0.8125
1664564262942,-0.86987305,-1.0674438,0.39886475,-6.671875,-7.40625,8.015625
1664564262987,-0.79833984,-0.67974854,0.24139404,-2.640625,-11.515625,9.96875
1664564263017,-1.1618652,-0.67144775,0.4225464,-8.03125,8.140625,7.6875
1664564263061,-0.8820801,-0.928772,0.27825928,1.234375,-8.265625,5.40625
1664564263106,-0.96899414,-0.55914307,0.42523193,3.171875,-2.703125,-6.625
1664564263136,-0.85302734,-0.8855591,0.3366089,-8.03125,-5.09375,6.8125
1664564263181,-0.7697754,-0.64630127,0.24627686,4.4375,-5.375,-0.703125
1664564263226,-0.6760254,-0.5718384,0.29022217,3.125,-7.765625,3.859375
1664564263271,-0.6640625,-0.53790283,0.23138428,1.140625,-5.765625,7.015625
1664564263286,-0.6164551,-0.52545166,0.16546631,-0.234375,-5.015625,8.953125
1664564263347,-0.61621094,-0.4998169,0.21307373,1.328125,-7.328125,5.796875
1664564263376,-0.6374512,-0.49664307,0.25604248,0.640625,-6.15625,3.515625
1664564263407,-0.65649414,-0.50079346,0.31195068,6.046875,-8.8125,4.78125
1664564263467,-0.72265625,-0.4673462,0.17352295,-16.703125,2.84375,-1.453125
1664564263496,-0.50561523,-0.4072876,0.28631592,12.921875,-0.5625,0.625
1664564263527,-0.62060547,-0.5005493,0.24798584,-6.578125,6.296875,3.640625
1664564263587,-0.78027344,-0.5588989,0.33636475,-2.515625,1.640625,-1.25
1664564263616,-0.78222656,-0.61676025,0.37371826,0.421875,-0.9375,-1.046875
1664564263649,-0.8244629,-0.6279907,0.513855,-8.140625,2.015625,-1.34375
1664564263707,-0.904541,-0.5401001,0.50042725,-0.625,10.0625,-10.015625
1664564263721,-0.98168945,-0.80670166,0.38323975,-10.828125,1.90625,-13.296875
1664564263767,-0.83813477,-0.8674927,0.2477417,-0.671875,14.421875,-9.703125
1664564263826,-0.77685547,-0.85943604,0.26849365,11.78125,7.34375,-5.234375
1664564263841,-0.8244629,-0.90338135,0.3529663,-5.625,-12.90625,9.84375
1664564263887,-0.91967773,-0.70928955,0.34344482,-15.84375,-8.40625,-1.8125
1664564263946,-0.91625977,-0.62701416,0.31292725,8.09375,5.609375,-3.828125
1664564263961,-0.6279297,-0.6314087,0.24017334,11.484375,-1.21875,-1.546875
1664564264007,-0.6669922,-0.55841064,0.26849365,-1.65625,2.4375,1.984375
1664564264037,-0.6225586,-0.5383911,0.26971436,7.34375,2.09375,6.375
1664564264083,-0.5217285,-0.55596924,0.26727295,0.96875,-3.375,1.765625
1664564264127,-0.5395508,-0.4006958,0.27020264,3.546875,-6.90625,3.3125
1664564264159,-0.6520996,-0.66192627,0.36639404,2.828125,-7.8125,2.46875
1664564264202,-0.63061523,-0.5186157,0.32196045,-17.296875,-6.6875,-3.4375
1664564264247,-0.5168457,-0.31134033,0.28533936,9.65625,-8.609375,3.1875
1664564264276,-0.7199707,-0.72003174,0.34295654,-3.53125,-8.578125,4.703125
1664564264322,-0.670166,-0.4985962,0.32269287,-0.953125,-6.890625,1.734375
1664564264367,-0.814209,-0.53448486,0.4220581,-4.078125,-1.71875,-4.21875
1664564264396,-0.7421875,-0.55255127,0.49798584,-0.53125,2.984375,-10.578125
1664564264441,-1.1142578,-0.8550415,0.36102295,-22.234375,20.625,0.84375
1664564264487,-0.5749512,-0.8501587,-0.047912598,0.890625,15.984375,0.40625
1664564264518,-1.0473633,-0.6646118,0.53778076,-52.21875,-21.0,5.71875
1664564264561,-1.0734863,-0.9138794,0.18841553,35.578125,24.265625,4.890625
1664564264607,-0.61865234,-0.80010986,0.21868896,-25.453125,-33.390625,1.921875
1664564264636,-1.1435547,-0.6956177,0.4677124,8.796875,22.5,-5.796875
1664564264682,-0.8215332,-0.7114868,0.21380615,-4.875,8.78125,-4.546875
1664564264727,-0.5354004,-0.50006104,0.23065186,4.9375,-8.4375,2.0625
1664564264757,-0.7062988,-0.5610962,0.2838745,-4.203125,-1.46875,1.109375
1664564264786,-0.6936035,-0.49664307,0.2506714,-2.203125,6.4375,-1.40625
1664564264849,-0.6064453,-0.4553833,0.21209717,8.515625,2.578125,-0.921875
1664564264876,-0.70532227,-0.49395752,0.36468506,0.4375,3.515625,0.125
1664564264907,-0.8083496,-0.49542236,0.28411865,-3.75,18.328125,-4.171875
1664564264967,-0.513916,-0.4734497,0.28118896,8.625,0.609375,-0.921875
1664564264996,-0.72753906,-0.5005493,0.34466553,-5.171875,10.15625,0.015625
1664564265028,-0.62353516,-0.4758911,0.3012085,11.0625,3.25,-1.109375
1664564265087,-0.68774414,-0.46392822,0.37445068,7.453125,3.09375,0.265625
1664564265117,-0.7216797,-0.48345947,0.44378662,7.859375,4.984375,0.515625
1664564265146,-0.779541,-0.47906494,0.40960693,1.46875,7.421875,-5.15625
1664564265207,-0.9116211,-0.57476807,0.45672607,1.484375,4.875,-13.15625
1664564265220,-1.0146484,-0.8267212,0.4159546,2.0625,11.96875,-24.09375
1664564265268,-0.80371094,-0.72613525,0.32781982,21.625,12.828125,-13.71875
1664564265327,-0.5900879,-0.83428955,0.35858154,8.1875,-9.40625,-1.484375
1664564265342,-1.0266113,-0.96710205,0.44525146,-2.171875,-5.03125,4.296875
1664564265387,-0.8786621,-0.6831665,0.38690186,-5.296875,-2.5625,3.765625
1664564265448,-0.86157227,-0.69195557,0.38397217,0.15625,-3.46875,3.71875
1664564265461,-0.81762695,-0.67510986,0.3595581,5.453125,-1.625,3.46875
1664564265506,-0.6281738,-0.50787354,0.25506592,5.828125,0.78125,3.109375
1664564265536,-0.56347656,-0.5532837,0.29144287,6.5,-6.71875,9.984375
1664564265581,-0.56640625,-0.56622314,0.30389404,-1.78125,-9.453125,7.484375
1664564265627,-0.5463867,-0.4890747,0.26971436,-0.734375,-12.90625,8.90625
1664564265656,-0.53466797,-0.4854126,0.36590576,-3.8125,-21.203125,0.53125
1664564265702,-0.6508789,-0.49664307,0.32000732,-13.078125,-5.828125,-5.9375
1664564265746,-0.6520996,-0.4343872,0.3241577,-6.046875,-3.75,0.703125
1664564265776,-0.6196289,-0.60357666,0.28875732,-9.875,-10.015625,5.546875
1664564265821,-0.6945801,-0.52471924,0.38323975,-5.765625,-4.578125,2.640625
1664564265866,-0.82006836,-0.46392822,0.39691162,-6.84375,-0.890625,-2.625
1664564265896,-0.8317871,-0.50250244,0.56243896,-5.15625,-1.140625,-8.21875
1664564265942,-1.1638184,-0.9578247,0.45355225,-40.5625,7.515625,0.34375
1664564265987,-0.7446289,-1.0420532,0.05999756,-20.84375,-1.484375,6.953125
1664564266016,-0.6809082,-0.5339966,0.31536865,-12.609375,-20.84375,9.828125
1664564266062,-1.3005371,-0.519104,0.3180542,2.890625,20.09375,-0.125
1664564266106,-0.7561035,-1.0049438,0.19110107,18.140625,4.8125,13.390625
1664564266136,-0.5871582,-0.5960083,0.43426514,-7.890625,-24.46875,0.984375
1664564266182,-1.0290527,-0.7554321,0.33953857,3.703125,3.15625,9.140625
1664564266226,-0.61035156,-0.6387329,0.16131592,9.84375,-0.9375,2.90625
1664564266256,-0.65625,-0.46343994,0.30804443,3.1875,-9.84375,1.609375
1664564266286,-0.74731445,-0.5466919,0.25238037,7.421875,4.28125,3.0625
1664564266346,-0.7404785,-0.5466919,0.27044678,10.140625,6.390625,-1.21875
1664564266376,-0.6184082,-0.48101807,0.27508545,15.09375,-5.296875,2.625
1664564266407,-0.6923828,-0.41900635,0.28656006,-3.21875,9.5,4.140625
1664564266467,-0.62109375,-0.40020752,0.20550537,8.484375,20.265625,-2.6875
1664564266496,-0.57177734,-0.37457275,0.21844482,16.5,12.6875,-1.59375
1664564266527,-0.7126465,-0.42218018,0.2662964,11.375,22.296875,-4.9375
1664564266586,-0.6467285,-0.5803833,0.3012085,7.515625,18.171875,-4.90625
1664564266602,-0.7307129,-0.5671997,0.34906006,1.09375,10.9375,-6.546875
1664564266647,-0.98876953,-0.83258057,0.26141357,-6.25,-0.171875,-16.5625
1664564266706,-0.9135742,-0.74346924,0.4767456,34.9375,16.390625,-14.25
1664564266722,-0.93408203,-0.75982666,0.45355225,10.75,12.65625,-20.796875
1664564266767,-0.84814453,-1.1533813,0.34832764,-3.34375,8.5625,-11.859375
1664564266827,-0.92700195,-0.8928833,0.39227295,15.90625,3.296875,-5.515625
1664564266842,-0.8535156,-0.95196533,0.3373413,-1.90625,-2.0,4.140625
1664564266887,-0.8496094,-0.80426025,0.39471436,5.59375,-4.46875,1.015625
1664564266946,-0.70092773,-0.66607666,0.26019287,5.96875,-3.4375,3.78125
1664564266961,-0.59375,-0.5132446,0.2111206,5.546875,-4.9375,5.5625
1664564267009,-0.4951172,-0.55596924,0.24725342,5.859375,-5.96875,8.140625
1664564267037,-0.43969727,-0.6189575,0.23724365,-2.28125,-6.359375,8.28125
1664564267082,-0.5148926,-0.52838135,0.22601318,-3.890625,-7.4375,5.140625
1664564267127,-0.56030273,-0.49005127,0.27142334,-2.765625,-7.484375,4.046875
1664564267156,-0.54052734,-0.41949463,0.27508545,-2.859375,-7.375,2.140625
1664564267204,-0.6298828,-0.53619385,0.2975464,-6.609375,-4.84375,-5.359375
1664564267247,-0.6154785,-0.46759033,0.29388428,-1.75,-0.09375,-4.421875
1664564267279,-0.68066406,-0.59698486,0.38104248,-2.4375,-0.65625,-5.609375
1664564267322,-0.86865234,-0.6799927,0.33709717,-9.921875,-2.609375,-7.390625
1664564267367,-0.7939453,-0.661438,0.5114136,-1.65625,-0.703125,-2.953125
1664564267397,-0.954834,-0.8726196,0.3908081,-25.5625,3.421875,-1.359375
1664564267443,-0.7595215,-0.82598877,0.24261475,-16.1875,-11.703125,3.53125
1664564267487,-0.8408203,-0.62042236,0.3222046,-22.703125,-4.296875,-0.234375
1664564267517,-1.2282715,-0.7241821,0.38909912,-22.078125,12.109375,-2.0625
1664564267563,-0.9523926,-0.87677,0.19915771,-7.109375,1.484375,-1.875
1664564267607,-0.87768555,-0.6380005,0.39300537,1.59375,-3.703125,-4.203125
1664564267637,-0.9042969,-0.6880493,0.3439331,-1.6875,5.625,2.8125
1664564267682,-0.6472168,-0.6567993,0.17254639,-3.625,-7.25,5.375
1664564267727,-0.6386719,-0.46881104,0.24090576,14.265625,-3.59375,3.640625
1664564267756,-0.7722168,-0.61846924,0.31072998,36.234375,1.109375,6.65625
1664564267788,-0.7392578,-0.5733032,0.23968506,3.59375,-1.984375,5.125
1664564267847,-0.6665039,-0.5161743,0.26483154,12.953125,-0.765625,0.578125
1664564267879,-0.67041016,-0.50982666,0.33831787,4.59375,2.390625,-3.0625
1664564267907,-0.61987305,-0.3892212,0.24847412,-3.046875,1.515625,-3.53125
1664564267967,-0.5202637,-0.32476807,0.16375732,2.015625,9.46875,-6.171875
1664564267997,-0.6188965,-0.34088135,0.2753296,0.921875,9.46875,1.671875
1664564268026,-0.77612305,-0.45733643,0.31878662,2.5,10.59375,-5.453125
1664564268087,-0.5563965,-0.46539307,0.2514038,9.515625,9.109375,0.375
1664564268101,-0.888916,-0.46954346,0.3788452,-14.671875,3.5,-4.625
1664564268147,-0.9082031,-0.4661255,0.42010498,-1.515625,2.328125,-9.140625
1664564268207,-1.1030273,-0.80841064,0.2711792,-22.625,0.390625,-11.890625
1664564268222,-0.9873047,-0.8206177,0.3217163,33.34375,16.359375,-24.6875
1664564268267,-0.72509766,-0.89385986,0.5372925,22.6875,-3.28125,-17.34375
1664564268328,-1.0908203,-0.95147705,0.38690186,-35.015625,8.046875,0.03125
1664564268341,-1.1401367,-0.76446533,0.44158936,36.25,3.171875,-21.125
1664564268386,-0.7746582,-0.8272095,0.33465576,9.15625,11.375,0.453125
1664564268446,-0.8498535,-0.69610596,0.29144287,9.921875,-1.34375,-2.71875
1664564268462,-0.6899414,-0.63775635,0.32513428,7.453125,-2.203125,8.203125
1664564268507,-0.54541016,-0.5376587,0.2682495,17.109375,-6.109375,11.234375
1664564268536,-0.5969238,-0.5198364,0.24383545,4.0625,-3.46875,10.0625
1664564268581,-0.5957031,-0.68414307,0.307312,12.734375,-9.6875,13.6875
1664564268626,-0.6208496,-0.54473877,0.23651123,-1.140625,-4.046875,5.296875
1664564268656,-0.65893555,-0.46221924,0.30047607,-1.515625,-3.734375,5.75
1664564268701,-0.592041,-0.47418213,0.29388428,0.625,-2.53125,2.984375
1664564268747,-0.5703125,-0.5244751,0.32196045,-8.8125,-3.140625,1.484375
1664564268776,-0.68115234,-0.49420166,0.31048584,0.328125,1.890625,-0.203125
1664564268821,-0.67993164,-0.5029907,0.28485107,-4.421875,-4.25,-0.84375
1664564268866,-0.7702637,-0.5147095,0.34857178,5.203125,3.703125,-7.953125
1664564268896,-0.765625,-0.60821533,0.50115967,-6.703125,1.5625,-9.984375
1664564268942,-0.82177734,-0.5352173,0.45257568,-8.40625,1.09375,-12.53125
1664564268987,-0.85302734,-0.6189575,0.44647217,-2.078125,2.65625,-12.828125
1664564269016,-1.2941895,-0.9360962,0.5001831,-28.234375,6.890625,-1.59375
1664564269062,-1.3469238,-1.1477661,0.277771,-27.21875,6.0,13.28125
1664564269106,-0.29785156,-0.6116333,0.16815186,-10.3125,-20.40625,-4.875
1664564269136,-0.65283203,-0.1765747,0.49969482,-8.453125,-5.203125,8.296875
1664564269182,-0.8088379,-0.87994385,0.027282715,-29.25,-10.59375,8.890625
1664564269226,-0.67333984,-0.6880493,-0.042053223,-10.265625,-5.5,30.5
1664564269256,-0.94189453,-0.519104,0.43695068,69.1875,-20.40625,16.21875
1664564269288,-0.78515625,-0.6709595,0.23846436,-16.75,-8.21875,4.15625
1664564269347,-0.685791,-0.58843994,0.09051514,12.578125,-8.390625,7.328125
1664564269376,-0.79125977,-0.5835571,0.18499756,8.453125,-8.21875,7.03125
1664564269407,-0.78515625,-0.59576416,0.16912842,2.796875,-3.109375,2.328125
1664564269467,-0.74487305,-0.62164307,0.16253662,16.09375,1.203125,4.09375
1664564269496,-0.76049805,-0.7046509,0.21014404,-2.640625,-5.46875,4.0
1664564269526,-0.8015137,-0.5725708,0.18035889,-2.78125,-1.0625,3.21875
1664564269585,-0.8352051,-0.565979,0.26263428,-0.078125,0.90625,2.828125
