# Sensor type: Thingy
# Activity type: Climbing stairs
# Activity code: 12
# Subject id: s1912558
# Notes: 
timestamp,accel_x,accel_y,accel_z,gyro_x,gyro_y,gyro_z,mag_x,mag_y,mag_z
1664564454653,-0.8964844,-0.07714844,-0.2919922,5.78125,2.375,1.03125,0.0,0.0,0.0
1664564454692,-0.9111328,-0.0859375,-0.28222656,5.28125,1.03125,0.65625,0.0,0.0,0.0
1664564454732,-0.90527344,-0.078125,-0.28222656,3.90625,0.21875,0.53125,0.0,0.0,0.0
1664564454774,-0.8925781,-0.06933594,-0.2861328,5.34375,1.28125,0.46875,0.0,0.0,0.0
1664564454813,-0.890625,-0.06542969,-0.2841797,5.78125,3.21875,1.625,0.0,0.0,0.0
1664564454853,-0.8564453,-0.087890625,-0.30273438,6.5,3.59375,6.34375,0.0,0.0,0.0
1664564454893,-0.8330078,-0.13867188,-0.29589844,8.90625,-1.0,15.71875,0.0,0.0,0.0
1664564454932,-0.8808594,-0.18457031,-0.31640625,16.59375,5.1875,20.25,0.0,0.0,0.0
1664564454972,-0.9326172,-0.15039062,-0.23925781,22.5,12.4375,31.1875,0.0,0.0,0.0
1664564455013,-1.0341797,-0.09667969,-0.21875,10.84375,0.03125,28.1875,0.0,0.0,0.0
1664564455053,-1.0410156,-0.078125,-0.20507812,-7.9375,-12.15625,-6.0,-69.0,-8.8125,-131.875
1664564455093,-0.9267578,-0.17871094,-0.26171875,-17.90625,2.3125,-23.5,0.0,0.0,0.0
1664564455133,-0.8613281,-0.11425781,-0.25,-13.875,2.1875,-16.125,0.0,0.0,0.0
1664564455172,-0.87402344,-0.1015625,-0.2548828,-13.5625,-3.5,-9.15625,0.0,0.0,0.0
1664564455232,-0.8701172,-0.12890625,-0.25390625,-15.09375,1.09375,-4.96875,0.0,0.0,0.0
1664564455273,-0.9169922,-0.15429688,-0.2919922,-9.78125,3.71875,0.15625,0.0,0.0,0.0
1664564455292,-0.9560547,-0.13183594,-0.2529297,-8.0,-0.3125,-1.40625,0.0,0.0,0.0
1664564455334,-0.94140625,-0.19335938,-0.22753906,-9.46875,-3.375,-1.59375,0.0,0.0,0.0
1664564455373,-0.9199219,-0.19433594,-0.19335938,-9.53125,-4.28125,-3.4375,0.0,0.0,0.0
1664564455415,-0.92578125,-0.18945312,-0.17382812,-7.53125,-1.71875,-5.25,0.0,0.0,0.0
1664564455453,-0.9501953,-0.14550781,-0.13964844,-12.59375,-18.8125,-2.59375,0.0,0.0,0.0
1664564455495,-1.0205078,-0.203125,-0.4482422,0.46875,16.34375,-9.65625,0.0,0.0,0.0
1664564455533,-1.1220703,-0.2109375,-0.29296875,14.21875,-5.3125,6.6875,0.0,0.0,0.0
1664564455573,-1.1992188,0.08886719,-0.34179688,18.125,1.5,5.96875,-69.875,-12.25,-130.6875
1664564455613,-1.0439453,-0.13085938,-0.4560547,9.625,3.65625,-13.0625,0.0,0.0,0.0
1664564455672,-0.8730469,-0.0146484375,-0.5214844,24.875,5.78125,-8.4375,0.0,0.0,0.0
1664564455693,-0.9277344,0.27734375,-0.47753906,2.125,-6.65625,-5.625,0.0,0.0,0.0
1664564455736,-0.9082031,0.028320312,-0.3857422,-22.40625,-18.5625,-3.0,0.0,0.0,0.0
1664564455774,-0.9736328,-0.16113281,-0.359375,-17.78125,-34.3125,-2.53125,0.0,0.0,0.0
1664564455813,-0.9970703,-0.16210938,-0.18164062,-4.03125,-35.40625,14.3125,0.0,0.0,0.0
1664564455852,-0.8388672,-0.08203125,-0.16308594,12.5,-14.3125,33.96875,0.0,0.0,0.0
1664564455893,-0.7236328,-0.017578125,-0.1796875,25.625,-3.4375,52.40625,0.0,0.0,0.0
1664564455932,-0.7236328,-0.025390625,-0.13476562,35.5,11.09375,42.71875,0.0,0.0,0.0
1664564455973,-0.7480469,0.06542969,-0.171875,31.40625,12.0,40.75,0.0,0.0,0.0
1664564456013,-0.8173828,0.056640625,-0.17773438,37.03125,17.4375,35.625,0.0,0.0,0.0
1664564456053,-0.8466797,0.046875,-0.17089844,11.875,7.1875,34.40625,-67.8125,-5.1875,-131.3125
1664564456093,-0.8408203,0.047851562,-0.13378906,12.875,-9.90625,30.0,0.0,0.0,0.0
1664564456133,-0.8808594,0.0126953125,-0.005859375,18.40625,-20.53125,16.28125,0.0,0.0,0.0
1664564456173,-0.93652344,0.01171875,-0.015625,24.46875,-7.03125,10.375,0.0,0.0,0.0
1664564456212,-1.0224609,0.02734375,-0.08984375,31.25,5.40625,10.65625,0.0,0.0,0.0
1664564456252,-1.0976562,0.08496094,-0.25,32.9375,17.5,11.40625,0.0,0.0,0.0
1664564456293,-1.3525391,0.26660156,-0.50878906,8.78125,48.09375,15.125,0.0,0.0,0.0
1664564456332,-1.453125,0.30859375,-0.39160156,-11.96875,42.15625,12.25,0.0,0.0,0.0
1664564456373,-0.96875,0.056640625,-0.44140625,-14.125,25.4375,-25.09375,0.0,0.0,0.0
1664564456412,-0.59277344,0.013671875,-0.5859375,2.96875,89.78125,-31.5,0.0,0.0,0.0
1664564456473,-0.80566406,-0.018554688,-0.6435547,40.9375,-3.75,-17.59375,0.0,0.0,0.0
1664564456493,-1.0214844,-0.038085938,-0.234375,-7.28125,-40.375,-21.1875,0.0,0.0,0.0
1664564456532,-0.8222656,0.15332031,-0.4033203,-8.5625,14.28125,-35.53125,0.0,0.0,0.0
1664564456573,-0.67285156,-0.041015625,-0.36035156,-34.75,-31.5,-47.25,-68.25,-4.9375,-135.625
1664564456613,-0.5761719,-0.06738281,-0.21484375,-27.71875,-26.4375,-38.53125,0.0,0.0,0.0
1664564456653,-0.5654297,0.060546875,-0.3564453,-29.1875,5.34375,-33.875,0.0,0.0,0.0
1664564456696,-0.71191406,-0.06542969,-0.36035156,-54.21875,4.5,-31.4375,0.0,0.0,0.0
1664564456732,-0.75,-0.11035156,-0.29882812,-54.46875,6.8125,-21.1875,0.0,0.0,0.0
1664564456773,-0.92871094,-0.19238281,-0.27246094,-41.8125,5.125,-20.34375,0.0,0.0,0.0
1664564456813,-0.96191406,-0.28320312,-0.2734375,-25.46875,5.46875,-16.6875,0.0,0.0,0.0
1664564456852,-0.99902344,-0.22265625,-0.30566406,-1.71875,20.90625,-7.9375,0.0,0.0,0.0
1664564456893,-1.1923828,-0.091796875,-0.3466797,-9.53125,15.3125,-0.6875,0.0,0.0,0.0
1664564456933,-1.2919922,-0.23535156,-0.47558594,-20.28125,9.5625,-5.9375,0.0,0.0,0.0
1664564456972,-1.4277344,-0.23535156,-0.6533203,12.25,10.84375,-2.15625,0.0,0.0,0.0
1664564457033,-1.0029297,0.018554688,-0.58203125,18.90625,-5.03125,-7.65625,0.0,0.0,0.0
1664564457053,-0.5966797,0.11230469,-0.4111328,1.9375,-44.5,-11.4375,-64.8125,-11.5,-138.375
1664564457095,-0.7519531,0.005859375,-0.4013672,4.375,-48.125,2.65625,0.0,0.0,0.0
1664564457133,-0.88671875,-0.15722656,-0.31152344,6.28125,-35.34375,9.75,0.0,0.0,0.0
1664564457173,-0.9423828,-0.13476562,-0.27441406,17.5,-23.40625,19.34375,0.0,0.0,0.0
1664564457213,-0.78808594,0.013671875,-0.25097656,35.75,-3.125,30.3125,0.0,0.0,0.0
1664564457253,-0.7470703,0.09472656,-0.22460938,28.5625,-0.8125,33.6875,0.0,0.0,0.0
1664564457293,-0.69921875,-0.020507812,-0.22753906,17.8125,-4.90625,35.03125,0.0,0.0,0.0
1664564457335,-0.7285156,-0.09375,-0.19628906,22.5625,4.875,44.25,0.0,0.0,0.0
1664564457374,-0.83496094,9.765625E-4,-0.20410156,20.6875,-4.78125,41.1875,0.0,0.0,0.0
1664564457412,-0.93359375,0.04296875,-0.21777344,12.9375,-17.65625,40.15625,0.0,0.0,0.0
1664564457453,-0.91308594,0.09472656,-0.20019531,2.78125,-11.25,25.4375,0.0,0.0,0.0
1664564457493,-1.0117188,0.08691406,-0.13476562,14.625,-11.4375,10.96875,0.0,0.0,0.0
1664564457533,-1.2763672,0.10253906,-0.21191406,8.28125,-0.6875,-7.78125,0.0,0.0,0.0
1664564457573,-1.1259766,-0.017578125,-0.3154297,-8.1875,6.8125,-16.625,-64.8125,-2.1875,-133.875
1664564457615,-1.2167969,0.032226562,-0.41796875,8.59375,16.09375,-3.8125,0.0,0.0,0.0
1664564457653,-0.5576172,-0.00390625,-0.56347656,2.375,50.9375,-12.78125,0.0,0.0,0.0
1664564457693,-0.7285156,-0.060546875,-0.5527344,41.25,33.3125,-16.0,0.0,0.0,0.0
1664564457733,-1.0361328,0.0390625,-0.5175781,17.625,8.21875,1.6875,0.0,0.0,0.0
1664564457774,-0.87597656,0.048828125,-0.39746094,5.0625,8.53125,-11.1875,0.0,0.0,0.0
1664564457813,-0.8222656,-0.047851562,-0.3203125,1.875,-8.375,-20.34375,0.0,0.0,0.0
1664564457853,-0.6298828,-0.1171875,-0.23339844,-7.09375,-7.65625,-17.21875,0.0,0.0,0.0
1664564457893,-0.5917969,0.0146484375,-0.23632812,0.21875,5.21875,-5.25,0.0,0.0,0.0
1664564457935,-0.6738281,0.06933594,-0.25683594,-10.5,6.6875,-10.09375,0.0,0.0,0.0
1664564457973,-0.75878906,-0.018554688,-0.3564453,-25.84375,9.5,-13.25,0.0,0.0,0.0
1664564458013,-0.88378906,-0.030273438,-0.35253906,-30.46875,7.90625,-17.34375,0.0,0.0,0.0
1664564458053,-0.9296875,-0.14453125,-0.2841797,-38.78125,-6.96875,-27.53125,-66.0,-5.9375,-136.6875
1664564458093,-1.0673828,-0.26953125,-0.2578125,-18.5,-2.625,-21.5,0.0,0.0,0.0
1664564458134,-1.3017578,-0.18945312,-0.30566406,-13.6875,2.59375,-10.28125,0.0,0.0,0.0
1664564458173,-1.3603516,-0.17382812,-0.41210938,-17.46875,-0.1875,-13.8125,0.0,0.0,0.0
1664564458215,-1.3447266,-0.17480469,-0.54296875,-1.34375,3.03125,-15.625,0.0,0.0,0.0
1664564458255,-0.99902344,0.064453125,-0.6152344,17.1875,2.65625,-11.625,0.0,0.0,0.0
1664564458293,-0.63964844,0.20507812,-0.49414062,7.84375,-14.0625,-15.03125,0.0,0.0,0.0
1664564458333,-0.73535156,0.0087890625,-0.36914062,-5.15625,-35.34375,-7.40625,0.0,0.0,0.0
1664564458373,-0.9160156,-0.05859375,-0.3486328,-5.09375,-31.15625,-0.6875,0.0,0.0,0.0
1664564458412,-0.91503906,-0.11621094,-0.22460938,6.9375,-23.9375,5.46875,0.0,0.0,0.0
1664564458453,-0.7167969,-0.06542969,-0.17675781,16.59375,-7.46875,22.5625,0.0,0.0,0.0
1664564458495,-0.6669922,0.021484375,-0.21484375,17.875,5.28125,40.21875,0.0,0.0,0.0
1664564458553,-0.6269531,0.026367188,-0.20214844,11.65625,-2.59375,46.8125,0.0,0.0,0.0
1664564458573,-0.7626953,-0.037109375,-0.17871094,13.09375,7.625,44.71875,-65.6875,-3.5625,-134.3125
1664564458613,-0.87109375,-0.0107421875,-0.21679688,11.8125,3.90625,44.90625,0.0,0.0,0.0
1664564458653,-0.9433594,0.021484375,-0.17285156,8.46875,-8.3125,41.625,0.0,0.0,0.0
1664564458694,-1.0058594,0.10253906,-0.20703125,-6.375,-14.0625,26.40625,0.0,0.0,0.0
1664564458733,-1.0058594,0.08105469,-0.119140625,15.78125,-4.78125,9.5,0.0,0.0,0.0
1664564458773,-1.1972656,0.080078125,-0.28710938,2.96875,-14.0625,-9.90625,0.0,0.0,0.0
1664564458813,-1.3603516,0.072265625,-0.40722656,-8.6875,17.375,-27.125,0.0,0.0,0.0
1664564458973,-0.7246094,0.15527344,-0.58496094,-9.90625,30.4375,3.65625,0.0,0.0,0.0
1664564458975,-0.5800781,-0.041992188,-0.49023438,4.375,13.21875,-21.125,0.0,0.0,0.0
1664564458976,-0.8671875,-0.06347656,-0.50683594,28.0,13.78125,-1.71875,0.0,0.0,0.0
1664564458978,-0.87402344,0.0390625,-0.41601562,12.6875,13.15625,-3.4375,0.0,0.0,0.0
1664564459013,-0.7792969,0.032226562,-0.29492188,-5.5625,10.3125,-22.21875,0.0,0.0,0.0
1664564459052,-0.68847656,-0.061523438,-0.29785156,-13.875,-1.71875,-21.875,-67.8125,-1.0,-136.375
1664564459093,-0.5908203,0.00390625,-0.28125,-11.125,3.9375,-16.6875,0.0,0.0,0.0
1664564459173,-0.6621094,0.0,-0.33203125,-12.59375,9.75,-11.375,0.0,0.0,0.0
1664564459175,-0.7626953,0.0126953125,-0.3515625,-22.53125,10.78125,-14.71875,0.0,0.0,0.0
1664564459214,-0.8359375,-0.048828125,-0.3388672,-35.28125,2.78125,-11.25,0.0,0.0,0.0
1664564459293,-0.953125,-0.15429688,-0.33789062,-30.40625,9.1875,-19.5,0.0,0.0,0.0
1664564459295,-1.0068359,-0.15820312,-0.34277344,-24.1875,12.0625,-24.0,0.0,0.0,0.0
1664564459413,-1.1621094,-0.18066406,-0.35546875,-24.6875,5.28125,-25.59375,0.0,0.0,0.0
1664564459415,-1.3408203,-0.24414062,-0.37402344,-23.9375,-13.8125,-13.25,0.0,0.0,0.0
1664564459416,-1.1855469,-0.15136719,-0.5097656,-11.78125,3.34375,-3.90625,0.0,0.0,0.0
1664564459453,-1.1289062,-0.13085938,-0.6113281,15.78125,6.9375,-3.125,0.0,0.0,0.0
1664564459492,-0.8095703,0.1484375,-0.5839844,23.84375,-3.375,-3.5625,0.0,0.0,0.0
1664564459534,-0.68652344,0.20507812,-0.4638672,23.0625,-15.59375,-9.90625,0.0,0.0,0.0
1664564459574,-0.7607422,0.06347656,-0.43359375,-0.875,-29.8125,-6.90625,-68.25,-5.9375,-137.75
1664564459613,-0.9277344,-0.076171875,-0.36035156,1.15625,-26.5,-8.4375,0.0,0.0,0.0
1664564459652,-0.8828125,-0.07128906,-0.24804688,10.53125,-19.1875,13.84375,0.0,0.0,0.0
1664564459694,-0.7861328,0.017578125,-0.20898438,14.6875,-7.09375,28.5,0.0,0.0,0.0
1664564459733,-0.7480469,-0.0146484375,-0.22460938,7.625,-16.125,34.46875,0.0,0.0,0.0
1664564459774,-0.6699219,-0.091796875,-0.18261719,11.59375,-18.4375,34.46875,0.0,0.0,0.0
1664564459813,-0.81933594,0.01953125,-0.15820312,29.40625,-3.375,41.375,0.0,0.0,0.0
1664564459853,-0.8486328,0.01171875,-0.15722656,18.40625,1.09375,33.25,0.0,0.0,0.0
1664564459893,-0.87402344,-0.024414062,-0.16699219,22.375,-17.84375,31.0,0.0,0.0,0.0
1664564459934,-1.0039062,0.068359375,-0.1953125,13.15625,-11.125,34.71875,0.0,0.0,0.0
1664564459972,-1.0185547,0.14648438,-0.10839844,19.28125,-3.4375,19.46875,0.0,0.0,0.0
1664564460013,-1.1650391,0.15722656,-0.23535156,13.65625,1.4375,4.125,0.0,0.0,0.0
1664564460053,-1.5,0.08691406,-0.30078125,-16.625,7.125,-12.28125,-67.8125,3.3125,-133.6875
1664564460092,-1.0996094,0.052734375,-0.44433594,-17.90625,21.34375,-5.5,0.0,0.0,0.0
1664564460134,-0.6425781,0.036132812,-0.49023438,-11.1875,33.6875,-32.0625,0.0,0.0,0.0
1664564460173,-0.6904297,-0.111328125,-0.52441406,19.875,23.0,-25.09375,0.0,0.0,0.0
1664564460214,-0.9277344,-0.045898438,-0.44140625,18.96875,9.375,2.0625,0.0,0.0,0.0
1664564460253,-0.86621094,0.022460938,-0.35546875,1.15625,15.65625,-14.40625,0.0,0.0,0.0
1664564460293,-0.72753906,0.045898438,-0.33203125,-6.5,2.59375,-20.71875,0.0,0.0,0.0
1664564460333,-0.6513672,-0.11328125,-0.28320312,-11.78125,-2.40625,-29.25,0.0,0.0,0.0
1664564460373,-0.6152344,-0.02734375,-0.27539062,-0.5,8.65625,-13.5625,0.0,0.0,0.0
1664564460413,-0.6933594,0.0703125,-0.35058594,-18.21875,12.5,-14.125,0.0,0.0,0.0
1664564460453,-0.80859375,-0.009765625,-0.3642578,-34.625,7.0625,-16.625,0.0,0.0,0.0
1664564460495,-0.9189453,-0.107421875,-0.3935547,-37.75,9.75,-16.4375,0.0,0.0,0.0
1664564460533,-1.0869141,-0.15332031,-0.3515625,-30.53125,2.3125,-19.0625,0.0,0.0,0.0
1664564460573,-1.1923828,-0.29589844,-0.33691406,-28.65625,-2.59375,-23.03125,-68.25,-3.875,-134.3125
1664564460613,-1.21875,-0.19335938,-0.390625,-16.9375,1.21875,-14.34375,0.0,0.0,0.0
1664564460653,-1.2011719,-0.09375,-0.5078125,-15.40625,-7.03125,-13.5625,0.0,0.0,0.0
1664564460694,-1.0146484,0.032226562,-0.5683594,6.625,-13.5625,-24.0,0.0,0.0,0.0
1664564460735,-0.72753906,0.12402344,-0.5078125,13.90625,-7.65625,-16.5625,0.0,0.0,0.0
1664564460773,-0.8046875,0.068359375,-0.3984375,3.71875,-37.625,-0.875,0.0,0.0,0.0
1664564460816,-0.86621094,-0.0859375,-0.32128906,7.8125,-28.6875,-1.59375,0.0,0.0,0.0
1664564460854,-0.86816406,-0.12597656,-0.2421875,9.4375,-36.75,-0.5,0.0,0.0,0.0
1664564460893,-0.7470703,-0.03515625,-0.18164062,19.8125,-22.46875,20.8125,0.0,0.0,0.0
1664564460933,-0.64160156,0.034179688,-0.19335938,25.5,7.625,35.3125,0.0,0.0,0.0
1664564460973,-0.6513672,-0.061523438,-0.21484375,20.125,-2.6875,36.65625,0.0,0.0,0.0
1664564461013,-0.8173828,-0.041015625,-0.13964844,23.59375,-3.0625,49.25,0.0,0.0,0.0
1664564461053,-0.9873047,-0.037109375,-0.23925781,22.875,-1.3125,57.59375,-66.75,-2.8125,-130.25
1664564461095,-0.89746094,0.022460938,-0.14453125,24.65625,7.375,33.25,0.0,0.0,0.0
1664564461133,-0.9902344,0.16503906,-0.18554688,14.09375,-0.5,28.71875,0.0,0.0,0.0
1664564461172,-1.0341797,0.15234375,-0.171875,12.1875,1.75,15.625,0.0,0.0,0.0
1664564461213,-1.0644531,0.08300781,-0.16992188,8.34375,-7.21875,-0.3125,0.0,0.0,0.0
1664564461254,-1.0273438,0.048828125,-0.3466797,-10.875,-8.875,-18.9375,0.0,0.0,0.0
1664564461293,-1.3818359,0.06738281,-0.48632812,-5.09375,17.1875,-21.25,0.0,0.0,0.0
1664564461333,-0.7529297,0.0,-0.59277344,-14.46875,42.15625,-26.125,0.0,0.0,0.0
1664564461373,-0.6972656,-0.08496094,-0.4892578,15.5625,26.28125,-29.6875,0.0,0.0,0.0
1664564461412,-0.88183594,-0.03515625,-0.5751953,22.5,25.75,-0.625,0.0,0.0,0.0
1664564461455,-0.8886719,0.07128906,-0.38183594,12.3125,16.40625,-11.25,0.0,0.0,0.0
1664564461493,-0.75683594,0.028320312,-0.30859375,-8.25,0.46875,-23.21875,0.0,0.0,0.0
1664564461532,-0.6513672,-0.08886719,-0.27246094,-15.6875,-7.15625,-24.1875,0.0,0.0,0.0
1664564461573,-0.6191406,-0.10546875,-0.25585938,-12.40625,-4.71875,-24.96875,-68.125,-2.6875,-132.5
1664564461613,-0.70410156,-0.009765625,-0.34765625,-15.75,4.1875,-10.75,0.0,0.0,0.0
1664564461653,-0.7949219,-0.028320312,-0.31054688,-35.125,-4.65625,-8.8125,0.0,0.0,0.0
1664564461694,-0.81933594,-0.1015625,-0.34179688,-32.71875,7.5,-3.125,0.0,0.0,0.0
1664564461733,-0.9296875,-0.11328125,-0.30273438,-33.40625,14.09375,-2.59375,0.0,0.0,0.0
1664564461773,-1.0488281,-0.29492188,-0.24902344,-26.5625,-6.0,-10.15625,0.0,0.0,0.0
1664564461793,-1.2421875,-0.3388672,-0.25585938,-5.625,-1.90625,-5.625,0.0,0.0,0.0
1664564461833,-1.2753906,-0.15039062,-0.3544922,1.21875,6.875,1.21875,0.0,0.0,0.0
1664564461873,-1.2421875,-0.12792969,-0.5126953,-2.03125,-0.125,-4.40625,0.0,0.0,0.0
1664564461913,-1.1464844,0.064453125,-0.7285156,24.21875,12.8125,-13.6875,0.0,0.0,0.0
1664564461953,-0.7451172,0.15722656,-0.5576172,28.125,7.5625,-11.71875,0.0,0.0,0.0
1664564461993,-0.69921875,0.12402344,-0.4404297,-2.75,-27.84375,-3.4375,0.0,0.0,0.0
1664564462052,-0.7792969,-0.043945312,-0.29101562,-22.28125,-44.75,-8.1875,-67.8125,-6.4375,-132.9375
1664564462073,-0.89746094,-0.14453125,-0.26660156,-8.375,-43.15625,-8.5625,0.0,0.0,0.0
1664564462113,-0.79003906,-0.07128906,-0.19824219,8.90625,-15.75,20.5,0.0,0.0,0.0
1664564462153,-0.69433594,0.030273438,-0.21191406,17.25,2.90625,36.4375,0.0,0.0,0.0
1664564462193,-0.6923828,-0.041992188,-0.21777344,12.3125,-11.84375,40.15625,0.0,0.0,0.0
1664564462233,-0.8066406,-0.013671875,-0.21386719,29.78125,0.59375,42.65625,0.0,0.0,0.0
1664564462272,-0.87890625,0.030273438,-0.19824219,12.875,-4.96875,29.15625,0.0,0.0,0.0
1664564462313,-0.875,0.055664062,-0.21191406,21.71875,14.375,32.15625,0.0,0.0,0.0
1664564462353,-0.9951172,0.030273438,-0.18945312,9.5,4.8125,19.625,0.0,0.0,0.0
1664564462393,-0.91796875,0.10839844,-0.18359375,7.125,-7.15625,9.5,0.0,0.0,0.0
1664564462433,-1.0400391,0.12402344,-0.18457031,0.40625,0.46875,-4.34375,0.0,0.0,0.0
1664564462473,-1.2236328,0.06542969,-0.3779297,-34.75,-3.4375,-40.53125,0.0,0.0,0.0
1664564462514,-1.0839844,-0.087890625,-0.5,-12.15625,31.1875,-8.6875,0.0,0.0,0.0
1664564462573,-0.74902344,-0.10546875,-0.4892578,-2.03125,10.78125,-16.5,-66.0,-2.8125,-132.9375
1664564462593,-0.78222656,0.02734375,-0.45507812,20.0,28.4375,-1.1875,0.0,0.0,0.0
1664564462633,-0.8642578,0.09765625,-0.5517578,27.09375,22.9375,4.25,0.0,0.0,0.0
1664564462673,-0.81640625,0.09472656,-0.3984375,-8.4375,-0.875,-21.9375,0.0,0.0,0.0
1664564462713,-0.74609375,-0.13085938,-0.34765625,-19.96875,-12.53125,-28.65625,0.0,0.0,0.0
1664564462753,-0.70410156,-0.15527344,-0.30273438,-17.84375,0.65625,-26.6875,0.0,0.0,0.0
1664564462813,-0.6376953,0.020507812,-0.265625,-9.96875,4.8125,-7.78125,0.0,0.0,0.0
1664564462833,-0.6826172,0.09082031,-0.32226562,-30.90625,2.4375,-14.25,0.0,0.0,0.0
1664564462873,-0.7167969,-0.15332031,-0.31835938,-49.5625,-2.15625,-22.34375,0.0,0.0,0.0
1664564462993,-0.88671875,-0.11621094,-0.32617188,-38.15625,2.90625,-2.59375,0.0,0.0,0.0
1664564463015,-0.9160156,-0.14355469,-0.31445312,-28.09375,14.28125,-8.1875,0.0,0.0,0.0
1664564463017,-1.1162109,-0.21875,-0.31933594,-24.5,13.96875,-9.78125,0.0,0.0,0.0
1664564463053,-1.2011719,-0.3076172,-0.34960938,-16.75,6.34375,-0.1875,-67.625,-9.125,-135.1875
1664564463073,-1.2666016,-0.12109375,-0.39746094,1.21875,12.5,4.125,0.0,0.0,0.0
1664564463115,-1.2910156,-0.08691406,-0.56640625,9.9375,2.1875,-6.5,0.0,0.0,0.0
1664564463153,-0.96191406,0.091796875,-0.609375,24.46875,1.28125,-22.65625,0.0,0.0,0.0
1664564463193,-0.71777344,0.2265625,-0.4873047,14.8125,-7.875,-34.8125,0.0,0.0,0.0
1664564463233,-0.7597656,0.0859375,-0.43554688,-6.96875,-30.78125,-14.59375,0.0,0.0,0.0
1664564463272,-0.9716797,-0.17871094,-0.38671875,0.59375,-35.21875,-8.125,0.0,0.0,0.0
1664564463313,-0.9423828,-0.16699219,-0.24804688,18.46875,-26.9375,8.34375,0.0,0.0,0.0
1664564463353,-0.7841797,-0.048828125,-0.2548828,28.71875,-7.40625,28.3125,0.0,0.0,0.0
1664564463393,-0.7128906,0.029296875,-0.24121094,25.125,2.90625,37.15625,0.0,0.0,0.0
1664564463433,-0.7128906,-0.029296875,-0.27929688,24.15625,-11.625,43.4375,0.0,0.0,0.0
1664564463473,-0.7324219,-0.01953125,-0.21386719,27.75,-13.625,48.25,0.0,0.0,0.0
1664564463513,-0.8173828,0.009765625,-0.18847656,36.65625,2.4375,42.78125,0.0,0.0,0.0
1664564463573,-0.8339844,0.047851562,-0.24121094,22.375,3.84375,35.1875,-65.5625,-3.6875,-131.4375
1664564463593,-0.9267578,0.051757812,-0.15332031,16.9375,-10.8125,24.40625,0.0,0.0,0.0
1664564463634,-1.0449219,0.09765625,-0.20214844,8.53125,-1.59375,14.15625,0.0,0.0,0.0
1664564463673,-1.0693359,0.09375,-0.25,0.40625,-2.875,-2.15625,0.0,0.0,0.0
1664564463713,-1.1914062,0.12011719,-0.265625,-20.9375,6.34375,-30.71875,0.0,0.0,0.0
1664564463753,-1.1347656,0.056640625,-0.5058594,-24.3125,30.875,2.1875,0.0,0.0,0.0
1664564463793,-0.5644531,-0.09375,-0.5019531,-15.03125,6.09375,-22.15625,0.0,0.0,0.0
1664564463833,-0.87597656,-0.18457031,-0.52734375,28.125,7.5,-9.28125,0.0,0.0,0.0
1664564463874,-0.9199219,0.017578125,-0.53808594,18.34375,25.8125,-1.46875,0.0,0.0,0.0
1664564463913,-0.81347656,0.095703125,-0.4169922,-0.6875,13.46875,-17.53125,0.0,0.0,0.0
1664564463953,-0.79296875,-0.08105469,-0.35351562,-20.21875,-3.8125,-22.65625,0.0,0.0,0.0
1664564463993,-0.7558594,-0.15429688,-0.33007812,-14.90625,-1.96875,-22.65625,0.0,0.0,0.0
1664564464052,-0.60253906,-0.055664062,-0.26660156,-7.8125,1.5625,-26.125,-67.625,-4.75,-135.1875
1664564464073,-0.7001953,0.0068359375,-0.33007812,-10.34375,12.3125,-11.125,0.0,0.0,0.0
1664564464113,-0.6767578,0.08984375,-0.33007812,-31.8125,8.46875,-4.46875,0.0,0.0,0.0
1664564464153,-0.9013672,-0.0048828125,-0.3359375,-54.8125,-2.9375,-11.375,0.0,0.0,0.0
1664564464194,-0.9511719,-0.28027344,-0.3203125,-36.28125,-9.65625,-14.78125,0.0,0.0,0.0
1664564464233,-1.0380859,-0.36132812,-0.31835938,-9.0,9.03125,-17.78125,0.0,0.0,0.0
1664564464273,-1.2695312,-0.22558594,-0.34960938,4.1875,6.625,-0.3125,0.0,0.0,0.0
1664564464333,-1.2236328,-0.12109375,-0.34179688,-5.15625,-8.5625,-1.53125,0.0,0.0,0.0
1664564464353,-1.1660156,-0.043945312,-0.6044922,9.375,7.6875,-11.4375,0.0,0.0,0.0
1664564464395,-0.9863281,0.11816406,-0.62890625,19.53125,10.25,-21.875,0.0,0.0,0.0
1664564464433,-0.7294922,0.13378906,-0.52734375,13.28125,-6.5,-26.375,0.0,0.0,0.0
1664564464473,-0.79589844,0.12109375,-0.40429688,-1.59375,-28.9375,-4.78125,0.0,0.0,0.0
1664564464514,-1.0263672,-0.09667969,-0.3984375,-3.375,-28.09375,-4.34375,0.0,0.0,0.0
1664564464573,-0.984375,-0.18066406,-0.23925781,15.625,-28.8125,9.25,-65.125,-9.6875,-134.875
1664564464593,-0.71972656,-0.07128906,-0.20996094,18.34375,-15.53125,26.15625,0.0,0.0,0.0
1664564464634,-0.67285156,0.05078125,-0.22363281,18.34375,4.4375,32.5625,0.0,0.0,0.0
1664564464673,-0.66503906,-0.02734375,-0.2109375,19.5625,-4.53125,38.375,0.0,0.0,0.0
1664564464713,-0.73828125,0.024414062,-0.1953125,11.9375,-9.46875,45.75,0.0,0.0,0.0
1664564464753,-0.8876953,0.009765625,-0.18554688,16.15625,-2.03125,37.9375,0.0,0.0,0.0
1664564464793,-1.0087891,-0.026367188,-0.19042969,12.875,7.0,29.03125,0.0,0.0,0.0
1664564464833,-1.0048828,0.041992188,-0.23632812,13.40625,10.78125,26.28125,0.0,0.0,0.0
1664564464873,-1.0390625,0.060546875,-0.16015625,11.71875,-3.6875,19.34375,0.0,0.0,0.0
1664564464913,-0.9873047,0.15332031,-0.25976562,13.15625,-7.28125,0.34375,0.0,0.0,0.0
1664564464953,-1.2109375,0.028320312,-0.5605469,-5.9375,10.3125,-19.3125,0.0,0.0,0.0
1664564464993,-0.8984375,0.06933594,-0.59765625,-10.875,30.5,-8.4375,0.0,0.0,0.0
1664564465053,-0.6484375,-0.10253906,-0.4375,6.5,1.375,-33.28125,-65.5625,-2.1875,-135.1875
1664564465093,-0.83203125,-0.01171875,-0.4970703,15.71875,23.1875,-17.53125,0.0,0.0,0.0
1664564465113,-0.89746094,-0.036132812,-0.453125,8.78125,16.34375,-11.125,0.0,0.0,0.0
1664564465153,-0.79589844,-0.009765625,-0.3935547,-2.6875,1.5625,-22.53125,0.0,0.0,0.0
1664564465194,-0.81640625,-0.10644531,-0.27539062,-14.84375,-11.4375,-22.78125,0.0,0.0,0.0
1664564465233,-0.69628906,-0.13574219,-0.31445312,-13.03125,-1.78125,-18.5625,0.0,0.0,0.0
1664564465273,-0.6230469,0.056640625,-0.36523438,-10.625,1.5625,-11.6875,0.0,0.0,0.0
1664564465313,-0.60546875,0.060546875,-0.3486328,-31.6875,-14.96875,-18.5,0.0,0.0,0.0
1664564465353,-0.7636719,-0.12890625,-0.34765625,-49.5625,-15.8125,-20.28125,0.0,0.0,0.0
1664564465393,-0.9951172,-0.27441406,-0.3359375,-42.0,0.09375,-4.65625,0.0,0.0,0.0
1664564465433,-1.0976562,-0.31347656,-0.2607422,-26.5,5.0625,0.21875,0.0,0.0,0.0
1664564465473,-1.1708984,-0.35253906,-0.2529297,-1.84375,0.0,3.9375,0.0,0.0,0.0
1664564465513,-1.1962891,-0.22460938,-0.32714844,37.46875,10.53125,7.375,0.0,0.0,0.0
1664564465573,-1.1816406,0.0234375,-0.59375,41.96875,23.53125,2.5,-66.4375,-7.0,-134.3125
1664564465593,-1.0048828,0.20605469,-0.7363281,33.4375,11.65625,-17.34375,0.0,0.0,0.0
1664564465633,-0.78125,0.15234375,-0.54296875,12.875,-7.8125,-13.875,0.0,0.0,0.0
1664564465673,-0.6748047,0.064453125,-0.43652344,-2.28125,-23.40625,0.65625,0.0,0.0,0.0
1664564465717,-0.8339844,-0.0087890625,-0.3544922,-12.46875,-18.8125,1.03125,0.0,0.0,0.0
1664564465753,-0.84765625,-0.16796875,-0.26757812,0.53125,-23.03125,8.21875,0.0,0.0,0.0
1664564465813,-0.8095703,-0.020507812,-0.27539062,13.71875,-13.375,27.6875,0.0,0.0,0.0
1664564465853,-0.74609375,0.07519531,-0.22265625,11.21875,0.84375,31.25,0.0,0.0,0.0
1664564465873,-0.7451172,-0.06542969,-0.21777344,-0.4375,-12.78125,24.21875,0.0,0.0,0.0
1664564465914,-0.78808594,-0.103515625,-0.16796875,9.6875,-14.65625,37.46875,0.0,0.0,0.0
1664564465953,-0.92089844,-0.0146484375,-0.21679688,12.0,7.75,32.03125,0.0,0.0,0.0
1664564465993,-0.87890625,0.017578125,-0.21972656,12.0625,7.625,23.71875,0.0,0.0,0.0
1664564466053,-0.9423828,0.048828125,-0.2109375,3.71875,-7.03125,17.75,-67.625,-2.1875,-133.125
1664564466073,-0.99609375,0.022460938,-0.16210938,7.5625,-12.28125,9.5,0.0,0.0,0.0
1664564466114,-1.0927734,-9.765625E-4,-0.21679688,8.65625,-0.625,-2.21875,0.0,0.0,0.0
1664564466153,-0.9267578,-0.0625,-0.3642578,-2.40625,-1.65625,-15.40625,0.0,0.0,0.0
1664564466193,-1.515625,0.083984375,-0.5449219,-3.5625,35.625,-2.09375,0.0,0.0,0.0
1664564466233,-0.71777344,0.099609375,-0.57910156,-11.78125,39.65625,-7.9375,0.0,0.0,0.0
1664564466273,-0.6767578,-0.07324219,-0.48339844,23.84375,16.71875,-15.59375,0.0,0.0,0.0
1664564466313,-0.7451172,-0.041015625,-0.6142578,22.375,35.375,6.75,0.0,0.0,0.0
1664564466352,-0.90527344,0.0625,-0.38085938,1.5625,0.03125,-2.59375,0.0,0.0,0.0
1664564466394,-0.81640625,0.00390625,-0.3017578,-12.65625,8.59375,-16.0,0.0,0.0,0.0
1664564466433,-0.7705078,-0.13183594,-0.3173828,-19.59375,-7.46875,-25.59375,0.0,0.0,0.0
1664564466473,-0.66308594,-0.13769531,-0.23339844,-7.8125,-19.25,-27.3125,0.0,0.0,0.0
1664564466513,-0.6152344,-0.04296875,-0.2841797,-2.59375,-5.625,-21.25,0.0,0.0,0.0
1664564466614,-0.78125,-0.044921875,-0.37695312,-12.03125,5.90625,-15.9375,-66.75,-5.6875,-134.0
1664564466616,-0.8251953,-0.036132812,-0.3720703,-27.46875,7.5,-10.6875,0.0,0.0,0.0
1664564466632,-0.9482422,-0.17675781,-0.29882812,-40.25,-0.9375,-15.03125,0.0,0.0,0.0
1664564466674,-1.1230469,-0.3017578,-0.28125,-30.09375,-7.15625,-11.71875,0.0,0.0,0.0
1664564466714,-1.2587891,-0.29492188,-0.29882812,-13.6875,1.375,-9.90625,0.0,0.0,0.0
1664564466755,-1.1806641,-0.171875,-0.38867188,-11.96875,-4.15625,-1.25,0.0,0.0,0.0
1664564466794,-1.2236328,-0.015625,-0.73339844,10.59375,11.34375,-9.65625,0.0,0.0,0.0
1664564466833,-0.8857422,0.07128906,-0.6171875,18.65625,2.96875,-17.65625,0.0,0.0,0.0
1664564466873,-0.7685547,0.1875,-0.44140625,3.15625,-17.71875,-13.875,0.0,0.0,0.0
1664564466913,-0.7167969,-0.05078125,-0.3857422,-0.5625,-43.96875,-11.375,0.0,0.0,0.0
1664564466954,-0.89746094,-0.15234375,-0.29492188,16.71875,-25.34375,-5.03125,0.0,0.0,0.0
1664564466993,-0.79785156,-0.009765625,-0.24316406,15.625,-18.15625,16.15625,0.0,0.0,0.0
1664564467033,-0.7636719,0.021484375,-0.21972656,9.75,0.65625,24.09375,-65.5625,-8.375,-131.75
1664564467074,-0.7626953,-0.013671875,-0.2763672,6.34375,-0.125,32.09375,0.0,0.0,0.0
1664564467113,-0.7714844,-0.09277344,-0.22265625,0.90625,-22.71875,41.4375,0.0,0.0,0.0
1664564467153,-0.8408203,-0.034179688,-0.1328125,15.25,-5.03125,37.15625,0.0,0.0,0.0
1664564467193,-0.9433594,-0.032226562,-0.20507812,11.71875,2.375,29.59375,0.0,0.0,0.0
1664564467233,-0.9296875,-0.06640625,-0.21289062,12.5625,2.5,22.9375,0.0,0.0,0.0
1664564467273,-0.97753906,-0.020507812,-0.20019531,9.3125,-15.03125,19.46875,0.0,0.0,0.0
1664564467313,-0.99316406,0.057617188,-0.0859375,13.59375,-19.5,11.65625,0.0,0.0,0.0
1664564467373,-1.0830078,0.07421875,-0.18945312,9.5625,-9.15625,-0.9375,0.0,0.0,0.0
1664564467393,-1.2568359,-0.013671875,-0.24414062,-3.125,1.4375,-16.0625,0.0,0.0,0.0
1664564467433,-1.3193359,0.043945312,-0.4423828,-15.03125,33.5,6.5625,0.0,0.0,0.0
1664564467473,-0.62402344,0.022460938,-0.51660156,-6.3125,20.90625,-12.90625,0.0,0.0,0.0
1664564467513,-0.80566406,-0.115234375,-0.44628906,22.4375,0.71875,-25.59375,0.0,0.0,0.0
1664564467554,-0.85058594,-0.08300781,-0.4501953,20.4375,15.65625,-13.625,-67.1875,-4.1875,-131.875
1664564467593,-0.8066406,0.0068359375,-0.36621094,8.59375,9.09375,-16.4375,0.0,0.0,0.0
1664564467633,-0.765625,0.0107421875,-0.32617188,-8.3125,0.59375,-21.5,0.0,0.0,0.0
1664564467673,-0.6923828,-0.109375,-0.2607422,-9.78125,-0.625,-23.21875,0.0,0.0,0.0
1664564467713,-0.6484375,-0.083984375,-0.27441406,-15.09375,-1.46875,-16.25,0.0,0.0,0.0
1664564467752,-0.69921875,-0.015625,-0.29296875,-23.9375,3.53125,-6.5,0.0,0.0,0.0
1664564467793,-0.78515625,-0.08300781,-0.3017578,-32.0,-2.9375,-6.71875,0.0,0.0,0.0
1664564467833,-0.8339844,-0.10839844,-0.27929688,-30.53125,9.6875,-10.03125,0.0,0.0,0.0
1664564467877,-0.96875,-0.16210938,-0.2841797,-33.53125,8.15625,-9.96875,0.0,0.0,0.0
1664564467913,-1.1210938,-0.20605469,-0.27441406,-39.9375,7.4375,-9.0625,0.0,0.0,0.0
1664564467953,-1.3144531,-0.3359375,-0.32910156,-37.6875,-0.875,-15.6875,0.0,0.0,0.0
1664564467994,-1.3027344,-0.3125,-0.48828125,-19.71875,-5.5,-14.3125,0.0,0.0,0.0
1664564468033,-1.2841797,-0.032226562,-0.62890625,22.875,13.59375,-17.15625,-66.3125,-9.4375,-135.5
1664564468073,-0.8642578,0.23046875,-0.6513672,40.03125,15.375,-11.25,0.0,0.0,0.0
1664564468134,-0.6796875,0.20117188,-0.4248047,0.78125,-25.53125,-15.40625,0.0,0.0,0.0
1664564468153,-0.74316406,-0.040039062,-0.37597656,-0.4375,-39.25,0.34375,0.0,0.0,0.0
1664564468194,-0.94140625,-0.091796875,-0.27148438,11.53125,-22.46875,-0.375,0.0,0.0,0.0
1664564468233,-0.8203125,-0.13867188,-0.23632812,23.125,-23.5625,13.84375,0.0,0.0,0.0
1664564468273,-0.6875,-0.026367188,-0.1953125,23.0625,-2.40625,33.5,0.0,0.0,0.0
1664564468313,-0.6513672,0.0146484375,-0.22460938,28.65625,3.65625,46.90625,0.0,0.0,0.0
1664564468354,-0.73046875,-0.05859375,-0.17480469,33.4375,5.78125,46.8125,0.0,0.0,0.0
1664564468393,-0.8808594,0.055664062,-0.20605469,21.34375,16.71875,54.5625,0.0,0.0,0.0
1664564468433,-0.9082031,0.036132812,-0.18945312,13.59375,11.59375,39.34375,0.0,0.0,0.0
1664564468473,-0.9277344,0.015625,-0.25097656,6.34375,10.78125,25.9375,0.0,0.0,0.0
1664564468513,-1.0078125,0.07519531,-0.16503906,8.71875,-8.875,18.71875,0.0,0.0,0.0
1664564468554,-1.1015625,0.099609375,-0.18847656,8.65625,-10.625,10.84375,-69.3125,-4.1875,-132.9375
1664564468593,-1.1210938,-9.765625E-4,-0.26367188,-6.90625,-38.71875,-9.15625,0.0,0.0,0.0
1664564468633,-1.28125,0.025390625,-0.39453125,3.78125,0.53125,-15.03125,0.0,0.0,0.0
1664564468673,-0.8339844,0.083984375,-0.60839844,-7.21875,45.8125,3.78125,0.0,0.0,0.0
1664564468714,-0.53027344,-0.056640625,-0.51464844,10.84375,14.5,-20.84375,0.0,0.0,0.0
1664564468754,-0.78027344,-0.00390625,-0.5517578,19.5625,21.59375,-4.90625,0.0,0.0,0.0
1664564468794,-0.9189453,0.0048828125,-0.43847656,-7.59375,8.40625,-4.03125,0.0,0.0,0.0
1664564468833,-0.7949219,-0.022460938,-0.31054688,-13.5,4.75,-18.9375,0.0,0.0,0.0
1664564468894,-0.71191406,-0.061523438,-0.28222656,-15.875,14.3125,-23.8125,0.0,0.0,0.0
1664564468914,-0.66015625,-0.06347656,-0.26367188,-17.90625,4.4375,-22.53125,0.0,0.0,0.0
1664564468954,-0.66308594,-0.078125,-0.29882812,-18.15625,9.1875,-16.25,0.0,0.0,0.0
1664564468993,-0.796875,-0.022460938,-0.36132812,-29.5,3.65625,-11.90625,0.0,0.0,0.0
1664564469035,-0.8173828,-0.06347656,-0.35351562,-26.125,5.0,-14.0625,-68.125,-7.3125,-136.5625
1664564469074,-0.9736328,-0.13671875,-0.359375,-26.9375,3.71875,-21.375,0.0,0.0,0.0
1664564469113,-1.1113281,-0.25390625,-0.3544922,-24.0625,0.78125,-20.65625,0.0,0.0,0.0
1664564469153,-1.2617188,-0.26367188,-0.3671875,-13.6875,-4.65625,-10.15625,0.0,0.0,0.0
1664564469193,-1.1474609,-0.20507812,-0.34375,-5.6875,-9.53125,-6.71875,0.0,0.0,0.0
1664564469233,-1.1279297,-0.09667969,-0.59277344,13.90625,4.3125,-7.59375,0.0,0.0,0.0
1664564469273,-0.98828125,0.09765625,-0.6591797,17.8125,2.125,-17.59375,0.0,0.0,0.0
1664564469313,-0.74316406,0.12792969,-0.5439453,14.28125,0.96875,-20.03125,0.0,0.0,0.0
1664564469353,-0.7578125,0.06933594,-0.44433594,-1.0,-28.65625,8.15625,0.0,0.0,0.0
1664564469393,-0.91015625,-0.051757812,-0.36621094,0.65625,-33.40625,-1.78125,0.0,0.0,0.0
1664564469434,-1.0771484,-0.15039062,-0.2998047,11.8125,-29.5625,5.0,0.0,0.0,0.0
1664564469473,-0.81347656,-0.048828125,-0.23242188,19.28125,-10.75,30.5625,0.0,0.0,0.0
1664564469513,-0.7158203,0.0625,-0.23828125,17.875,2.59375,31.96875,0.0,0.0,0.0
1664564469553,-0.7001953,0.0068359375,-0.22265625,17.875,-10.09375,34.15625,-68.375,-9.4375,-132.8125
1664564469592,-0.7597656,-0.017578125,-0.18164062,23.25,3.65625,43.5625,0.0,0.0,0.0
1664564469654,-0.9091797,-0.046875,-0.20800781,13.59375,-1.71875,46.6875,0.0,0.0,0.0
1664564469673,-0.8964844,-0.087890625,-0.19335938,19.8125,-2.6875,42.90625,0.0,0.0,0.0
1664564469714,-0.94628906,0.0703125,-0.22949219,24.21875,-0.875,33.96875,0.0,0.0,0.0
1664564469753,-1.0224609,0.19335938,-0.15234375,18.90625,-10.625,20.90625,0.0,0.0,0.0
1664564469793,-1.0517578,0.11425781,-0.17871094,1.9375,-12.21875,-4.65625,0.0,0.0,0.0
1664564469834,-1.0976562,0.13964844,-0.4267578,-12.34375,0.71875,-22.15625,0.0,0.0,0.0
1664564469872,-1.4052734,0.14160156,-0.52734375,-27.90625,14.5,-8.25,0.0,0.0,0.0
1664564469914,-0.55371094,-0.038085938,-0.45117188,-15.34375,29.65625,-19.71875,0.0,0.0,0.0
1664564469953,-0.74609375,-0.16894531,-0.44921875,16.09375,6.34375,-28.75,0.0,0.0,0.0
1664564469993,-0.96875,-0.0107421875,-0.4091797,20.5,25.5,-0.125,0.0,0.0,0.0
1664564470034,-0.8222656,0.12988281,-0.34765625,4.125,24.34375,-4.96875,-66.875,-4.0,-134.125
1664564470073,-0.7792969,-0.05078125,-0.265625,-18.375,-4.46875,-22.59375,0.0,0.0,0.0
1664564470114,-0.6699219,-0.16015625,-0.26367188,-4.09375,2.25,-22.46875,0.0,0.0,0.0
1664564470153,-0.71777344,-0.047851562,-0.29003906,10.1875,11.40625,-10.28125,0.0,0.0,0.0
1664564470193,-0.7763672,0.048828125,-0.3076172,-9.125,6.8125,-4.21875,0.0,0.0,0.0
1664564470233,-0.7685547,-0.016601562,-0.33007812,-25.96875,4.375,-8.9375,0.0,0.0,0.0
1664564470274,-0.9277344,-0.06542969,-0.35742188,-24.0625,16.78125,-13.9375,0.0,0.0,0.0
1664564470315,-1.0595703,-0.17773438,-0.36132812,-27.71875,5.125,-16.125,0.0,0.0,0.0
1664564470353,-1.2539062,-0.30859375,-0.25,-22.90625,-9.0625,-4.65625,0.0,0.0,0.0
1664564470414,-1.2060547,-0.23339844,-0.21289062,-6.0,-20.84375,-5.8125,0.0,0.0,0.0
1664564470433,-1.1318359,-0.07714844,-0.5292969,15.65625,8.09375,-11.25,0.0,0.0,0.0
1664564470474,-1.0898438,0.15429688,-0.74609375,22.4375,6.21875,-12.46875,0.0,0.0,0.0
1664564470513,-0.7529297,0.18359375,-0.6230469,0.84375,-2.40625,-11.84375,0.0,0.0,0.0
1664564470554,-0.64941406,0.037109375,-0.4453125,1.03125,-21.5,-3.875,-64.9375,-7.75,-136.125
1664564470593,-0.89453125,-9.765625E-4,-0.36816406,-0.25,-24.25,-6.59375,0.0,0.0,0.0
1664564470633,-1.0371094,-0.11328125,-0.25976562,0.53125,-39.875,-12.90625,0.0,0.0,0.0
1664564470673,-0.8623047,-0.09667969,-0.20605469,23.4375,-8.875,19.09375,0.0,0.0,0.0
1664564470713,-0.6904297,0.0234375,-0.19628906,20.96875,-0.5625,28.71875,0.0,0.0,0.0
1664564470754,-0.6699219,0.06542969,-0.19921875,25.1875,6.625,33.8125,0.0,0.0,0.0
1664564470793,-0.7314453,-0.043945312,-0.20605469,12.4375,-0.4375,39.84375,0.0,0.0,0.0
1664564470833,-0.8486328,-0.029296875,-0.20410156,4.8125,2.4375,44.25,0.0,0.0,0.0
1664564470873,-0.9189453,0.060546875,-0.1953125,13.90625,13.46875,39.0,0.0,0.0,0.0
1664564470913,-1.0214844,0.10058594,-0.19140625,12.0625,11.8125,25.0625,0.0,0.0,0.0
1664564470953,-1.0498047,0.10839844,-0.23339844,0.21875,2.5625,14.5625,0.0,0.0,0.0
1664564470994,-1.0175781,0.06933594,-0.20996094,-2.28125,-19.59375,-5.4375,0.0,0.0,0.0
1664564471033,-1.3310547,-0.036132812,-0.046875,-23.5,-23.8125,-24.90625,-66.75,-1.75,-132.1875
1664564471073,-1.1816406,0.03125,-0.39746094,-7.09375,23.53125,-14.90625,0.0,0.0,0.0
1664564471113,-0.66503906,-0.0625,-0.56152344,12.5,8.15625,-31.3125,0.0,0.0,0.0
1664564471173,-0.8232422,-0.11328125,-0.43945312,22.75,-10.28125,-29.625,0.0,0.0,0.0
1664564471193,-0.87597656,-0.03125,-0.41308594,18.125,18.59375,-8.5,0.0,0.0,0.0
1664564471234,-0.7421875,0.080078125,-0.3173828,8.90625,23.125,-14.40625,0.0,0.0,0.0
1664564471273,-0.72753906,-0.0146484375,-0.31347656,-15.15625,4.25,-18.15625,0.0,0.0,0.0
1664564471313,-0.65527344,-0.087890625,-0.29492188,-19.5,7.0625,-20.78125,0.0,0.0,0.0
1664564471354,-0.6669922,-0.036132812,-0.29882812,-16.625,7.8125,-17.59375,0.0,0.0,0.0
1664564471393,-0.8027344,-0.040039062,-0.32617188,-32.3125,7.25,-11.375,0.0,0.0,0.0
1664564471453,-0.85546875,-0.083984375,-0.3232422,-45.71875,6.625,-9.40625,0.0,0.0,0.0
1664564471473,-0.90625,-0.13574219,-0.39453125,-32.3125,12.6875,-2.625,0.0,0.0,0.0
1664564471514,-1.078125,-0.17089844,-0.4033203,-27.96875,9.875,2.1875,0.0,0.0,0.0
1664564471555,-1.1767578,-0.20214844,-0.30664062,-22.0625,0.53125,-4.78125,-67.375,-6.875,-135.5
1664564471595,-1.1376953,-0.16601562,-0.31835938,-18.25,0.34375,-14.46875,0.0,0.0,0.0
1664564471633,-1.1464844,-0.11328125,-0.56152344,-9.78125,5.34375,-15.6875,0.0,0.0,0.0
1664564471673,-1.0332031,0.0703125,-0.62597656,9.375,2.71875,-24.6875,0.0,0.0,0.0
1664564471737,-0.7939453,0.23632812,-0.57421875,10.0,-3.5625,-20.71875,0.0,0.0,0.0
1664564471753,-0.8105469,0.0234375,-0.42578125,-12.46875,-44.5,-11.1875,0.0,0.0,0.0
1664564471793,-0.85253906,-0.14355469,-0.3046875,-6.5,-49.5625,-15.21875,0.0,0.0,0.0
1664564471833,-0.86328125,-0.15332031,-0.2578125,22.03125,-27.65625,2.0,0.0,0.0,0.0
1664564471894,-0.74902344,-0.048828125,-0.2548828,26.71875,-17.34375,23.25,0.0,0.0,0.0
1664564471933,-0.65625,0.03125,-0.2109375,28.96875,3.40625,28.25,0.0,0.0,0.0
1664564471953,-0.69921875,0.00390625,-0.24414062,28.5,7.0625,40.75,0.0,0.0,0.0
1664564471993,-0.85839844,-0.060546875,-0.21484375,13.40625,-9.125,51.6875,0.0,0.0,0.0
1664564472033,-0.95410156,-0.08984375,-0.20605469,20.625,2.3125,51.8125,-66.0,-3.875,-130.5625
1664564472073,-0.9033203,0.05859375,-0.21386719,22.03125,6.15625,37.09375,0.0,0.0,0.0
1664564472114,-0.9746094,0.099609375,-0.20410156,20.5625,8.40625,26.90625,0.0,0.0,0.0
1664564472154,-1.0371094,0.111328125,-0.22363281,15.0,2.84375,10.3125,0.0,0.0,0.0
1664564472194,-0.9736328,0.1171875,-0.2265625,2.0625,-13.9375,-14.125,0.0,0.0,0.0
1664564472233,-1.3066406,0.0234375,-0.10839844,-15.40625,-8.6875,-39.5,0.0,0.0,0.0
1664564472273,-1.3183594,-0.040039062,-0.5673828,-24.90625,8.71875,-13.8125,0.0,0.0,0.0
1664564472313,-0.6591797,-0.119140625,-0.4921875,-7.71875,13.71875,-27.0,0.0,0.0,0.0
1664564472354,-0.79296875,-0.05859375,-0.46875,24.34375,4.875,-20.28125,0.0,0.0,0.0
1664564472393,-0.8876953,-0.0068359375,-0.41308594,12.1875,16.21875,4.3125,0.0,0.0,0.0
1664564472434,-0.79785156,0.037109375,-0.28320312,-0.9375,13.09375,-9.0,0.0,0.0,0.0
1664564472473,-0.78125,-0.064453125,-0.3173828,-13.9375,9.75,-19.5,0.0,0.0,0.0
1664564472514,-0.68066406,-0.16992188,-0.2783203,-19.78125,7.25,-19.375,0.0,0.0,0.0
1664564472553,-0.66308594,-0.07128906,-0.2529297,-8.375,9.03125,-12.90625,-67.5,-4.9375,-132.625
1664564472593,-0.7402344,0.029296875,-0.30566406,-17.46875,6.03125,-3.375,0.0,0.0,0.0
1664564472633,-0.7763672,-0.08691406,-0.2998047,-32.125,0.28125,-5.5625,0.0,0.0,0.0
1664564472693,-0.87890625,-0.107421875,-0.36621094,-25.90625,11.21875,-14.25,0.0,0.0,0.0
1664564472713,-1.0273438,-0.16796875,-0.33496094,-30.84375,2.96875,-17.53125,0.0,0.0,0.0
1664564472754,-1.2041016,-0.2998047,-0.34960938,-23.8125,5.0,-12.90625,0.0,0.0,0.0
1664564472795,-1.3017578,-0.28027344,-0.31835938,-23.4375,-5.375,5.125,0.0,0.0,0.0
1664564472833,-1.1855469,-0.15917969,-0.45507812,-12.84375,-14.1875,-1.25,0.0,0.0,0.0
1664564472876,-1.0830078,-0.029296875,-0.6513672,24.28125,15.4375,-11.5625,0.0,0.0,0.0
1664564472913,-0.7753906,0.16992188,-0.6621094,35.3125,13.96875,-9.125,0.0,0.0,0.0
1664564472954,-0.7050781,0.2109375,-0.4765625,13.28125,-8.625,-13.1875,0.0,0.0,0.0
1664564472993,-0.8535156,0.0068359375,-0.38085938,-1.3125,-31.9375,-6.53125,0.0,0.0,0.0
1664564473034,-0.86328125,-0.15136719,-0.22167969,8.15625,-34.6875,4.75,-66.625,-6.875,-133.375
1664564473074,-0.84765625,-0.14648438,-0.24316406,24.15625,-20.03125,22.875,0.0,0.0,0.0
1664564473114,-0.73339844,0.022460938,-0.23925781,33.25,3.59375,32.34375,0.0,0.0,0.0
1664564473154,-0.6855469,0.07714844,-0.24316406,25.9375,9.03125,35.09375,0.0,0.0,0.0
1664564473193,-0.83984375,0.078125,-0.23144531,19.875,0.40625,43.5,0.0,0.0,0.0
1664564473233,-0.83496094,0.0029296875,-0.20019531,4.875,4.0625,44.59375,0.0,0.0,0.0
1664564473274,-1.0859375,0.017578125,-0.24023438,5.71875,19.46875,51.625,0.0,0.0,0.0
1664564473313,-1.0058594,0.020507812,-0.25097656,-1.59375,14.9375,31.71875,0.0,0.0,0.0
1664564473353,-1.0107422,0.10546875,-0.19433594,15.5,-17.90625,13.53125,0.0,0.0,0.0
1664564473394,-1.0390625,0.14746094,-0.14257812,10.78125,-20.46875,-11.1875,0.0,0.0,0.0
1664564473453,-1.0244141,0.13671875,-0.3173828,-2.9375,5.90625,-23.9375,0.0,0.0,0.0
1664564473473,-1.2626953,0.06640625,-0.70214844,3.78125,13.96875,-26.6875,0.0,0.0,0.0
1664564473514,-0.64941406,0.020507812,-0.6064453,-15.03125,21.21875,-24.5625,0.0,0.0,0.0
1664564473553,-0.7529297,-0.14941406,-0.453125,4.75,-20.15625,-25.78125,-69.625,-0.5625,-129.8125
1664564473593,-0.82421875,-0.09667969,-0.4482422,15.625,22.5,0.90625,0.0,0.0,0.0
1664564473633,-0.796875,0.04296875,-0.33496094,6.40625,20.75,-2.15625,0.0,0.0,0.0
1664564473673,-0.78222656,0.028320312,-0.29101562,-13.1875,17.75,-19.0625,0.0,0.0,0.0
1664564473714,-0.6689453,-0.125,-0.29882812,-23.875,6.21875,-24.6875,0.0,0.0,0.0
1664564473793,-0.6748047,-0.12207031,-0.296875,-13.4375,15.125,-17.21875,0.0,0.0,0.0
1664564473795,-0.74121094,-0.05859375,-0.30078125,-16.875,13.15625,-8.75,0.0,0.0,0.0
1664564473833,-0.8378906,-0.015625,-0.32910156,-22.40625,10.375,-3.1875,0.0,0.0,0.0
1664564473873,-0.9267578,-0.08496094,-0.39648438,-22.46875,16.03125,-5.4375,0.0,0.0,0.0
1664564473913,-1.046875,-0.17578125,-0.38964844,-18.3125,15.0,-16.3125,0.0,0.0,0.0
1664564473953,-1.1650391,-0.3076172,-0.30371094,-22.90625,-5.09375,-15.40625,0.0,0.0,0.0
1664564473993,-1.1630859,-0.3984375,-0.27246094,-2.09375,3.46875,-19.375,0.0,0.0,0.0
1664564474035,-1.1699219,-0.1484375,-0.4794922,19.875,12.9375,-7.15625,-69.3125,-4.625,-132.1875
1664564474073,-1.0498047,0.001953125,-0.7519531,27.375,25.9375,1.5625,0.0,0.0,0.0
1664564474113,-0.8515625,0.35742188,-0.69433594,16.40625,9.125,3.53125,0.0,0.0,0.0
1664564474154,-0.7207031,0.24316406,-0.49902344,-20.53125,-27.3125,-17.96875,0.0,0.0,0.0
1664564474213,-0.6826172,-0.24804688,-0.40039062,-21.625,-35.53125,-29.6875,0.0,0.0,0.0
1664564474233,-0.828125,-0.24121094,-0.34277344,7.375,-35.46875,1.375,0.0,0.0,0.0
1664564474273,-0.8105469,-0.041015625,-0.2705078,29.71875,-18.3125,18.90625,0.0,0.0,0.0
1664564474314,-0.80859375,0.07128906,-0.3076172,28.625,-5.8125,21.09375,0.0,0.0,0.0
1664564474353,-0.73046875,0.052734375,-0.3203125,12.25,-9.125,19.875,0.0,0.0,0.0
1664564474393,-0.6982422,-0.06347656,-0.2421875,5.59375,-21.9375,19.5625,0.0,0.0,0.0
1664564474433,-0.765625,-0.14160156,-0.21972656,16.78125,-21.6875,28.5,0.0,0.0,0.0
1664564474473,-0.8066406,-0.12988281,-0.19140625,16.40625,-24.5,27.5625,0.0,0.0,0.0
1664564474515,-0.8076172,-0.15820312,-0.1484375,29.59375,-13.0625,24.53125,0.0,0.0,0.0
1664564474553,-0.9082031,0.005859375,-0.12011719,33.5,-5.9375,30.8125,-69.3125,-3.125,-127.125
1664564474593,-0.89746094,0.044921875,-0.12695312,21.28125,1.75,20.4375,0.0,0.0,0.0
1664564474633,-0.9560547,0.046875,-0.11621094,12.8125,-0.8125,7.625,0.0,0.0,0.0
1664564474675,-1.0585938,0.018554688,-0.115234375,0.34375,-1.96875,-1.40625,0.0,0.0,0.0
1664564474715,-1.1201172,-0.033203125,-0.13378906,-2.75,-3.96875,-12.09375,0.0,0.0,0.0
1664564474753,-1.2109375,-0.0546875,-0.33984375,-11.0,-7.46875,-8.0,0.0,0.0,0.0
1664564474794,-0.85839844,0.046875,-0.44433594,-6.125,22.8125,-0.9375,0.0,0.0,0.0
1664564474833,-0.54003906,-0.049804688,-0.47753906,11.59375,23.78125,-8.375,0.0,0.0,0.0
1664564474874,-0.76953125,-0.051757812,-0.53125,21.21875,5.53125,6.5625,0.0,0.0,0.0
1664564474913,-0.9423828,0.06542969,-0.43359375,11.875,8.59375,14.8125,0.0,0.0,0.0
1664564474974,-0.8496094,0.095703125,-0.33984375,-6.59375,12.25,-8.25,0.0,0.0,0.0
1664564474994,-0.85253906,-0.08496094,-0.29589844,-15.53125,14.875,-30.21875,0.0,0.0,0.0
1664564475034,-0.765625,-0.13769531,-0.32617188,-15.28125,17.875,-25.71875,-69.0,-4.9375,-128.125
1664564475072,-0.8183594,-0.037109375,-0.2763672,-26.75,13.71875,-13.875,0.0,0.0,0.0
1664564475113,-0.7988281,-0.08105469,-0.2421875,-30.78125,5.90625,-9.125,0.0,0.0,0.0
1664564475152,-0.84277344,-0.13476562,-0.24609375,-28.6875,4.6875,-3.625,0.0,0.0,0.0
1664564475193,-0.8642578,-0.099609375,-0.22851562,-35.34375,-5.8125,-2.03125,0.0,0.0,0.0
1664564475233,-0.98339844,-0.28222656,-0.33203125,-34.6875,2.25,-8.4375,0.0,0.0,0.0
1664564475274,-1.1357422,-0.30664062,-0.35742188,-24.75,-12.53125,-5.75,0.0,0.0,0.0
1664564475313,-1.2451172,-0.26757812,-0.39453125,7.5,-12.09375,-15.09375,0.0,0.0,0.0
1664564475353,-1.1923828,-0.091796875,-0.4609375,36.96875,13.65625,-25.53125,0.0,0.0,0.0
1664564475393,-0.74902344,0.21777344,-0.67285156,47.09375,9.6875,-29.5625,0.0,0.0,0.0
1664564475432,-0.70703125,0.4267578,-0.61328125,19.03125,-20.28125,-19.25,0.0,0.0,0.0
1664564475473,-0.796875,0.18847656,-0.45117188,-54.59375,-60.125,-32.84375,0.0,0.0,0.0
1664564475514,-1.0400391,-0.23730469,-0.3076172,-32.0625,-45.5625,3.21875,0.0,0.0,0.0
1664564475553,-1.0537109,-0.16601562,-0.20507812,-0.5625,-17.21875,23.71875,-63.875,-13.1875,-129.5
1664564475594,-0.9189453,0.00390625,-0.19726562,18.71875,-8.625,27.4375,0.0,0.0,0.0
1664564475633,-0.8574219,-0.046875,-0.17871094,28.3125,-1.65625,36.25,0.0,0.0,0.0
1664564475673,-0.8457031,-0.08105469,-0.17480469,23.53125,-0.25,32.34375,0.0,0.0,0.0
1664564475734,-0.8964844,-0.041015625,-0.16699219,37.34375,7.5625,41.3125,0.0,0.0,0.0
1664564475753,-0.7998047,0.0126953125,-0.18359375,29.84375,4.5625,47.28125,0.0,0.0,0.0
1664564475793,-0.828125,0.037109375,-0.109375,24.34375,-9.84375,44.46875,0.0,0.0,0.0
1664564475834,-0.984375,0.040039062,-0.12109375,26.15625,-3.375,34.65625,0.0,0.0,0.0
1664564475873,-1.0595703,0.1953125,-0.12402344,20.96875,1.75,15.25,0.0,0.0,0.0
1664564475914,-1.2255859,0.17675781,-0.35742188,-1.125,16.21875,-16.0625,0.0,0.0,0.0
1664564475956,-1.5244141,0.115234375,-0.5732422,-24.25,16.03125,-16.8125,0.0,0.0,0.0
1664564475992,-0.8984375,9.765625E-4,-0.5439453,-28.34375,28.3125,-31.5625,0.0,0.0,0.0
1664564476033,-0.63671875,-0.07519531,-0.50390625,-8.8125,41.78125,-35.0625,-66.625,-5.5,-129.0625
1664564476073,-0.7910156,-0.091796875,-0.6542969,9.8125,28.90625,-10.40625,0.0,0.0,0.0
1664564476113,-0.8310547,0.0146484375,-0.44921875,-2.6875,-1.125,2.0625,0.0,0.0,0.0
1664564476153,-0.8339844,0.041992188,-0.38476562,-7.71875,10.0625,-8.5,0.0,0.0,0.0
1664564476195,-0.8173828,0.0078125,-0.36621094,-11.96875,-0.125,-14.65625,0.0,0.0,0.0
1664564476233,-0.7285156,-0.09765625,-0.30859375,-14.25,-7.59375,-23.40625,0.0,0.0,0.0
1664564476274,-0.6230469,-0.068359375,-0.3017578,-6.0,1.4375,-24.84375,0.0,0.0,0.0
1664564476313,-0.70703125,0.028320312,-0.3125,-13.5625,9.03125,-18.5625,0.0,0.0,0.0
1664564476352,-0.8144531,0.05078125,-0.39648438,-30.90625,5.65625,-17.03125,0.0,0.0,0.0
1664564476393,-1.0751953,-0.078125,-0.35351562,-42.6875,1.9375,-17.15625,0.0,0.0,0.0
1664564476433,-1.0957031,-0.27929688,-0.3076172,-47.1875,-18.6875,-23.21875,0.0,0.0,0.0
1664564476493,-1.1611328,-0.2998047,-0.24414062,-29.0625,-0.9375,-11.90625,0.0,0.0,0.0
1664564476513,-1.0917969,-0.10449219,-0.38085938,-15.6875,-15.53125,-5.625,0.0,0.0,0.0
1664564476555,-1.1386719,-0.041015625,-0.54785156,11.53125,11.59375,-18.21875,-66.625,-11.1875,-135.1875
1664564476594,-0.80859375,0.15136719,-0.6201172,16.65625,6.46875,-17.84375,0.0,0.0,0.0
1664564476633,-0.78515625,0.13574219,-0.45703125,14.5625,-17.03125,-12.09375,0.0,0.0,0.0
1664564476673,-0.8886719,-0.017578125,-0.41503906,-5.4375,-25.96875,-9.65625,0.0,0.0,0.0
1664564476713,-0.9082031,-0.18554688,-0.23535156,5.78125,-39.9375,2.90625,0.0,0.0,0.0
1664564476754,-0.8330078,-0.10449219,-0.22949219,33.90625,-19.84375,32.28125,0.0,0.0,0.0
1664564476794,-0.73046875,0.1171875,-0.24609375,29.21875,9.875,48.5,0.0,0.0,0.0
1664564476834,-0.65722656,0.08105469,-0.25195312,11.59375,15.375,41.90625,0.0,0.0,0.0
1664564476873,-0.6826172,-0.032226562,-0.23828125,16.90625,5.96875,56.9375,0.0,0.0,0.0
1664564476913,-0.91796875,-0.0107421875,-0.26171875,6.40625,-10.5,44.78125,0.0,0.0,0.0
1664564476953,-0.98535156,0.076171875,-0.25390625,16.78125,20.3125,40.5625,0.0,0.0,0.0
1664564476994,-0.94140625,0.15234375,-0.17773438,11.21875,20.75,24.65625,0.0,0.0,0.0
1664564477033,-1.0224609,0.029296875,-0.16601562,-0.375,6.21875,5.46875,-65.375,-2.8125,-132.9375
1664564477073,-1.0205078,0.015625,-0.16015625,-1.125,-18.3125,-6.96875,0.0,0.0,0.0
1664564477114,-1.3291016,-0.001953125,-0.15429688,-8.375,-16.25,-25.65625,0.0,0.0,0.0
1664564477155,-1.0947266,0.038085938,-0.50683594,-2.75,20.75,1.15625,0.0,0.0,0.0
1664564477193,-0.5839844,-0.033203125,-0.5175781,15.5625,-2.8125,-16.0625,0.0,0.0,0.0
1664564477254,-0.7138672,-9.765625E-4,-0.5058594,41.25,16.15625,-13.03125,0.0,0.0,0.0
1664564477273,-0.91503906,0.10449219,-0.53027344,16.84375,20.3125,-7.78125,0.0,0.0,0.0
1664564477314,-0.79589844,-0.02734375,-0.39453125,-11.0625,0.40625,-23.21875,0.0,0.0,0.0
1664564477354,-0.7138672,-0.12011719,-0.3564453,-17.46875,2.125,-19.125,0.0,0.0,0.0
1664564477393,-0.62109375,-0.05078125,-0.3359375,-17.84375,10.59375,-14.53125,0.0,0.0,0.0
1664564477434,-0.69140625,0.016601562,-0.33984375,-14.46875,15.25,-7.21875,0.0,0.0,0.0
1664564477475,-0.73828125,0.0146484375,-0.33789062,-30.84375,7.5,1.4375,0.0,0.0,0.0
1664564477513,-0.8173828,-0.07324219,-0.31835938,-27.84375,10.71875,-9.53125,0.0,0.0,0.0
1664564477553,-0.94628906,-0.08691406,-0.3046875,-24.96875,5.53125,-15.09375,-65.125,-5.0625,-137.3125
1664564477594,-1.0683594,-0.119140625,-0.3798828,-22.0625,14.375,-24.96875,0.0,0.0,0.0
1664564477634,-1.1513672,-0.22070312,-0.4736328,-27.90625,10.65625,-17.65625,0.0,0.0,0.0
1664564477674,-1.234375,-0.2919922,-0.3359375,-24.6875,-19.1875,-4.53125,0.0,0.0,0.0
1664564477714,-1.0927734,-0.1640625,-0.54003906,0.90625,-1.46875,-1.59375,0.0,0.0,0.0
1664564477753,-1.0839844,-0.02734375,-0.64746094,32.5625,13.46875,-16.9375,0.0,0.0,0.0
1664564477795,-0.82128906,0.17871094,-0.671875,40.8125,17.5625,-12.03125,0.0,0.0,0.0
1664564477834,-0.72265625,0.16699219,-0.4453125,11.75,-22.21875,-7.53125,0.0,0.0,0.0
1664564477873,-0.7861328,0.08105469,-0.40820312,2.90625,-35.0,-11.96875,0.0,0.0,0.0
1664564477913,-0.9169922,-0.07324219,-0.26953125,2.1875,-45.125,4.8125,0.0,0.0,0.0
1664564477953,-0.85253906,-0.11425781,-0.27246094,21.40625,-25.96875,23.53125,0.0,0.0,0.0
1664564478013,-0.7167969,0.028320312,-0.2939453,18.28125,-6.125,33.1875,0.0,0.0,0.0
1664564478033,-0.6582031,0.041015625,-0.2939453,11.46875,-12.96875,36.84375,-66.75,-5.6875,-132.625
1664564478074,-0.73828125,0.0,-0.23144531,15.25,-17.34375,38.125,0.0,0.0,0.0
1664564478113,-0.7861328,0.0126953125,-0.16503906,7.84375,-10.40625,32.9375,0.0,0.0,0.0
1664564478153,-0.88964844,-0.0107421875,-0.17871094,20.3125,15.0,43.0,0.0,0.0,0.0
1664564478193,-0.9121094,0.15722656,-0.2265625,18.46875,18.46875,39.0625,0.0,0.0,0.0
1664564478234,-0.94921875,0.10839844,-0.21582031,8.90625,3.15625,25.125,0.0,0.0,0.0
1664564478274,-1.078125,0.034179688,-0.16796875,15.96875,-5.25,14.3125,0.0,0.0,0.0
1664564478314,-1.1396484,0.059570312,-0.4169922,10.90625,-4.21875,-6.5,0.0,0.0,0.0
1664564478354,-1.3261719,0.20507812,-0.55566406,13.71875,22.625,-7.59375,0.0,0.0,0.0
1664564478393,-0.7763672,0.111328125,-0.5205078,-10.4375,36.0,-11.1875,0.0,0.0,0.0
1664564478433,-0.49121094,-0.07519531,-0.47851562,9.9375,14.4375,-36.21875,0.0,0.0,0.0
1664564478473,-0.7578125,0.0068359375,-0.56640625,29.9375,29.21875,-23.34375,0.0,0.0,0.0
1664564478513,-0.8574219,0.03515625,-0.53027344,-0.5625,-1.65625,-17.90625,0.0,0.0,0.0
1664564478553,-0.8378906,-0.0087890625,-0.34960938,-20.09375,-11.0625,-26.5625,-66.625,0.3125,-135.5
1664564478594,-0.7861328,-0.08886719,-0.29296875,-28.15625,-5.375,-21.0625,0.0,0.0,0.0
1664564478633,-0.75878906,-0.1171875,-0.31347656,-15.9375,5.96875,-19.5,0.0,0.0,0.0
1664564478673,-0.75,-0.068359375,-0.30273438,-8.375,6.40625,-16.8125,0.0,0.0,0.0
1664564478713,-0.7480469,-0.0126953125,-0.34765625,-17.46875,9.875,-15.46875,0.0,0.0,0.0
1664564478773,-0.7421875,-0.022460938,-0.3671875,-33.15625,-1.1875,-20.15625,0.0,0.0,0.0
1664564478793,-0.88183594,-0.16503906,-0.359375,-33.28125,-2.15625,-20.15625,0.0,0.0,0.0
1664564478834,-0.9746094,-0.21484375,-0.37597656,-26.75,-3.4375,-15.21875,0.0,0.0,0.0
1664564478874,-1.2070312,-0.21191406,-0.3408203,-21.6875,-2.09375,-7.9375,0.0,0.0,0.0
1664564478914,-1.1796875,-0.17773438,-0.29492188,-17.40625,-13.9375,-5.4375,0.0,0.0,0.0
1664564478954,-1.1601562,-0.18847656,-0.52246094,-8.8125,-1.125,-16.75,0.0,0.0,0.0
1664564478993,-1.15625,0.0068359375,-0.60253906,0.71875,-17.03125,-17.90625,0.0,0.0,0.0
1664564479036,-0.80371094,0.21582031,-0.6933594,-1.34375,12.375,-3.375,-66.4375,-5.9375,-134.3125
1664564479073,-0.640625,0.1015625,-0.4560547,-23.34375,-27.25,-4.34375,0.0,0.0,0.0
1664564479113,-0.6464844,-0.040039062,-0.34277344,0.71875,-21.375,-15.8125,0.0,0.0,0.0
1664564479153,-0.9472656,-0.115234375,-0.26953125,7.5,-41.46875,-11.96875,0.0,0.0,0.0
1664564479193,-0.8125,-0.10058594,-0.25195312,18.59375,-29.75,20.6875,0.0,0.0,0.0
1664564479233,-0.6640625,0.009765625,-0.22949219,23.1875,0.15625,31.59375,0.0,0.0,0.0
1664564479274,-0.6826172,0.055664062,-0.25195312,21.03125,-0.25,34.84375,0.0,0.0,0.0
1664564479315,-0.77734375,0.0029296875,-0.15917969,20.8125,-5.25,36.0,0.0,0.0,0.0
1664564479353,-0.890625,-0.08984375,-0.22949219,18.125,4.625,49.96875,0.0,0.0,0.0
1664564479395,-0.9560547,-0.00390625,-0.18261719,18.96875,14.09375,55.21875,0.0,0.0,0.0
1664564479433,-0.984375,0.125,-0.22949219,28.625,29.9375,37.21875,0.0,0.0,0.0
1664564479494,-0.9716797,0.064453125,-0.24023438,18.78125,0.09375,17.25,0.0,0.0,0.0
1664564479534,-0.9453125,0.087890625,-0.18457031,20.3125,-20.15625,-0.375,0.0,0.0,0.0
1664564479553,-1.1083984,0.076171875,-0.31835938,5.90625,-7.53125,-19.3125,-67.375,2.125,-130.6875
1664564479594,-1.3173828,0.07421875,-0.7871094,-1.59375,25.4375,-37.6875,0.0,0.0,0.0
1664564479633,-0.8642578,0.07421875,-0.60058594,-10.28125,33.5625,-26.03125,0.0,0.0,0.0
1664564479676,-0.7285156,-0.0703125,-0.4326172,3.53125,-15.15625,-31.21875,0.0,0.0,0.0
1664564479714,-0.7626953,-0.05859375,-0.4453125,13.90625,12.9375,-15.46875,0.0,0.0,0.0
1664564479753,-0.8574219,-0.09863281,-0.3779297,2.78125,-3.5625,-11.90625,0.0,0.0,0.0
1664564479794,-0.83984375,-0.028320312,-0.32226562,7.25,2.5625,-10.9375,0.0,0.0,0.0
1664564479833,-0.7685547,-0.06933594,-0.35546875,4.4375,10.65625,-12.40625,0.0,0.0,0.0
1664564479874,-0.6904297,-0.024414062,-0.3310547,1.3125,7.8125,-8.9375,0.0,0.0,0.0
1664564479913,-0.6230469,0.06347656,-0.28125,-10.34375,3.03125,-18.625,0.0,0.0,0.0
1664564479956,-0.68066406,-0.057617188,-0.31835938,-26.375,0.53125,-26.8125,0.0,0.0,0.0
1664564479993,-0.79589844,-0.08886719,-0.3828125,-35.34375,4.25,-17.53125,0.0,0.0,0.0
1664564480033,-0.8701172,-0.103515625,-0.35351562,-38.84375,11.75,-9.15625,-66.875,-3.6875,-131.0
1664564480073,-1.0039062,-0.3330078,-0.33984375,-34.125,11.71875,-12.65625,0.0,0.0,0.0
1664564480114,-1.2255859,-0.30859375,-0.27929688,-18.03125,4.375,7.375,0.0,0.0,0.0
1664564480153,-1.1669922,-0.22753906,-0.24707031,-3.3125,-0.8125,-1.84375,0.0,0.0,0.0
1664564480193,-1.1738281,-0.18164062,-0.6035156,7.84375,14.9375,-6.71875,0.0,0.0,0.0
1664564480233,-1.1523438,0.09863281,-0.7001953,15.375,6.875,-6.0625,0.0,0.0,0.0
1664564480293,-0.78027344,0.24511719,-0.6191406,10.375,-0.25,-14.84375,0.0,0.0,0.0
1664564480313,-0.66796875,0.06347656,-0.41992188,-20.65625,-34.75,-12.46875,0.0,0.0,0.0
1664564480353,-0.76171875,-0.013671875,-0.37109375,-8.5,-32.1875,-2.9375,0.0,0.0,0.0
1664564480393,-0.84277344,-0.12011719,-0.2861328,-8.25,-45.0,-18.09375,0.0,0.0,0.0
1664564480433,-0.8251953,-0.11328125,-0.24316406,14.28125,-27.125,18.78125,0.0,0.0,0.0
1664564480473,-0.70703125,-9.765625E-4,-0.16113281,18.78125,-11.1875,33.0,0.0,0.0,0.0
1664564480513,-0.6904297,0.013671875,-0.21679688,22.1875,-4.96875,37.09375,0.0,0.0,0.0
1664564480553,-0.8154297,-0.053710938,-0.17285156,14.8125,-21.625,36.125,-68.375,-4.0,-128.625
1664564480594,-0.8535156,-0.056640625,-0.15722656,23.25,-4.34375,40.34375,0.0,0.0,0.0
1664564480633,-0.9941406,0.052734375,-0.14648438,18.96875,11.53125,38.4375,0.0,0.0,0.0
1664564480674,-0.9863281,0.1171875,-0.2265625,9.25,22.625,27.15625,0.0,0.0,0.0
1664564480713,-1.0576172,0.055664062,-0.15429688,-6.125,4.4375,10.96875,0.0,0.0,0.0
1664564480753,-0.9550781,0.028320312,-0.21582031,4.4375,-0.625,6.09375,0.0,0.0,0.0
1664564480793,-1.015625,-0.0625,-0.18066406,-2.09375,-22.65625,-8.75,0.0,0.0,0.0
1664564480854,-1.2851562,-0.052734375,-0.3779297,-4.03125,-3.4375,-29.4375,0.0,0.0,0.0
1664564480874,-1.015625,0.078125,-0.5683594,-8.875,43.875,-9.34375,0.0,0.0,0.0
1664564480914,-0.62890625,-0.017578125,-0.5,4.125,4.4375,-21.375,0.0,0.0,0.0
1664564480973,-0.80859375,0.10253906,-0.5185547,10.3125,30.25,-14.0625,0.0,0.0,0.0
1664564480993,-0.9033203,0.025390625,-0.5078125,-1.0,9.8125,-8.5625,0.0,0.0,0.0
1664564481053,-0.8105469,-0.17578125,-0.30566406,-20.71875,-10.9375,-27.71875,-69.0,-2.375,-130.25
1664564481073,-0.7158203,-0.09863281,-0.33691406,-3.8125,6.875,-26.03125,0.0,0.0,0.0
1664564481114,-0.640625,0.01171875,-0.29882812,-0.75,11.21875,-18.4375,0.0,0.0,0.0
1664564481153,-0.62109375,-0.018554688,-0.2890625,-9.0625,12.0,-13.25,0.0,0.0,0.0
1664564481193,-0.59472656,-0.053710938,-0.28808594,-31.8125,2.78125,-5.9375,0.0,0.0,0.0
1664564481233,-0.7685547,-0.0859375,-0.33398438,-29.8125,9.5625,-4.53125,0.0,0.0,0.0
1664564481273,-0.83203125,-0.087890625,-0.34375,-25.84375,16.9375,-4.78125,0.0,0.0,0.0
1664564481313,-0.93359375,-0.2265625,-0.3251953,-23.5,11.8125,-16.5625,0.0,0.0,0.0
1664564481353,-1.1884766,-0.33691406,-0.36328125,-9.90625,5.40625,-9.53125,0.0,0.0,0.0
1664564481393,-1.2519531,-0.23242188,-0.41210938,0.90625,15.125,-6.90625,0.0,0.0,0.0
1664564481433,-1.2119141,-0.09667969,-0.4560547,-7.875,-5.09375,-4.03125,0.0,0.0,0.0
1664564481473,-1.1894531,-0.21484375,-0.5390625,-9.21875,-21.8125,-10.8125,0.0,0.0,0.0
1664564481513,-1.0654297,-0.009765625,-0.6044922,21.90625,10.96875,-8.5,0.0,0.0,0.0
1664564481553,-0.74121094,0.2421875,-0.62402344,14.9375,3.71875,-7.09375,-67.8125,-10.0,-134.3125
1664564481593,-0.6015625,0.11328125,-0.43359375,-17.28125,-29.3125,-9.0625,0.0,0.0,0.0
1664564481633,-0.6230469,-0.06347656,-0.31152344,-5.5,-24.75,-5.09375,0.0,0.0,0.0
1664564481673,-0.83984375,-0.10058594,-0.3076172,-2.625,-45.25,-14.84375,0.0,0.0,0.0
1664564481713,-0.8105469,-0.15527344,-0.23828125,15.0625,-30.03125,16.90625,0.0,0.0,0.0
1664564481755,-0.7216797,0.0068359375,-0.23144531,21.28125,-4.71875,33.25,0.0,0.0,0.0
1664564481813,-0.7607422,0.0146484375,-0.2626953,22.1875,9.625,40.9375,0.0,0.0,0.0
1664564481835,-0.89941406,-0.029296875,-0.27148438,14.21875,-12.71875,41.375,0.0,0.0,0.0
1664564481873,-0.82421875,-0.0546875,-0.22753906,19.75,0.53125,38.6875,0.0,0.0,0.0
1664564481913,-0.8671875,0.028320312,-0.21875,26.71875,9.03125,33.8125,0.0,0.0,0.0
1664564481953,-0.91308594,0.057617188,-0.21972656,17.375,13.46875,24.875,0.0,0.0,0.0
1664564481993,-0.95996094,-0.049804688,-0.20996094,2.5,-12.40625,17.0,0.0,0.0,0.0
1664564482033,-1.0224609,0.080078125,-0.21972656,8.53125,-22.40625,8.09375,-67.1875,-3.5625,-130.25
1664564482073,-1.046875,0.08203125,-0.296875,-4.84375,-5.75,-22.0625,0.0,0.0,0.0
1664564482113,-1.3466797,0.015625,-0.6611328,-3.1875,32.53125,-11.25,0.0,0.0,0.0
1664564482153,-0.8701172,0.076171875,-0.5058594,-11.25,34.34375,-9.34375,0.0,0.0,0.0
1664564482192,-0.6435547,-0.09863281,-0.53027344,5.0625,5.0,-35.21875,0.0,0.0,0.0
1664564482233,-0.7753906,-0.111328125,-0.5263672,9.375,4.5,-13.25,0.0,0.0,0.0
1664564482274,-0.8515625,0.024414062,-0.4638672,1.75,5.21875,-3.125,0.0,0.0,0.0
1664564482313,-0.8535156,0.041992188,-0.31933594,-2.09375,13.65625,-19.65625,0.0,0.0,0.0
1664564482354,-0.8105469,-0.17675781,-0.37402344,-22.21875,2.25,-30.59375,0.0,0.0,0.0
1664564482393,-0.71972656,-0.20019531,-0.31054688,-8.5,2.59375,-13.625,0.0,0.0,0.0
1664564482435,-0.6113281,-0.07421875,-0.29589844,4.0,12.375,-5.5625,0.0,0.0,0.0
1664564482474,-0.7158203,0.013671875,-0.33984375,-1.125,7.5,-3.5,0.0,0.0,0.0
1664564482513,-0.82128906,-0.055664062,-0.34765625,-14.34375,3.34375,2.4375,0.0,0.0,0.0
1664564482574,-0.8847656,-0.140625,-0.35742188,-13.1875,11.28125,5.53125,-66.875,-9.6875,-133.375
1664564482593,-1.0234375,-0.15234375,-0.390625,-7.78125,13.09375,4.1875,0.0,0.0,0.0
1664564482634,-1.1142578,-0.16601562,-0.3671875,-9.59375,5.0625,-3.96875,0.0,0.0,0.0
1664564482674,-1.1230469,-0.31054688,-0.296875,-15.53125,-18.5,-12.09375,0.0,0.0,0.0
1664564482714,-1.1308594,-0.28808594,-0.31054688,1.9375,-14.0625,-8.25,0.0,0.0,0.0
1664564482773,-1.1181641,-0.040039062,-0.6923828,36.90625,16.9375,-3.375,0.0,0.0,0.0
1664564482793,-0.9423828,0.21875,-0.74316406,38.9375,29.40625,10.78125,0.0,0.0,0.0
1664564482834,-0.7705078,0.23339844,-0.48828125,-1.1875,-18.25,12.3125,0.0,0.0,0.0
1664564482873,-0.71777344,0.04296875,-0.29296875,-1.71875,-34.125,9.5625,0.0,0.0,0.0
1664564482913,-0.9667969,-0.119140625,-0.26660156,2.3125,-38.65625,-6.65625,0.0,0.0,0.0
1664564482954,-0.91796875,-0.06542969,-0.27734375,15.0,-30.90625,20.75,0.0,0.0,0.0
1664564482993,-0.69921875,0.10253906,-0.23046875,10.96875,-8.0625,26.34375,0.0,0.0,0.0
1664564483034,-0.6201172,0.06933594,-0.22363281,6.5625,5.125,23.53125,-65.375,-8.1875,-131.625
1664564483073,-0.7558594,-0.068359375,-0.19921875,0.40625,-19.25,26.78125,0.0,0.0,0.0
1664564483116,-0.8857422,-0.064453125,-0.15625,8.21875,-11.3125,43.3125,0.0,0.0,0.0
1664564483153,-0.8496094,-0.07324219,-0.20898438,11.03125,4.8125,40.09375,0.0,0.0,0.0
1664564483194,-0.9082031,0.12792969,-0.22070312,34.71875,23.59375,33.4375,0.0,0.0,0.0
1664564483233,-0.96484375,0.22753906,-0.24804688,18.59375,12.0625,20.3125,0.0,0.0,0.0
1664564483273,-1.0664062,0.1328125,-0.2265625,6.28125,5.1875,11.71875,0.0,0.0,0.0
1664564483334,-1.0732422,0.06738281,-0.21972656,3.46875,-11.84375,-3.5,0.0,0.0,0.0
1664564483354,-1.1572266,0.016601562,-0.18945312,-14.96875,-7.53125,-29.4375,0.0,0.0,0.0
1664564483394,-1.1269531,0.057617188,-0.5097656,-16.9375,26.65625,-17.71875,0.0,0.0,0.0
1664564483433,-0.6660156,-0.009765625,-0.5488281,-4.59375,14.3125,-34.625,0.0,0.0,0.0
1664564483494,-0.70214844,-0.051757812,-0.5078125,26.90625,15.78125,-24.6875,0.0,0.0,0.0
1664564483513,-0.859375,-0.037109375,-0.5761719,13.28125,20.3125,-6.125,0.0,0.0,0.0
1664564483554,-0.9003906,-0.033203125,-0.3955078,-4.40625,-4.34375,-11.0625,-64.9375,-1.75,-134.3125
1664564483614,-0.80371094,-0.030273438,-0.3564453,-4.09375,8.40625,-18.9375,0.0,0.0,0.0
1664564483633,-0.74609375,-0.103515625,-0.33496094,-7.34375,1.09375,-25.90625,0.0,0.0,0.0
1664564483674,-0.6933594,-0.064453125,-0.30664062,-5.9375,2.84375,-21.1875,0.0,0.0,0.0
1664564483713,-0.63671875,0.005859375,-0.3154297,-15.21875,5.1875,-16.96875,0.0,0.0,0.0
1664564483753,-0.72753906,-0.043945312,-0.31347656,-25.46875,0.15625,-15.15625,0.0,0.0,0.0
1664564483793,-0.82714844,-0.10644531,-0.3798828,-21.75,9.125,-14.0625,0.0,0.0,0.0
1664564483833,-0.9375,-0.13085938,-0.34472656,-19.375,5.46875,-9.0,0.0,0.0,0.0
1664564483873,-1.0136719,-0.14550781,-0.36328125,-27.40625,9.375,-9.90625,0.0,0.0,0.0
1664564483913,-1.1962891,-0.23535156,-0.42578125,-27.1875,10.375,-13.1875,0.0,0.0,0.0
1664564483954,-1.2324219,-0.2734375,-0.3330078,-35.53125,-26.1875,-12.09375,0.0,0.0,0.0
1664564483994,-1.1230469,-0.3046875,-0.52246094,-18.21875,-11.84375,-24.25,0.0,0.0,0.0
1664564484036,-1.0390625,-0.06933594,-0.66015625,29.78125,10.3125,-6.71875,-65.5625,-7.625,-136.25
1664564484093,-0.7480469,0.234375,-0.6220703,28.65625,2.5625,-0.5625,0.0,0.0,0.0
1664564484113,-0.6796875,0.18847656,-0.453125,7.0,-25.96875,-8.875,0.0,0.0,0.0
1664564484154,-0.7392578,-0.083984375,-0.38378906,0.34375,-28.09375,-14.3125,0.0,0.0,0.0
1664564484196,-0.8623047,-0.16894531,-0.28710938,0.65625,-41.6875,1.75,0.0,0.0,0.0
1664564484234,-0.83984375,-0.07910156,-0.22070312,11.28125,-11.4375,23.65625,0.0,0.0,0.0
1664564484273,-0.7753906,0.026367188,-0.24804688,13.28125,2.78125,28.78125,0.0,0.0,0.0
1664564484314,-0.7675781,0.021484375,-0.25,6.34375,-9.40625,27.28125,0.0,0.0,0.0
1664564484354,-0.8105469,-0.034179688,-0.20410156,8.65625,-3.96875,42.40625,0.0,0.0,0.0
1664564484393,-0.88378906,-0.07519531,-0.1875,8.53125,-12.71875,36.0625,0.0,0.0,0.0
1664564484433,-0.89941406,-0.03125,-0.1875,19.15625,1.09375,32.75,0.0,0.0,0.0
1664564484473,-0.99902344,0.0029296875,-0.2109375,16.34375,7.6875,37.875,0.0,0.0,0.0
1664564484513,-0.98535156,0.037109375,-0.24414062,21.09375,-20.53125,24.15625,0.0,0.0,0.0
1664564484554,-1.1015625,0.05859375,-0.17773438,19.03125,-12.03125,5.21875,-65.375,0.5,-130.5625
1664564484593,-1.1083984,0.052734375,-0.375,-13.9375,-12.34375,-21.8125,0.0,0.0,0.0
1664564484633,-1.0771484,0.09375,-0.5888672,-7.78125,7.1875,-23.40625,0.0,0.0,0.0
1664564484675,-0.7109375,0.017578125,-0.6738281,-22.65625,55.59375,-11.0625,0.0,0.0,0.0
1664564484713,-0.5644531,-0.07128906,-0.4296875,9.5625,0.46875,-32.0,0.0,0.0,0.0
1664564484753,-0.8925781,-0.034179688,-0.47558594,14.3125,20.25,-19.65625,0.0,0.0,0.0
1664564484793,-0.8408203,-0.068359375,-0.37304688,-8.1875,10.40625,-12.71875,0.0,0.0,0.0
1664564484854,-0.78808594,-0.03515625,-0.28515625,-16.9375,5.71875,-16.5625,0.0,0.0,0.0
1664564484873,-0.72753906,-0.05859375,-0.3408203,-8.0625,15.375,-22.90625,0.0,0.0,0.0
1664564484914,-0.69628906,-0.057617188,-0.33398438,-4.84375,13.03125,-25.59375,0.0,0.0,0.0
1664564484954,-0.76171875,-0.040039062,-0.2998047,-24.25,-7.53125,-15.9375,0.0,0.0,0.0
1664564484993,-0.7392578,-0.08496094,-0.30859375,-33.59375,-7.09375,-12.96875,0.0,0.0,0.0
1664564485034,-0.8535156,-0.18261719,-0.31640625,-22.28125,-1.90625,-13.3125,-64.1875,-5.6875,-131.875
1664564485074,-0.9013672,-0.18164062,-0.35742188,-10.75,-1.0,-4.15625,0.0,0.0,0.0
1664564485113,-0.9794922,-0.18847656,-0.35839844,-4.96875,5.78125,-0.625,0.0,0.0,0.0
1664564485153,-1.1660156,-0.18652344,-0.3515625,-14.59375,6.03125,0.0,0.0,0.0,0.0
1664564485193,-1.1582031,-0.32910156,-0.27539062,-20.09375,-28.59375,-6.78125,0.0,0.0,0.0
1664564485234,-1.078125,-0.31640625,-0.36328125,3.9375,-3.25,-6.25,0.0,0.0,0.0
1664564485273,-1.2314453,-0.045898438,-0.6933594,34.90625,37.40625,-4.96875,0.0,0.0,0.0
1664564485314,-0.9082031,0.17089844,-0.671875,30.375,16.59375,-12.90625,0.0,0.0,0.0
1664564485353,-0.66503906,0.25585938,-0.4873047,5.65625,-20.46875,-19.78125,0.0,0.0,0.0
1664564485394,-0.75,-0.04296875,-0.36328125,-3.96875,-24.6875,-13.6875,0.0,0.0,0.0
1664564485434,-0.84765625,-0.21484375,-0.28027344,1.3125,-42.3125,10.96875,0.0,0.0,0.0
1664564485473,-0.84472656,-0.11621094,-0.2548828,20.8125,-21.0625,24.53125,0.0,0.0,0.0
1664564485514,-0.8251953,0.029296875,-0.24316406,29.46875,-7.78125,26.96875,0.0,0.0,0.0
1664564485553,-0.79003906,0.059570312,-0.23535156,12.875,-7.21875,25.5625,-65.5625,-3.6875,-130.6875
1664564485613,-0.7480469,-0.09472656,-0.19238281,1.625,-13.5625,30.0,0.0,0.0,0.0
1664564485634,-0.7861328,-0.11230469,-0.171875,10.40625,-3.3125,42.59375,0.0,0.0,0.0
1664564485673,-0.8955078,-0.0087890625,-0.14550781,11.59375,4.0,40.09375,0.0,0.0,0.0
1664564485713,-0.9189453,-0.030273438,-0.19433594,14.4375,14.5625,32.875,0.0,0.0,0.0
1664564485758,-0.9560547,0.017578125,-0.2265625,19.03125,14.3125,24.75,0.0,0.0,0.0
1664564485793,-0.98535156,0.11230469,-0.17871094,19.75,7.3125,18.84375,0.0,0.0,0.0
1664564485833,-0.96875,0.08105469,-0.2861328,7.84375,-4.90625,-0.3125,0.0,0.0,0.0
1664564485873,-1.296875,0.0029296875,-0.4375,-8.0625,10.25,-18.375,0.0,0.0,0.0
1664564485913,-1.0888672,0.060546875,-0.54296875,-21.75,39.59375,-18.03125,0.0,0.0,0.0
1664564485953,-0.65234375,-0.13183594,-0.5078125,-0.1875,2.0,-41.9375,0.0,0.0,0.0
1664564485995,-0.7294922,-0.13378906,-0.53515625,8.65625,14.6875,-24.5625,0.0,0.0,0.0
1664564486033,-0.859375,-0.0029296875,-0.47265625,8.40625,15.0,4.75,-64.9375,-0.25,-131.875
1664564486073,-0.8388672,0.0126953125,-0.33398438,-3.96875,7.96875,-14.0625,0.0,0.0,0.0
1664564486114,-0.7734375,-0.125,-0.3779297,-14.46875,-0.4375,-18.9375,0.0,0.0,0.0
1664564486153,-0.7841797,-0.17285156,-0.3330078,-4.53125,0.46875,-6.0625,0.0,0.0,0.0
1664564486194,-0.7753906,-0.07910156,-0.34570312,5.78125,9.09375,-1.65625,0.0,0.0,0.0
1664564486253,-0.72558594,0.07128906,-0.35742188,-6.25,3.65625,-8.125,0.0,0.0,0.0
1664564486273,-0.71191406,0.0546875,-0.43066406,-22.46875,5.28125,-13.375,0.0,0.0,0.0
1664564486317,-0.7626953,-0.119140625,-0.41992188,-36.75,2.84375,-19.0,0.0,0.0,0.0
1664564486373,-0.9355469,-0.23632812,-0.2939453,-40.59375,-9.34375,-16.0625,0.0,0.0,0.0
1664564486393,-1.1328125,-0.3701172,-0.21972656,-22.21875,1.15625,-10.40625,0.0,0.0,0.0
1664564486433,-1.2597656,-0.23535156,-0.2783203,-2.625,2.5625,-4.21875,0.0,0.0,0.0
1664564486473,-1.2109375,-0.17480469,-0.44628906,-8.9375,2.65625,-7.34375,0.0,0.0,0.0
1664564486533,-1.2099609,-0.111328125,-0.63378906,-1.46875,-1.3125,0.71875,0.0,0.0,0.0
1664564486554,-0.9296875,0.12890625,-0.63183594,15.3125,-3.3125,3.59375,-65.875,-5.5,-133.875
1664564486595,-0.6464844,0.15039062,-0.51464844,9.125,-21.3125,-16.125,0.0,0.0,0.0
1664564486633,-0.7314453,0.068359375,-0.3857422,-2.09375,-49.75,-17.21875,0.0,0.0,0.0
1664564486674,-0.8457031,-0.14746094,-0.2548828,-5.3125,-52.5625,-9.90625,0.0,0.0,0.0
1664564486714,-0.8925781,-0.20410156,-0.2548828,17.9375,-29.4375,15.1875,0.0,0.0,0.0
1664564486754,-0.7207031,-0.040039062,-0.19140625,24.875,-11.3125,33.1875,0.0,0.0,0.0
1664564486794,-0.70996094,0.028320312,-0.18652344,27.5625,4.8125,33.8125,0.0,0.0,0.0
1664564486833,-0.7753906,-0.076171875,-0.21191406,18.46875,-15.03125,31.65625,0.0,0.0,0.0
1664564486874,-0.7949219,-0.055664062,-0.14648438,24.46875,-12.46875,34.96875,0.0,0.0,0.0
1664564486913,-0.88183594,0.0068359375,-0.16503906,23.53125,-2.59375,33.4375,0.0,0.0,0.0
1664564486953,-1.0039062,0.1015625,-0.16015625,28.1875,0.34375,40.4375,0.0,0.0,0.0
1664564486994,-0.9863281,0.0107421875,-0.16601562,4.5625,5.34375,15.375,0.0,0.0,0.0
1664564487033,-0.9345703,-0.053710938,-0.21191406,8.78125,-10.15625,10.78125,-64.9375,2.3125,-127.375
1664564487073,-1.0986328,0.0087890625,-0.115234375,5.71875,-7.78125,-1.65625,0.0,0.0,0.0
1664564487134,-1.3867188,-0.025390625,-0.18945312,-14.3125,18.53125,-20.46875,0.0,0.0,0.0
1664564487153,-1.2695312,0.08105469,-0.4736328,-14.90625,30.3125,5.21875,0.0,0.0,0.0
1664564487194,-0.6123047,0.0859375,-0.46875,-13.5,28.65625,-31.5625,0.0,0.0,0.0
1664564487233,-0.7402344,-0.056640625,-0.4892578,9.6875,22.875,-37.84375,0.0,0.0,0.0
1664564487274,-0.890625,-0.07421875,-0.46875,1.15625,15.25,-5.875,0.0,0.0,0.0
1664564487314,-0.8173828,-0.01171875,-0.2841797,-8.4375,9.03125,-18.875,0.0,0.0,0.0
1664564487353,-0.7314453,-0.07714844,-0.30859375,-15.03125,4.25,-27.125,0.0,0.0,0.0
1664564487393,-0.61816406,-0.14550781,-0.30371094,-17.21875,1.8125,-23.40625,0.0,0.0,0.0
1664564487433,-0.6123047,-0.057617188,-0.30078125,-8.9375,9.5625,-12.46875,0.0,0.0,0.0
1664564487474,-0.6826172,0.0234375,-0.33007812,-25.78125,13.71875,-4.71875,0.0,0.0,0.0
1664564487514,-0.8027344,-0.12792969,-0.3388672,-45.71875,8.34375,-10.09375,0.0,0.0,0.0
1664564487553,-1.0273438,-0.23828125,-0.31835938,-29.9375,3.90625,6.15625,-66.875,-5.0625,-133.125
1664564487593,-1.1210938,-0.22753906,-0.3720703,-5.875,27.03125,-11.5625,0.0,0.0,0.0
1664564487634,-1.3056641,-0.21386719,-0.296875,-15.8125,7.5,-9.46875,0.0,0.0,0.0
1664564487673,-1.1669922,-0.20019531,-0.33007812,-7.46875,-6.1875,-16.875,0.0,0.0,0.0
1664564487733,-1.0605469,-0.18359375,-0.6152344,1.28125,0.28125,-1.53125,0.0,0.0,0.0
1664564487753,-0.9296875,-0.040039062,-0.64453125,28.625,0.03125,21.46875,0.0,0.0,0.0
1664564487793,-0.8251953,0.42089844,-0.6015625,22.4375,-9.65625,16.71875,0.0,0.0,0.0
1664564487834,-0.6796875,0.18066406,-0.39453125,-20.59375,-33.875,-15.6875,0.0,0.0,0.0
1664564487894,-0.80371094,-0.1328125,-0.36621094,-10.9375,-46.34375,-18.9375,0.0,0.0,0.0
1664564487913,-0.8828125,-0.16503906,-0.27539062,-10.8125,-53.90625,-13.25,0.0,0.0,0.0
1664564487954,-0.76660156,-0.12011719,-0.24609375,24.53125,-19.4375,19.875,0.0,0.0,0.0
1664564487992,-0.75,0.083984375,-0.21484375,28.0625,-8.8125,28.4375,0.0,0.0,0.0
1664564488033,-0.7167969,0.060546875,-0.23046875,24.71875,-2.59375,36.125,-64.8125,-7.3125,-130.6875
1664564488074,-0.82128906,0.024414062,-0.21582031,15.71875,-9.53125,31.46875,0.0,0.0,0.0
1664564488112,-0.8779297,-0.064453125,-0.16992188,9.03125,2.0,34.21875,0.0,0.0,0.0
1664564488154,-0.9160156,-0.01171875,-0.20605469,15.84375,7.375,36.65625,0.0,0.0,0.0
1664564488193,-1.0371094,0.18164062,-0.20410156,3.84375,21.40625,28.65625,0.0,0.0,0.0
1664564488233,-0.94921875,0.0390625,-0.19921875,-9.53125,8.84375,4.6875,0.0,0.0,0.0
1664564488274,-0.9794922,-0.0126953125,-0.17773438,0.28125,-2.9375,0.28125,0.0,0.0,0.0
1664564488313,-1.0839844,0.020507812,-0.21386719,-5.4375,-12.71875,-9.40625,0.0,0.0,0.0
1664564488353,-1.2216797,0.0107421875,-0.54296875,-2.6875,4.75,-12.59375,0.0,0.0,0.0
1664564488395,-0.90234375,0.047851562,-0.5097656,-11.0625,37.8125,-2.6875,0.0,0.0,0.0
1664564488433,-0.625,0.021484375,-0.43652344,21.34375,17.1875,-28.46875,0.0,0.0,0.0
1664564488474,-0.83691406,0.09375,-0.49804688,22.125,16.46875,-21.25,0.0,0.0,0.0
1664564488513,-0.8847656,-0.09472656,-0.40429688,5.34375,-1.3125,-11.1875,0.0,0.0,0.0
1664564488553,-0.81640625,-0.076171875,-0.28808594,-3.5,6.40625,-15.875,-64.8125,-5.5,-134.125
1664564488593,-0.7421875,-0.057617188,-0.29296875,-1.3125,6.8125,-19.3125,0.0,0.0,0.0
1664564488653,-0.65527344,-0.044921875,-0.32226562,2.25,19.09375,-21.125,0.0,0.0,0.0
1664564488673,-0.66015625,-0.0029296875,-0.3330078,-2.03125,10.3125,-16.1875,0.0,0.0,0.0
1664564488713,-0.7558594,0.0078125,-0.25097656,-27.25,-10.5,-12.53125,0.0,0.0,0.0
1664564488754,-0.8486328,-0.15820312,-0.33007812,-45.71875,-7.28125,-26.0625,0.0,0.0,0.0
1664564488793,-0.97558594,-0.20703125,-0.29003906,-30.34375,-6.78125,-18.25,0.0,0.0,0.0
1664564488833,-1.0556641,-0.21386719,-0.31933594,-21.125,-5.15625,-16.96875,0.0,0.0,0.0
1664564488893,-1.2597656,-0.3017578,-0.27246094,-21.3125,-4.71875,-8.9375,0.0,0.0,0.0
1664564488913,-1.2158203,-0.21289062,-0.20019531,-14.46875,-11.0,-5.625,0.0,0.0,0.0
1664564488953,-1.1972656,-0.25097656,-0.58203125,15.625,23.84375,-1.53125,0.0,0.0,0.0
1664564488994,-0.9609375,0.0146484375,-0.6347656,41.5,28.4375,-0.1875,0.0,0.0,0.0
1664564489034,-0.7080078,0.3232422,-0.5625,32.15625,0.96875,-2.15625,-63.125,-7.75,-138.1875
1664564489072,-0.7294922,0.109375,-0.38476562,-23.9375,-38.71875,-14.25,0.0,0.0,0.0
1664564489114,-0.7792969,-0.1796875,-0.328125,-16.3125,-45.25,-16.875,0.0,0.0,0.0
1664564489153,-0.93652344,-0.23144531,-0.2109375,11.8125,-45.0625,3.28125,0.0,0.0,0.0
1664564489193,-0.7939453,-0.07714844,-0.20019531,23.0625,-16.5625,25.875,0.0,0.0,0.0
1664564489234,-0.73046875,0.057617188,-0.21777344,27.375,0.90625,28.1875,0.0,0.0,0.0
1664564489273,-0.70703125,-0.056640625,-0.23535156,22.6875,-4.46875,35.03125,0.0,0.0,0.0
1664564489313,-0.7265625,-0.038085938,-0.23535156,28.90625,-5.03125,52.96875,0.0,0.0,0.0
1664564489355,-0.9355469,-0.029296875,-0.17871094,29.46875,18.34375,48.375,0.0,0.0,0.0
1664564489413,-0.9453125,0.013671875,-0.20410156,20.3125,30.5,32.03125,0.0,0.0,0.0
1664564489433,-0.9326172,0.060546875,-0.17773438,5.71875,22.375,17.25,0.0,0.0,0.0
1664564489474,-1.0371094,0.0625,-0.15039062,6.40625,-2.53125,9.6875,0.0,0.0,0.0
1664564489513,-1.0664062,0.044921875,-0.18261719,-9.0,-11.84375,-10.4375,0.0,0.0,0.0
1664564489553,-1.1904297,0.06738281,-0.18359375,-25.46875,-2.46875,-19.25,-62.875,-1.3125,-134.3125
1664564489594,-1.03125,-0.001953125,-0.47265625,-15.9375,27.9375,0.0,0.0,0.0,0.0
1664564489633,-0.6171875,-0.14746094,-0.5,-7.09375,-6.0625,-19.4375,0.0,0.0,0.0
1664564489674,-0.85546875,-0.07128906,-0.4326172,33.375,-0.0625,-13.375,0.0,0.0,0.0
1664564489713,-0.9111328,-0.057617188,-0.5253906,17.0,28.0,-1.65625,0.0,0.0,0.0
1664564489754,-0.8671875,-0.032226562,-0.39648438,5.34375,3.09375,-10.03125,0.0,0.0,0.0
1664564489793,-0.796875,-0.09082031,-0.3251953,1.5,0.09375,-20.59375,0.0,0.0,0.0
1664564489833,-0.6777344,-0.123046875,-0.35058594,-1.71875,3.53125,-16.4375,0.0,0.0,0.0
1664564489874,-0.6357422,-0.0234375,-0.32421875,2.78125,9.75,-14.65625,0.0,0.0,0.0
1664564489913,-0.75,0.064453125,-0.40820312,-3.625,11.03125,-5.03125,0.0,0.0,0.0
1664564489953,-0.84765625,-0.0126953125,-0.34570312,-32.4375,1.03125,-14.90625,0.0,0.0,0.0
1664564489993,-0.8984375,-0.16699219,-0.31152344,-44.3125,0.46875,-21.375,0.0,0.0,0.0
1664564490034,-1.0039062,-0.20117188,-0.2578125,-44.75,1.5,-21.75,-63.3125,-5.8125,-136.25
1664564490074,-1.1015625,-0.24316406,-0.3076172,-32.96875,6.9375,-22.96875,0.0,0.0,0.0
1664564490113,-1.1767578,-0.2529297,-0.3076172,-27.59375,-5.03125,-21.75,0.0,0.0,0.0
1664564490174,-1.1044922,-0.31835938,-0.484375,-16.75,-15.21875,-15.53125,0.0,0.0,0.0
1664564490193,-1.1328125,-0.07714844,-0.6015625,24.40625,7.3125,3.15625,0.0,0.0,0.0
1664564490253,-0.8886719,0.18164062,-0.5800781,20.625,-2.59375,10.84375,0.0,0.0,0.0
1664564490273,-0.68847656,0.064453125,-0.43359375,5.59375,-21.125,-4.90625,0.0,0.0,0.0
1664564490314,-0.8388672,-0.041015625,-0.3623047,6.46875,-27.0625,-1.65625,0.0,0.0,0.0
1664564490354,-0.9814453,-0.09863281,-0.3046875,2.5,-38.09375,-10.15625,0.0,0.0,0.0
1664564490393,-0.76171875,-0.0859375,-0.23925781,18.34375,-24.96875,15.5625,0.0,0.0,0.0
1664564490433,-0.74121094,0.022460938,-0.21289062,30.3125,1.5625,25.3125,0.0,0.0,0.0
1664564490474,-0.7158203,0.068359375,-0.22265625,19.625,7.5625,34.15625,0.0,0.0,0.0
1664564490513,-0.74316406,-0.015625,-0.20019531,9.9375,-2.46875,45.15625,0.0,0.0,0.0
1664564490553,-0.8183594,-0.13964844,-0.20117188,6.40625,9.875,47.65625,-64.1875,-1.75,-132.625
1664564490594,-0.94140625,-0.049804688,-0.17871094,15.0625,17.0,42.15625,0.0,0.0,0.0
1664564490634,-0.9589844,0.015625,-0.19238281,18.90625,18.59375,35.5625,0.0,0.0,0.0
1664564490673,-0.99609375,-0.001953125,-0.22851562,10.125,2.78125,26.46875,0.0,0.0,0.0
1664564490714,-1.0361328,0.028320312,-0.16601562,19.8125,-17.09375,9.8125,0.0,0.0,0.0
1664564490753,-1.2548828,0.055664062,-0.07421875,0.09375,2.25,-24.625,0.0,0.0,0.0
1664564490794,-1.2890625,0.10839844,-0.44140625,-2.8125,14.03125,6.28125,0.0,0.0,0.0
1664564490833,-0.6074219,0.064453125,-0.5908203,-7.34375,14.15625,-21.5625,0.0,0.0,0.0
1664564490873,-0.73535156,-0.07910156,-0.5136719,15.5625,-11.0625,-41.21875,0.0,0.0,0.0
1664564490933,-0.9550781,-0.18261719,-0.53222656,16.34375,8.40625,1.375,0.0,0.0,0.0
1664564490953,-0.7998047,-0.041992188,-0.3251953,5.34375,9.25,0.40625,0.0,0.0,0.0
1664564490993,-0.79785156,-0.044921875,-0.35742188,7.125,8.84375,-15.09375,0.0,0.0,0.0
1664564491034,-0.6816406,-0.060546875,-0.32421875,-3.8125,2.78125,-16.6875,-63.875,1.25,-135.0625
1664564491073,-0.57421875,0.0078125,-0.3310547,0.21875,15.375,-16.5625,0.0,0.0,0.0
1664564491114,-0.6845703,0.076171875,-0.34472656,-15.75,10.1875,-13.0625,0.0,0.0,0.0
1664564491153,-0.8046875,-0.001953125,-0.39746094,-30.78125,6.5625,-12.40625,0.0,0.0,0.0
1664564491194,-0.9238281,-0.13183594,-0.3779297,-43.28125,8.96875,-17.59375,0.0,0.0,0.0
1664564491236,-1.0839844,-0.2919922,-0.35546875,-42.9375,4.1875,-20.875,0.0,0.0,0.0
1664564491274,-1.1933594,-0.4033203,-0.34570312,-19.375,3.71875,-15.40625,0.0,0.0,0.0
1664564491334,-1.1748047,-0.24023438,-0.35839844,-10.40625,-8.5,-2.46875,0.0,0.0,0.0
1664564491353,-1.1269531,-0.20117188,-0.5859375,3.9375,3.40625,-4.09375,0.0,0.0,0.0
1664564491394,-1.0917969,0.13574219,-0.6923828,27.6875,15.1875,0.96875,0.0,0.0,0.0
1664564491433,-0.78027344,0.3017578,-0.6269531,13.65625,2.0,-11.5,0.0,0.0,0.0
1664564491473,-0.6826172,0.10058594,-0.44335938,-15.75,-39.03125,-16.375,0.0,0.0,0.0
1664564491514,-0.76171875,-0.022460938,-0.3076172,-10.4375,-46.46875,-4.46875,0.0,0.0,0.0
1664564491554,-0.96875,-0.2109375,-0.30371094,8.21875,-40.1875,-1.78125,-63.875,-3.125,-134.0
1664564491596,-0.75,-0.08984375,-0.22851562,18.40625,-14.34375,26.0,0.0,0.0,0.0
1664564491633,-0.6748047,0.10644531,-0.1875,25.5,-2.28125,33.5625,0.0,0.0,0.0
1664564491694,-0.6777344,0.10449219,-0.24511719,13.34375,-4.40625,29.59375,0.0,0.0,0.0
1664564491714,-0.78222656,-0.030273438,-0.20507812,8.59375,-19.78125,36.125,0.0,0.0,0.0
1664564491753,-0.89941406,-0.030273438,-0.19726562,5.84375,-9.84375,28.1875,0.0,0.0,0.0
1664564491793,-0.9453125,0.009765625,-0.15527344,17.0,10.84375,31.90625,0.0,0.0,0.0
1664564491834,-0.9873047,0.0107421875,-0.24902344,11.65625,22.03125,29.15625,0.0,0.0,0.0
1664564491874,-1.0351562,0.0126953125,-0.24121094,8.28125,0.84375,21.46875,0.0,0.0,0.0
1664564491914,-1.1083984,-0.018554688,-0.17480469,6.34375,-3.5,18.65625,0.0,0.0,0.0
1664564491954,-1.0771484,0.020507812,-0.15136719,-6.3125,-0.375,-22.34375,0.0,0.0,0.0
1664564491994,-1.4697266,0.21777344,-0.5527344,6.625,39.21875,-2.21875,0.0,0.0,0.0
1664564492033,-0.7392578,0.051757812,-0.5341797,-20.28125,33.625,-32.90625,-61.5,4.25,-132.5
1664564492074,-0.7841797,-0.064453125,-0.5136719,7.4375,-5.625,-35.21875,0.0,0.0,0.0
1664564492114,-0.828125,-0.025390625,-0.42578125,15.625,9.875,-6.5,0.0,0.0,0.0
1664564492154,-0.8535156,-0.08300781,-0.38867188,19.21875,22.25,-7.8125,0.0,0.0,0.0
1664564492194,-0.75878906,-0.0107421875,-0.32910156,6.75,6.34375,-17.53125,0.0,0.0,0.0
1664564492233,-0.68066406,-0.0390625,-0.2998047,-4.21875,-0.0625,-19.71875,0.0,0.0,0.0
1664564492274,-0.65625,-0.072265625,-0.25683594,0.28125,0.71875,-18.5625,0.0,0.0,0.0
1664564492313,-0.6972656,-0.044921875,-0.2919922,1.5625,7.0625,-14.0,0.0,0.0,0.0
1664564492354,-0.7685547,-0.026367188,-0.35058594,-20.21875,3.78125,-20.40625,0.0,0.0,0.0
1664564492393,-0.921875,-0.083984375,-0.34472656,-29.5625,-1.40625,-17.78125,0.0,0.0,0.0
1664564492454,-1.0078125,-0.123046875,-0.34277344,-34.125,-5.875,-7.40625,0.0,0.0,0.0
1664564492494,-1.0585938,-0.23046875,-0.3623047,-19.0,4.3125,-6.0625,0.0,0.0,0.0
1664564492513,-1.2236328,-0.1953125,-0.29785156,-23.9375,-4.34375,-7.71875,0.0,0.0,0.0
1664564492553,-1.0742188,-0.25,-0.15332031,-29.25,-16.375,-14.84375,-63.875,-1.75,-134.0
1664564492594,-1.171875,-0.22753906,-0.56347656,6.09375,16.53125,-17.71875,0.0,0.0,0.0
1664564492633,-1.0986328,0.045898438,-0.59472656,22.9375,20.625,-4.71875,0.0,0.0,0.0
1664564492674,-0.81640625,0.25097656,-0.5839844,10.84375,-9.40625,0.40625,0.0,0.0,0.0
1664564492713,-0.72265625,0.09667969,-0.4560547,-5.25,-37.0,-5.9375,0.0,0.0,0.0
1664564492753,-0.8261719,-0.013671875,-0.36914062,-4.96875,-31.5625,-13.625,0.0,0.0,0.0
1664564492800,-1.0371094,-0.030273438,-0.30664062,-8.9375,-49.6875,-15.59375,0.0,0.0,0.0
1664564492833,-0.82714844,-0.09667969,-0.25585938,-1.3125,-17.03125,18.71875,0.0,0.0,0.0
1664564492874,-0.73828125,-0.02734375,-0.23144531,7.125,-3.125,27.5625,0.0,0.0,0.0
1664564492914,-0.7246094,-0.09277344,-0.23730469,14.21875,-4.90625,38.1875,0.0,0.0,0.0
1664564492953,-0.8339844,-0.087890625,-0.20996094,12.6875,-17.28125,40.21875,0.0,0.0,0.0
1664564492994,-0.91503906,-0.017578125,-0.17089844,24.15625,7.25,36.3125,0.0,0.0,0.0
1664564493033,-0.8925781,0.01953125,-0.16992188,19.21875,12.0,28.5625,-63.125,1.5625,-129.5
1664564493074,-1.0107422,0.061523438,-0.17285156,8.40625,0.78125,22.875,0.0,0.0,0.0
1664564493114,-0.9355469,0.040039062,-0.13085938,7.8125,-13.0625,12.0625,0.0,0.0,0.0
1664564493154,-0.9589844,0.01953125,-0.15625,-5.75,-19.59375,-12.21875,0.0,0.0,0.0
1664564493214,-1.6054688,0.072265625,-0.7128906,17.875,52.90625,-11.84375,0.0,0.0,0.0
1664564493233,-0.6972656,0.07324219,-0.72753906,-19.1875,50.53125,-14.40625,0.0,0.0,0.0
1664564493274,-0.7714844,-0.08691406,-0.38964844,14.21875,-22.65625,-36.8125,0.0,0.0,0.0
1664564493313,-0.8701172,-0.017578125,-0.5605469,22.3125,41.125,-7.40625,0.0,0.0,0.0
1664564493354,-0.88964844,-0.068359375,-0.40722656,11.46875,13.21875,-8.375,0.0,0.0,0.0
1664564493393,-0.7548828,-0.08984375,-0.3095703,-4.34375,1.9375,-19.65625,0.0,0.0,0.0
1664564493434,-0.6796875,-0.057617188,-0.2919922,-5.4375,4.9375,-17.96875,0.0,0.0,0.0
1664564493474,-0.6298828,-0.0048828125,-0.27441406,-4.71875,4.3125,-16.4375,0.0,0.0,0.0
1664564493514,-0.6308594,-0.033203125,-0.234375,-17.78125,6.9375,-10.4375,0.0,0.0,0.0
1664564493554,-0.7861328,-0.057617188,-0.35742188,-24.3125,4.5,-9.59375,-63.875,-2.375,-131.625
1664564493593,-0.9189453,-0.17382812,-0.33398438,-28.8125,0.71875,-5.625,0.0,0.0,0.0
1664564493654,-0.9296875,-0.19921875,-0.3779297,-22.0,17.75,-4.53125,0.0,0.0,0.0
1664564493673,-1.1474609,-0.18164062,-0.375,-16.9375,14.03125,-7.65625,0.0,0.0,0.0
1664564493714,-1.2216797,-0.28222656,-0.28515625,-17.71875,-17.96875,-9.0625,0.0,0.0,0.0
1664564493754,-1.1328125,-0.21777344,-0.3046875,-15.59375,-14.125,-8.3125,0.0,0.0,0.0
1664564493794,-1.2021484,-0.15625,-0.5214844,6.21875,5.1875,-3.4375,0.0,0.0,0.0
1664564493833,-1.0341797,0.10839844,-0.6269531,26.0,23.96875,-2.75,0.0,0.0,0.0
1664564493874,-0.73535156,0.12792969,-0.49804688,19.5625,2.0,-7.28125,0.0,0.0,0.0
1664564493913,-0.8095703,0.055664062,-0.41015625,10.0625,-21.9375,1.03125,0.0,0.0,0.0
1664564493973,-0.8310547,-0.0078125,-0.30664062,6.34375,-32.375,-4.65625,0.0,0.0,0.0
1664564493993,-0.8984375,-0.05078125,-0.29589844,15.71875,-36.5,-1.25,0.0,0.0,0.0
1664564494034,-0.6972656,-0.049804688,-0.2265625,18.53125,-24.3125,19.6875,-62.875,-4.625,-130.25
1664564494074,-0.66015625,-0.03125,-0.22070312,22.4375,-6.375,26.71875,0.0,0.0,0.0
1664564494113,-0.69921875,0.060546875,-0.2265625,27.375,-10.15625,38.0,0.0,0.0,0.0
1664564494154,-0.88183594,0.06542969,-0.17871094,20.1875,-7.53125,46.625,0.0,0.0,0.0
1664564494193,-0.93847656,0.0107421875,-0.23632812,5.28125,-3.5625,35.375,0.0,0.0,0.0
1664564494233,-0.9355469,-0.015625,-0.21972656,20.625,-16.25,25.6875,0.0,0.0,0.0
1664564494274,-1.0136719,0.032226562,-0.09667969,20.0625,-1.25,17.6875,0.0,0.0,0.0
1664564494313,-1.0439453,0.032226562,-0.203125,-5.875,13.0,17.6875,0.0,0.0,0.0
1664564494353,-1.03125,0.049804688,-0.09472656,-2.21875,-1.0,11.75,0.0,0.0,0.0
1664564494394,-0.9501953,0.048828125,-0.35351562,-19.0,-1.84375,-13.8125,0.0,0.0,0.0
1664564494433,-1.1005859,0.0068359375,-0.49121094,-24.0625,-6.0625,-1.65625,0.0,0.0,0.0
1664564494474,-0.9550781,0.11035156,-0.53222656,-35.21875,36.90625,3.9375,0.0,0.0,0.0
1664564494514,-0.7675781,-0.03125,-0.4501953,-13.03125,-4.84375,-20.40625,0.0,0.0,0.0
1664564494553,-0.8359375,-0.0029296875,-0.50878906,1.75,14.28125,-22.90625,-63.625,0.5,-130.5625
1664564494593,-0.8300781,-0.0625,-0.44140625,11.34375,22.5,-12.78125,0.0,0.0,0.0
1664564494634,-0.8144531,-0.049804688,-0.35546875,6.46875,7.25,-17.90625,0.0,0.0,0.0
1664564494674,-0.76953125,-0.044921875,-0.30371094,-0.0625,8.40625,-21.75,0.0,0.0,0.0
1664564494734,-0.70703125,-0.08496094,-0.30566406,-12.34375,15.375,-21.25,0.0,0.0,0.0
1664564494753,-0.7001953,-0.123046875,-0.28222656,-15.28125,-3.6875,-19.0625,0.0,0.0,0.0
1664564494794,-0.69140625,-0.04296875,-0.24316406,-7.40625,6.5625,-10.03125,0.0,0.0,0.0
1664564494833,-0.8339844,-0.036132812,-0.31445312,-11.4375,8.40625,-12.09375,0.0,0.0,0.0
1664564494874,-0.87402344,-0.064453125,-0.32714844,-11.375,8.96875,-10.03125,0.0,0.0,0.0
1664564494913,-0.9423828,-0.059570312,-0.41015625,-22.0,14.3125,-5.6875,0.0,0.0,0.0
1664564494954,-1.0976562,-0.19433594,-0.36132812,-31.09375,1.4375,-8.6875,0.0,0.0,0.0
1664564494994,-1.2001953,-0.3623047,-0.2705078,-17.21875,-7.03125,-4.21875,0.0,0.0,0.0
1664564495034,-1.1894531,-0.20214844,-0.28515625,12.6875,11.71875,-6.96875,-61.9375,-2.6875,-130.375
1664564495073,-1.2460938,-0.10058594,-0.5732422,20.375,16.78125,-7.09375,0.0,0.0,0.0
1664564495114,-1.1777344,0.0146484375,-0.58984375,20.375,-1.0,-7.09375,0.0,0.0,0.0
1664564495153,-0.8144531,0.05078125,-0.546875,22.1875,-2.9375,-8.625,0.0,0.0,0.0
1664564495193,-0.6826172,0.15429688,-0.4248047,12.75,-28.03125,1.09375,0.0,0.0,0.0
1664564495234,-0.7841797,-0.046875,-0.33496094,8.34375,-29.625,-10.75,0.0,0.0,0.0
1664564495274,-0.9716797,-0.09472656,-0.2890625,4.1875,-39.0625,-18.8125,0.0,0.0,0.0
1664564495315,-0.8066406,-0.045898438,-0.20507812,23.53125,-15.6875,7.96875,0.0,0.0,0.0
1664564495354,-0.6513672,-0.0068359375,-0.18261719,25.375,-13.9375,16.03125,0.0,0.0,0.0
1664564495394,-0.6767578,-0.00390625,-0.23242188,19.875,-12.65625,25.375,0.0,0.0,0.0
1664564495433,-0.78027344,-0.05078125,-0.20117188,20.125,-13.625,41.125,0.0,0.0,0.0
1664564495494,-0.8964844,-0.044921875,-0.17578125,10.53125,-0.25,37.8125,0.0,0.0,0.0
1664564495513,-0.90234375,-0.06640625,-0.18554688,8.21875,12.375,29.9375,0.0,0.0,0.0
1664564495555,-0.9326172,-0.021484375,-0.19140625,7.84375,10.84375,30.25,-62.875,3.625,-126.375
1664564495594,-0.88964844,0.018554688,-0.16894531,13.65625,6.5,26.84375,0.0,0.0,0.0
1664564495634,-0.9746094,-0.015625,-0.1796875,9.375,0.15625,13.96875,0.0,0.0,0.0
1664564495674,-0.9892578,0.01953125,-0.13378906,18.84375,-7.9375,3.03125,0.0,0.0,0.0
1664564495713,-1.109375,0.20800781,-0.3955078,16.46875,30.625,-8.1875,0.0,0.0,0.0
1664564495753,-1.3056641,0.11425781,-0.50683594,-16.5,8.65625,-6.3125,0.0,0.0,0.0
1664564495794,-1.0976562,-0.107421875,-0.36523438,-39.1875,16.84375,-22.125,0.0,0.0,0.0
1664564495834,-0.89160156,-0.125,-0.4453125,-5.15625,-0.3125,-14.3125,0.0,0.0,0.0
1664564495874,-0.81347656,0.0126953125,-0.55371094,8.40625,20.96875,-0.0625,0.0,0.0,0.0
1664564495914,-0.69628906,0.040039062,-0.4794922,4.5625,1.375,-9.125,0.0,0.0,0.0
1664564495954,-0.79785156,0.02734375,-0.40234375,7.0,-3.8125,-19.0625,0.0,0.0,0.0
1664564495994,-0.7626953,0.028320312,-0.40820312,-13.125,2.5625,-30.34375,0.0,0.0,0.0
1664564496033,-0.75097656,-0.09472656,-0.34277344,-19.96875,-7.09375,-31.5,0.0,0.0,0.0
1664564496074,-0.7285156,-0.14257812,-0.32421875,-16.0,-12.96875,-33.84375,-64.5,-2.9375,-126.9375
1664564496134,-0.7480469,-0.11035156,-0.3251953,-13.03125,-10.09375,-23.625,0.0,0.0,0.0
1664564496153,-0.7763672,-0.041015625,-0.31933594,-9.125,-4.09375,-12.40625,0.0,0.0,0.0
1664564496194,-0.8251953,-0.043945312,-0.3623047,-14.0625,-4.03125,-10.5,0.0,0.0,0.0
1664564496253,-0.85839844,-0.0625,-0.328125,-15.15625,-6.25,-11.625,0.0,0.0,0.0
1664564496273,-0.8466797,-0.12792969,-0.3388672,-21.6875,-3.8125,-18.9375,0.0,0.0,0.0
1664564496314,-0.86816406,-0.17578125,-0.32617188,-18.375,-3.625,-14.78125,0.0,0.0,0.0
1664564496353,-0.8847656,-0.140625,-0.28222656,-19.25,-9.96875,-4.09375,0.0,0.0,0.0
1664564496393,-0.859375,-0.16308594,-0.41601562,-22.125,-2.625,-5.25,0.0,0.0,0.0
1664564496434,-1.0048828,-0.12890625,-0.40820312,-6.125,-1.125,-11.84375,0.0,0.0,0.0
1664564496473,-0.84472656,-0.0859375,-0.2861328,-4.84375,2.3125,-13.375,0.0,0.0,0.0
1664564496514,-0.7910156,-0.10839844,-0.21875,-12.84375,-6.71875,-6.78125,0.0,0.0,0.0
1664564496556,-0.93652344,-0.22753906,-0.2705078,-13.25,-3.8125,-3.90625,-63.125,-8.8125,-124.6875
1664564496595,-0.9863281,-0.13476562,-0.28027344,-1.40625,8.03125,0.03125,0.0,0.0,0.0
1664564496634,-0.9238281,-0.02734375,-0.29492188,-2.9375,2.71875,1.3125,0.0,0.0,0.0
1664564496673,-0.86035156,-0.07714844,-0.2734375,-8.8125,-2.875,-2.875,0.0,0.0,0.0
1664564496713,-0.8925781,-0.15625,-0.2763672,-4.71875,-5.875,2.0,0.0,0.0,0.0
1664564496753,-0.9121094,-0.095703125,-0.2939453,-0.3125,-2.9375,8.03125,0.0,0.0,0.0
1664564496794,-0.9189453,-0.060546875,-0.29101562,-3.4375,-3.75,4.25,0.0,0.0,0.0
1664564496833,-0.8886719,-0.13964844,-0.28710938,-4.34375,-3.25,1.6875,0.0,0.0,0.0
1664564496874,-0.89941406,-0.14355469,-0.30371094,-2.28125,3.71875,5.1875,0.0,0.0,0.0
1664564496914,-0.91308594,-0.09472656,-0.3076172,-4.71875,-0.75,4.375,0.0,0.0,0.0
1664564496954,-0.8964844,-0.115234375,-0.29589844,-5.25,-2.9375,-0.4375,0.0,0.0,0.0
1664564497014,-0.9013672,-0.12695312,-0.28222656,-2.34375,-3.875,-1.65625,0.0,0.0,0.0
1664564497033,-0.90625,-0.12109375,-0.28808594,-1.78125,-1.65625,-1.34375,0.0,0.0,0.0
1664564497074,-0.91503906,-0.13085938,-0.28222656,-1.25,-0.1875,-1.34375,-63.125,-10.0,-125.75
1664564497113,-0.90722656,-0.119140625,-0.27539062,1.09375,0.71875,-3.1875,0.0,0.0,0.0
1664564497154,-0.9169922,-0.13085938,-0.2763672,-1.0625,-0.1875,-2.34375,0.0,0.0,0.0
1664564497194,-0.91308594,-0.11621094,-0.2890625,-1.1875,-0.375,0.09375,0.0,0.0,0.0
1664564497234,-0.9121094,-0.12109375,-0.26953125,-0.875,-3.625,0.40625,0.0,0.0,0.0
1664564497274,-0.89453125,-0.14160156,-0.2763672,0.78125,-2.59375,-0.3125,0.0,0.0,0.0
1664564497314,-0.9003906,-0.11816406,-0.2890625,1.625,0.03125,-0.0625,0.0,0.0,0.0
1664564497354,-0.91308594,-0.11425781,-0.26757812,1.09375,-1.84375,-0.1875,0.0,0.0,0.0
1664564497394,-0.8964844,-0.12402344,-0.26953125,-0.125,-1.78125,0.59375,0.0,0.0,0.0
1664564497434,-0.91015625,-0.12011719,-0.29003906,-0.375,-1.1875,0.96875,0.0,0.0,0.0
1664564497474,-0.91015625,-0.13476562,-0.26660156,0.71875,0.21875,-0.125,0.0,0.0,0.0
1664564497514,-0.9140625,-0.12402344,-0.26660156,1.6875,1.6875,0.28125,0.0,0.0,0.0
1664564497554,-0.9160156,-0.115234375,-0.2705078,0.96875,1.625,0.78125,-63.875,-10.3125,-123.9375
1664564497594,-0.9169922,-0.11816406,-0.28320312,0.34375,1.3125,1.375,0.0,0.0,0.0
1664564497634,-0.9082031,-0.11425781,-0.28125,-1.125,1.75,1.375,0.0,0.0,0.0
1664564497673,-0.9140625,-0.11816406,-0.28710938,-2.15625,1.5625,0.84375,0.0,0.0,0.0
1664564497714,-0.89941406,-0.13378906,-0.28320312,-1.78125,0.84375,0.34375,0.0,0.0,0.0
1664564497773,-0.9082031,-0.14550781,-0.27734375,0.78125,1.375,0.71875,0.0,0.0,0.0
1664564497794,-0.9189453,-0.12988281,-0.28027344,1.09375,2.65625,1.03125,0.0,0.0,0.0
1664564497834,-0.9033203,-0.11621094,-0.28125,1.6875,2.5,0.65625,0.0,0.0,0.0
1664564497874,-0.89746094,-0.111328125,-0.31054688,1.5,2.25,0.40625,0.0,0.0,0.0
1664564497913,-0.9003906,-0.11230469,-0.3095703,-0.0625,0.65625,0.46875,0.0,0.0,0.0
1664564497954,-0.89941406,-0.11035156,-0.30371094,0.0,0.71875,0.21875,0.0,0.0,0.0
1664564497994,-0.91015625,-0.11328125,-0.29882812,-0.4375,0.84375,0.0,0.0,0.0,0.0
1664564498034,-0.9033203,-0.119140625,-0.29589844,-0.5625,1.4375,0.09375,0.0,0.0,0.0
1664564498072,-0.90625,-0.12011719,-0.2861328,-1.1875,1.875,0.21875,-64.5,-10.4375,-125.4375
