# Sensor type: Thingy
# Activity type: Walking at normal speed
# Activity code: 1
# Subject id: s1800825
# Notes: 
timestamp,accel_x,accel_y,accel_z,gyro_x,gyro_y,gyro_z,mag_x,mag_y,mag_z
1664566862703,-0.81933594,0.03515625,0.28710938,-17.34375,-21.3125,-22.84375,0.0,0.0,0.0
1664566862705,-0.94140625,0.11425781,0.4716797,-29.3125,-33.03125,-19.4375,0.0,0.0,0.0
1664566862709,-0.9638672,-0.047851562,0.27539062,-57.03125,-9.34375,6.9375,0.0,0.0,0.0
1664566862743,-1.0126953,0.005859375,0.22167969,-27.59375,-28.65625,-5.625,0.0,0.0,0.0
1664566862784,-1.0087891,-0.0029296875,0.40429688,-17.96875,-42.0,-32.1875,0.0,0.0,0.0
1664566862822,-0.9082031,-0.034179688,0.30371094,58.9375,-24.84375,-55.875,0.0,0.0,0.0
1664566862863,-0.99316406,0.115234375,0.375,22.625,-28.28125,-50.3125,0.0,0.0,0.0
1664566862903,-0.8457031,-0.076171875,0.4248047,22.1875,-33.71875,-26.25,0.0,0.0,0.0
1664566862942,-0.85839844,-0.12207031,0.44726562,17.3125,-16.375,-23.5625,-70.375,23.75,-110.875
1664566862982,-0.76464844,0.048828125,0.4921875,-1.0,10.65625,1.6875,0.0,0.0,0.0
1664566863022,-0.9169922,-0.13671875,0.31933594,0.71875,33.5,-21.125,0.0,0.0,0.0
1664566863062,-0.7451172,-0.0859375,0.22363281,-51.65625,58.8125,-42.8125,0.0,0.0,0.0
1664566863104,-1.0048828,-0.33007812,0.4345703,-32.25,39.59375,-12.59375,0.0,0.0,0.0
1664566863142,-0.7685547,-0.0390625,0.43945312,54.4375,-21.5,13.03125,0.0,0.0,0.0
1664566863182,-0.9423828,-0.14355469,0.49023438,36.25,-16.4375,17.75,0.0,0.0,0.0
1664566863222,-0.86035156,-0.15527344,0.45898438,28.0625,-12.53125,1.3125,0.0,0.0,0.0
1664566863262,-0.95214844,-0.13183594,0.50683594,69.1875,-32.375,-5.5,0.0,0.0,0.0
1664566863303,-0.9355469,-0.123046875,0.7285156,58.53125,-0.25,6.21875,0.0,0.0,0.0
1664566863362,-0.82714844,-0.0068359375,0.66308594,52.40625,-8.3125,28.4375,0.0,0.0,0.0
1664566863384,-1.1767578,0.080078125,0.45410156,-4.59375,33.125,45.15625,0.0,0.0,0.0
1664566863422,-1.0029297,0.037109375,0.2890625,-58.78125,68.46875,30.9375,0.0,0.0,0.0
1664566863462,-0.82421875,0.23730469,-0.15039062,-57.21875,64.75,14.09375,-69.4375,29.3125,-117.5
1664566863503,-1.0966797,0.16308594,0.12890625,10.84375,24.46875,66.28125,0.0,0.0,0.0
1664566863542,-1.0283203,-0.022460938,-0.1328125,-35.40625,69.3125,6.46875,0.0,0.0,0.0
1664566863582,-1.0283203,0.3095703,0.09277344,66.5625,12.0625,11.9375,0.0,0.0,0.0
1664566863622,-0.8066406,0.18652344,-0.04296875,-12.65625,72.90625,-9.59375,0.0,0.0,0.0
1664566863663,-0.82910156,0.27929688,0.083984375,51.6875,66.5,-2.15625,0.0,0.0,0.0
1664566863706,-0.93847656,0.033203125,0.03515625,-16.5,63.21875,-5.9375,0.0,0.0,0.0
1664566863743,-0.87597656,0.14550781,-0.04296875,20.5,72.8125,1.8125,0.0,0.0,0.0
1664566863782,-0.91015625,0.15332031,0.14746094,10.375,61.8125,16.78125,0.0,0.0,0.0
1664566863822,-0.9550781,-0.041015625,0.103515625,-20.65625,65.0,16.53125,0.0,0.0,0.0
1664566863863,-1.0224609,0.16308594,0.0126953125,-10.03125,66.09375,3.65625,0.0,0.0,0.0
1664566863903,-1.2275391,-0.25585938,0.06738281,-61.1875,32.15625,24.8125,0.0,0.0,0.0
1664566863942,-1.3056641,-0.08105469,0.10644531,-14.0,20.25,-11.0625,-67.5,32.75,-133.6875
1664566863982,-1.6699219,-0.018554688,0.19824219,-19.375,2.0,-18.09375,0.0,0.0,0.0
1664566864022,-1.3408203,-0.24121094,-0.032226562,-27.125,-72.21875,-39.5,0.0,0.0,0.0
1664566864066,-0.6777344,0.14746094,-0.21386719,11.21875,-95.65625,-44.375,0.0,0.0,0.0
1664566864123,-1.296875,0.17480469,-0.20605469,48.5,-105.84375,-53.46875,0.0,0.0,0.0
1664566864142,-1.5498047,0.7792969,-0.045898438,-57.4375,-108.21875,-21.8125,0.0,0.0,0.0
1664566864183,-1.0878906,0.3232422,0.25390625,-71.0625,-96.5625,-8.75,0.0,0.0,0.0
1664566864223,-0.7675781,0.09863281,0.080078125,-95.28125,-74.84375,10.0625,0.0,0.0,0.0
1664566864263,-0.86621094,-0.14550781,-0.16113281,14.4375,-33.78125,-50.6875,0.0,0.0,0.0
1664566864302,-0.45996094,0.091796875,-0.18261719,42.40625,-4.84375,-112.1875,0.0,0.0,0.0
1664566864343,-0.3486328,0.08105469,0.005859375,85.8125,-68.9375,-20.84375,0.0,0.0,0.0
1664566864384,-0.38867188,0.055664062,0.15039062,44.71875,-11.25,22.03125,0.0,0.0,0.0
1664566864423,-0.55566406,-0.13769531,0.43847656,24.65625,-19.59375,56.4375,0.0,0.0,0.0
1664566864462,-1.6347656,0.053710938,0.5498047,34.28125,92.09375,75.84375,-68.25,23.75,-112.5625
1664566864502,-1.4775391,-0.015625,1.0097656,31.1875,-22.0,-43.46875,0.0,0.0,0.0
1664566864542,-0.98535156,-0.34179688,0.7167969,-73.9375,-8.75,-45.4375,0.0,0.0,0.0
1664566864583,-1.1162109,0.22363281,0.12792969,11.75,-6.5,4.1875,0.0,0.0,0.0
1664566864623,-1.3759766,0.29589844,-0.16796875,26.46875,133.09375,43.8125,0.0,0.0,0.0
1664566864664,-0.34765625,0.6503906,-0.078125,11.875,-39.25,54.4375,0.0,0.0,0.0
1664566864703,-1.375,-0.25683594,-0.4326172,-108.0625,125.09375,29.34375,0.0,0.0,0.0
1664566864742,-0.8017578,-0.0390625,0.45996094,34.78125,8.84375,-0.6875,0.0,0.0,0.0
1664566864782,-0.9316406,0.09765625,-0.103515625,-10.9375,71.40625,-9.0,0.0,0.0,0.0
1664566864822,-0.57910156,0.37695312,0.12792969,-6.53125,90.1875,-14.0625,0.0,0.0,0.0
1664566864882,-0.97753906,-0.13085938,-0.055664062,-45.1875,82.4375,5.46875,0.0,0.0,0.0
1664566864902,-0.83984375,0.060546875,0.18261719,2.0,83.71875,12.375,0.0,0.0,0.0
1664566864943,-0.92578125,-0.02734375,0.16113281,-15.46875,66.21875,23.0625,-69.0,27.625,-126.375
1664566864982,-0.86621094,0.03125,0.029296875,13.03125,66.625,23.25,0.0,0.0,0.0
1664566865004,-1.2236328,-0.072265625,0.07519531,-25.15625,49.78125,27.75,0.0,0.0,0.0
1664566865043,-1.3466797,-0.26171875,0.059570312,-17.53125,27.4375,1.75,0.0,0.0,0.0
1664566865083,-1.5976562,0.0107421875,0.12695312,3.59375,11.40625,-22.78125,0.0,0.0,0.0
1664566865123,-1.3984375,0.07128906,-0.08886719,-33.78125,-59.71875,-29.625,0.0,0.0,0.0
1664566865163,-0.6123047,0.0703125,-0.13671875,-10.875,-96.15625,-46.84375,0.0,0.0,0.0
1664566865202,-1.2783203,0.0126953125,-0.19921875,54.625,-97.0,-66.65625,0.0,0.0,0.0
1664566865243,-1.6630859,0.40820312,-0.12890625,-14.40625,-112.625,-20.21875,0.0,0.0,0.0
1664566865282,-1.1591797,0.53027344,0.17089844,-14.34375,-134.53125,2.65625,0.0,0.0,0.0
1664566865323,-0.6767578,0.038085938,0.21679688,-70.8125,-153.28125,19.40625,0.0,0.0,0.0
1664566865363,-0.81640625,-0.14355469,-0.013671875,8.53125,-25.65625,-20.03125,0.0,0.0,0.0
1664566865403,-0.5810547,-0.10449219,-0.14941406,34.59375,-12.40625,-94.0625,0.0,0.0,0.0
1664566865462,-0.29492188,0.18261719,-0.06933594,75.0625,-50.0625,-7.21875,-66.0,22.6875,-111.5
1664566865482,-0.35058594,0.11816406,0.16308594,54.375,-20.21875,11.28125,0.0,0.0,0.0
1664566865522,-0.6123047,0.017578125,0.7128906,26.84375,-12.65625,36.3125,0.0,0.0,0.0
1664566865564,-1.5341797,0.0126953125,0.5654297,34.78125,96.40625,53.75,0.0,0.0,0.0
1664566865602,-1.4101562,-0.11621094,1.1123047,47.40625,-45.375,-27.84375,0.0,0.0,0.0
1664566865643,-1.1708984,-0.22558594,0.8417969,-20.84375,2.1875,-43.15625,0.0,0.0,0.0
1664566865682,-1.0332031,0.39648438,0.08496094,-29.125,17.8125,-6.1875,0.0,0.0,0.0
1664566865723,-1.1748047,0.16015625,-0.10449219,63.03125,68.34375,35.625,0.0,0.0,0.0
1664566865763,-0.5654297,0.7216797,0.091796875,41.5625,-78.3125,80.125,0.0,0.0,0.0
1664566865806,-1.3212891,-0.1953125,-0.55566406,-143.6875,167.09375,-5.375,0.0,0.0,0.0
1664566865843,-0.8222656,9.765625E-4,0.5966797,66.5625,-19.0,10.1875,0.0,0.0,0.0
1664566865883,-0.5957031,0.22558594,-0.12890625,-47.4375,88.96875,-18.625,0.0,0.0,0.0
1664566866063,-0.72558594,0.203125,0.21972656,-29.25,82.0625,7.8125,-66.625,27.5,-125.875
1664566866066,-0.91308594,-0.21386719,0.0,-26.8125,85.3125,6.6875,0.0,0.0,0.0
1664566866068,-0.8330078,0.048828125,0.13183594,10.0625,76.59375,5.90625,0.0,0.0,0.0
1664566866070,-0.8642578,0.13378906,0.11230469,19.09375,75.3125,15.71875,0.0,0.0,0.0
1664566866083,-1.0,-0.07128906,0.03125,-21.25,46.1875,29.59375,0.0,0.0,0.0
1664566866123,-1.3037109,-0.12597656,0.08105469,-23.5625,48.75,19.6875,0.0,0.0,0.0
1664566866163,-1.3544922,-0.14160156,0.07910156,6.5625,19.6875,-3.625,0.0,0.0,0.0
1664566866203,-1.7285156,-0.12109375,0.16503906,-10.4375,-5.375,-23.625,0.0,0.0,0.0
1664566866242,-1.0742188,0.034179688,-0.18652344,-30.40625,-78.125,-44.5,0.0,0.0,0.0
1664566866283,-0.85839844,0.17382812,-0.030273438,44.59375,-111.71875,-46.9375,0.0,0.0,0.0
1664566866323,-1.6884766,0.04296875,-0.022460938,3.9375,-110.125,-53.125,0.0,0.0,0.0
1664566866365,-1.4833984,0.79296875,-0.06347656,-54.65625,-96.15625,-3.0,0.0,0.0,0.0
1664566866403,-0.8886719,0.18164062,0.2919922,-42.5625,-137.28125,10.90625,0.0,0.0,0.0
1664566866463,-0.6503906,-0.0234375,0.1015625,-59.84375,-80.8125,-1.25,-66.0,24.1875,-112.25
1664566866483,-0.8154297,-0.4033203,-0.2578125,-43.40625,55.46875,-61.28125,0.0,0.0,0.0
1664566866523,-0.26464844,0.17578125,-0.15820312,111.8125,-78.6875,-8.9375,0.0,0.0,0.0
1664566866562,-0.34960938,0.07128906,0.20507812,133.84375,-102.3125,-11.78125,0.0,0.0,0.0
1664566866602,-0.43164062,-0.041992188,0.5390625,44.96875,46.6875,12.5,0.0,0.0,0.0
1664566866643,-1.0908203,0.07128906,0.32226562,-1.65625,71.625,46.375,0.0,0.0,0.0
1664566866683,-1.5820312,0.21191406,1.3818359,113.4375,-81.1875,27.5,0.0,0.0,0.0
1664566866723,-1.2724609,-0.2578125,0.74609375,-34.1875,47.59375,-27.125,0.0,0.0,0.0
1664566866763,-1.3544922,0.0068359375,0.4951172,-71.0625,-7.59375,-36.15625,0.0,0.0,0.0
1664566866802,-1.0019531,0.375,-0.5214844,21.96875,105.34375,-18.15625,0.0,0.0,0.0
1664566866843,-0.5839844,0.6298828,0.39746094,108.1875,-135.875,61.8125,0.0,0.0,0.0
1664566866883,-1.4345703,-0.29003906,-0.8173828,-83.34375,168.375,-8.1875,0.0,0.0,0.0
1664566866943,-0.7636719,0.06640625,0.296875,79.09375,-2.21875,-16.96875,-63.875,26.3125,-117.375
1664566866962,-0.8417969,0.34375,-0.08984375,18.0625,120.78125,8.03125,0.0,0.0,0.0
1664566867003,-0.7714844,0.068359375,0.06738281,-29.8125,108.75,-12.21875,0.0,0.0,0.0
1664566867042,-0.66015625,0.11035156,0.0087890625,-23.34375,102.03125,8.59375,0.0,0.0,0.0
1664566867083,-0.8623047,0.029296875,0.09863281,18.34375,82.75,18.40625,0.0,0.0,0.0
1664566867123,-0.8154297,0.060546875,0.21289062,14.375,81.96875,19.21875,0.0,0.0,0.0
1664566867163,-1.0039062,0.11816406,0.07324219,-24.5625,69.6875,24.03125,0.0,0.0,0.0
1664566867203,-1.2050781,-0.06738281,0.05859375,-55.0,40.21875,24.71875,0.0,0.0,0.0
1664566867243,-1.4072266,-0.14257812,0.12988281,-32.59375,25.9375,-9.59375,0.0,0.0,0.0
1664566867283,-1.5185547,0.036132812,0.17089844,-45.65625,-1.0625,-17.03125,0.0,0.0,0.0
1664566867323,-1.3144531,-0.036132812,-0.10253906,-33.34375,-70.6875,-19.65625,0.0,0.0,0.0
1664566867363,-0.65234375,0.18457031,-0.21386719,18.28125,-125.6875,-25.96875,0.0,0.0,0.0
1664566867403,-1.3769531,0.14355469,-0.09765625,63.40625,-117.6875,-61.84375,0.0,0.0,0.0
1664566867463,-1.5947266,0.5136719,-0.03125,7.3125,-94.8125,-43.21875,-64.9375,27.625,-123.9375
1664566867482,-1.2089844,0.28027344,0.34472656,-29.5,-126.96875,-0.125,0.0,0.0,0.0
1664566867523,-0.8466797,-0.08203125,0.1328125,-92.78125,-106.46875,-8.25,0.0,0.0,0.0
1664566867563,-0.64941406,-0.13867188,0.032226562,-47.5625,-77.03125,-33.28125,0.0,0.0,0.0
1664566867603,-0.24804688,-0.041992188,-0.024414062,2.125,-44.5,-42.75,0.0,0.0,0.0
1664566867642,-0.2626953,0.15820312,0.03515625,63.03125,-9.34375,-3.0625,0.0,0.0,0.0
1664566867683,-0.4814453,0.009765625,0.32226562,46.625,47.03125,11.8125,0.0,0.0,0.0
1664566867723,-0.72265625,-0.12109375,0.5361328,19.09375,45.875,10.0625,0.0,0.0,0.0
1664566867762,-1.5390625,0.13769531,0.7050781,45.46875,61.5625,33.6875,0.0,0.0,0.0
1664566867802,-1.3291016,-0.041015625,1.1337891,33.4375,-21.875,-22.46875,0.0,0.0,0.0
1664566867843,-1.2177734,-0.47265625,1.0537109,-7.78125,-53.0625,-26.75,0.0,0.0,0.0
1664566867882,-0.99316406,0.4814453,-0.03515625,-24.375,12.125,-38.96875,0.0,0.0,0.0
1664566867943,-1.1269531,-0.041992188,0.10546875,44.78125,58.21875,2.3125,-65.875,25.375,-112.6875
1664566867963,-0.7314453,0.3935547,0.16210938,92.5,-50.375,57.96875,0.0,0.0,0.0
1664566868004,-1.1074219,-0.22363281,-0.33398438,-46.34375,111.6875,-3.1875,0.0,0.0,0.0
1664566868043,-1.0126953,0.13867188,0.28320312,42.65625,86.96875,-30.09375,0.0,0.0,0.0
1664566868083,-0.85546875,0.25,0.0029296875,32.53125,77.375,6.8125,0.0,0.0,0.0
1664566868124,-0.68066406,0.22167969,0.018554688,-11.5,103.8125,25.75,0.0,0.0,0.0
1664566868164,-0.76464844,-0.05859375,-0.049804688,-20.03125,105.40625,9.9375,0.0,0.0,0.0
1664566868203,-0.8701172,0.01171875,0.13769531,-10.875,102.59375,9.9375,0.0,0.0,0.0
1664566868242,-0.91015625,0.03515625,0.16210938,-31.21875,93.3125,18.78125,0.0,0.0,0.0
1664566868283,-1.015625,0.051757812,0.029296875,-35.71875,63.28125,24.59375,0.0,0.0,0.0
1664566868324,-1.1865234,-0.08984375,0.07714844,-60.3125,43.3125,25.0625,0.0,0.0,0.0
1664566868363,-1.3818359,-0.18554688,0.13183594,-36.5,19.03125,-4.34375,0.0,0.0,0.0
1664566868402,-1.5253906,0.018554688,0.103515625,-42.625,-1.34375,-12.78125,0.0,0.0,0.0
1664566868466,-1.2675781,0.068359375,-0.23339844,-29.4375,-79.53125,-14.25,-63.125,30.9375,-132.625
1664566868483,-0.67578125,0.01171875,-0.20019531,18.125,-134.40625,-29.8125,0.0,0.0,0.0
1664566868523,-1.6914062,0.3232422,-0.06933594,25.0625,-110.3125,-69.90625,0.0,0.0,0.0
1664566868563,-1.5224609,0.56347656,-0.009765625,-24.6875,-111.34375,-27.125,0.0,0.0,0.0
1664566868603,-1.1054688,0.15332031,0.33691406,-86.1875,-143.6875,9.125,0.0,0.0,0.0
1664566868643,-0.7011719,-0.11425781,0.15332031,-91.9375,-115.0625,-2.8125,0.0,0.0,0.0
1664566868683,-0.4423828,-0.12597656,-0.10546875,-51.96875,-72.28125,9.6875,0.0,0.0,0.0
1664566868722,-0.4609375,-0.10644531,-0.07714844,39.34375,-32.90625,-27.46875,0.0,0.0,0.0
1664566868763,-0.23828125,0.17480469,-0.0029296875,89.71875,-11.3125,-0.75,0.0,0.0,0.0
1664566868803,-0.4609375,0.053710938,0.39257812,53.34375,32.75,15.0625,0.0,0.0,0.0
1664566868843,-0.9121094,0.01953125,0.6044922,23.3125,20.3125,23.90625,0.0,0.0,0.0
1664566868882,-1.6240234,-0.14453125,1.1660156,55.03125,21.46875,6.9375,0.0,0.0,0.0
1664566868944,-1.015625,-0.21972656,0.9609375,-31.8125,-6.84375,-32.25,-61.0625,25.25,-113.625
1664566868962,-1.6240234,-0.13085938,0.7128906,-59.71875,-12.90625,-36.21875,0.0,0.0,0.0
1664566869003,-1.2890625,0.38378906,-0.5644531,-0.875,68.84375,-7.8125,0.0,0.0,0.0
1664566869042,-0.30664062,0.3515625,0.044921875,98.625,-67.09375,27.15625,0.0,0.0,0.0
1664566869083,-1.3720703,0.15136719,-0.24023438,47.28125,54.0,46.125,0.0,0.0,0.0
1664566869124,-1.1289062,-0.080078125,0.11816406,3.21875,114.125,-18.375,0.0,0.0,0.0
1664566869183,-0.9628906,0.13769531,0.056640625,55.34375,76.28125,13.15625,0.0,0.0,0.0
1664566869203,-0.6142578,0.30078125,0.087890625,22.1875,103.875,-22.40625,0.0,0.0,0.0
1664566869245,-0.6074219,0.13085938,0.0234375,4.1875,106.0,-2.46875,0.0,0.0,0.0
1664566869285,-0.77734375,0.0390625,0.049804688,-15.40625,110.21875,17.5625,0.0,0.0,0.0
1664566869322,-0.85253906,0.032226562,0.24804688,-17.03125,97.875,13.28125,0.0,0.0,0.0
1664566869363,-0.9824219,0.029296875,0.099609375,-34.125,77.1875,31.34375,0.0,0.0,0.0
1664566869402,-1.1035156,-0.036132812,0.07324219,-47.375,49.90625,32.21875,0.0,0.0,0.0
1664566869443,-1.3388672,-0.3095703,-0.05078125,-37.90625,29.65625,11.9375,-62.25,30.0625,-133.125
1664566869483,-1.5546875,-0.13183594,0.17480469,-24.84375,9.1875,-17.34375,0.0,0.0,0.0
1664566869523,-1.5351562,0.14257812,0.009765625,-9.21875,-43.84375,-28.9375,0.0,0.0,0.0
1664566869563,-0.90527344,0.24414062,-0.19238281,25.3125,-111.65625,-19.25,0.0,0.0,0.0
1664566869603,-1.0917969,0.14257812,-0.3125,69.75,-127.09375,-40.78125,0.0,0.0,0.0
1664566869642,-1.7275391,0.46289062,-0.12695312,29.21875,-113.0,-50.6875,0.0,0.0,0.0
1664566869683,-1.2617188,0.37304688,0.23632812,18.46875,-145.15625,-25.34375,0.0,0.0,0.0
1664566869723,-0.82714844,0.041015625,0.15722656,-49.875,-132.71875,-20.34375,0.0,0.0,0.0
1664566869763,-0.70703125,-0.29882812,-0.022460938,-15.34375,-108.78125,-32.25,0.0,0.0,0.0
1664566869803,-0.33203125,-0.0048828125,-0.034179688,51.25,-67.53125,-48.84375,0.0,0.0,0.0
1664566869843,-0.19335938,0.17480469,0.087890625,70.84375,-21.3125,-14.65625,0.0,0.0,0.0
1664566869883,-0.47070312,0.07421875,0.22070312,46.8125,38.25,-4.09375,0.0,0.0,0.0
1664566869923,-0.6621094,0.08496094,0.5234375,10.0625,59.1875,-5.3125,-64.1875,26.3125,-113.625
1664566869963,-1.0273438,0.076171875,0.48828125,5.90625,34.71875,11.28125,0.0,0.0,0.0
1664566870003,-1.3681641,-0.033203125,1.2050781,89.15625,14.625,11.53125,0.0,0.0,0.0
1664566870042,-1.453125,-0.14257812,1.1816406,-21.0,-36.5,-15.28125,0.0,0.0,0.0
1664566870082,-1.5390625,0.076171875,0.2919922,-10.5,-36.625,-36.21875,0.0,0.0,0.0
1664566870122,-0.88671875,0.18066406,-0.15136719,49.71875,58.21875,-17.90625,0.0,0.0,0.0
1664566870164,-0.6484375,0.39257812,0.27441406,110.09375,-37.75,34.90625,0.0,0.0,0.0
1664566870202,-1.2246094,-0.28320312,-0.28125,-54.6875,132.3125,-3.375,0.0,0.0,0.0
1664566870243,-0.890625,0.25878906,0.25683594,28.84375,70.0,-24.3125,0.0,0.0,0.0
1664566870283,-0.7265625,0.07324219,0.034179688,-19.59375,87.875,15.84375,0.0,0.0,0.0
1664566870323,-0.6767578,-0.036132812,0.056640625,-40.125,101.125,-1.125,0.0,0.0,0.0
1664566870364,-0.71972656,-0.03515625,-0.016601562,-38.28125,106.6875,-13.375,0.0,0.0,0.0
1664566870402,-0.8105469,-0.013671875,0.15722656,-33.34375,118.21875,1.6875,0.0,0.0,0.0
1664566870442,-0.95214844,-0.048828125,0.10839844,-51.53125,97.34375,29.53125,-64.1875,26.0,-134.0
1664566870483,-1.1220703,0.045898438,0.083984375,-52.75,72.75,33.625,0.0,0.0,0.0
1664566870524,-1.3134766,-0.21972656,-0.021484375,-58.1875,36.90625,22.6875,0.0,0.0,0.0
1664566870563,-1.4287109,-0.15527344,0.14257812,-49.9375,4.5,-15.625,0.0,0.0,0.0
1664566870603,-1.5292969,-0.018554688,0.14648438,-28.6875,-26.625,-25.40625,0.0,0.0,0.0
1664566870643,-1.0908203,0.072265625,-0.30273438,17.125,-123.5,-5.03125,0.0,0.0,0.0
1664566870683,-0.9404297,0.12011719,-0.3076172,95.6875,-164.9375,-28.09375,0.0,0.0,0.0
1664566870723,-1.6347656,0.2734375,-0.123046875,33.25,-105.59375,-37.0,0.0,0.0,0.0
1664566870763,-1.5107422,0.3359375,0.24707031,36.0625,-144.0,-12.65625,0.0,0.0,0.0
1664566870803,-0.93066406,0.08203125,0.23339844,-2.9375,-142.90625,-6.0,0.0,0.0,0.0
1664566870843,-0.7402344,-0.27734375,0.061523438,-4.21875,-124.71875,-27.84375,0.0,0.0,0.0
1664566870883,-0.35546875,-0.052734375,0.013671875,23.3125,-87.1875,-43.53125,0.0,0.0,0.0
1664566870923,-0.15429688,0.17773438,0.024414062,54.6875,-32.5,-16.875,-63.3125,22.5625,-111.0625
1664566870963,-0.33789062,0.14453125,0.17480469,26.96875,45.34375,5.90625,0.0,0.0,0.0
1664566871003,-0.5800781,0.091796875,0.61035156,-5.875,73.46875,6.03125,0.0,0.0,0.0
1664566871042,-0.97558594,-0.16699219,0.57421875,-8.5625,32.40625,-3.125,0.0,0.0,0.0
1664566871083,-1.4326172,0.0107421875,1.0361328,55.71875,30.3125,-9.53125,0.0,0.0,0.0
1664566871123,-1.4570312,-0.20507812,1.3193359,-2.53125,-37.3125,-10.5625,0.0,0.0,0.0
1664566871162,-1.4550781,0.08203125,0.3671875,6.21875,-47.625,-27.53125,0.0,0.0,0.0
1664566871202,-0.7783203,0.053710938,-0.10058594,44.84375,32.03125,-17.09375,0.0,0.0,0.0
1664566871242,-0.6748047,0.40234375,0.2861328,118.875,-26.4375,29.21875,0.0,0.0,0.0
1664566871283,-1.2929688,-0.31933594,-0.12597656,-33.59375,128.09375,-7.21875,0.0,0.0,0.0
1664566871323,-0.86816406,0.18554688,0.17382812,13.03125,94.28125,-25.28125,0.0,0.0,0.0
1664566871362,-0.7470703,0.021484375,0.047851562,-7.46875,94.46875,16.21875,0.0,0.0,0.0
1664566871403,-0.60253906,0.060546875,-0.033203125,-34.0625,102.875,1.5625,0.0,0.0,0.0
1664566871445,-0.69433594,0.029296875,0.016601562,-28.9375,117.96875,-4.21875,-64.9375,24.1875,-127.125
1664566871483,-0.82714844,-0.048828125,0.19140625,-43.65625,124.75,0.09375,0.0,0.0,0.0
1664566871523,-0.8544922,0.01953125,0.018554688,-77.90625,103.3125,18.90625,0.0,0.0,0.0
1664566871563,-1.0976562,-0.0625,0.0068359375,-74.0,66.9375,30.5625,0.0,0.0,0.0
1664566871603,-1.3085938,-0.35253906,-0.030273438,-69.65625,33.1875,12.375,0.0,0.0,0.0
1664566871643,-1.4042969,-0.17382812,0.123046875,-56.09375,13.90625,-20.21875,0.0,0.0,0.0
1664566871683,-1.6875,-0.033203125,0.07519531,-33.34375,-12.15625,-24.5625,0.0,0.0,0.0
1664566871724,-1.1464844,0.09765625,-0.3095703,35.03125,-130.5,-22.90625,0.0,0.0,0.0
1664566871763,-0.95214844,0.09375,-0.2626953,130.21875,-188.3125,-22.0625,0.0,0.0,0.0
1664566871803,-1.6806641,0.17675781,-0.10058594,50.09375,-139.125,-34.125,0.0,0.0,0.0
1664566871843,-1.4482422,0.27246094,0.24316406,40.09375,-161.9375,-16.0625,0.0,0.0,0.0
1664566871883,-0.97265625,0.05859375,0.29296875,24.34375,-164.4375,5.53125,0.0,0.0,0.0
1664566871923,-0.64160156,-0.2841797,0.11621094,6.625,-125.25,-23.6875,-61.9375,22.0625,-114.0625
1664566871962,-0.23242188,0.024414062,0.047851562,4.375,-89.375,-19.53125,0.0,0.0,0.0
1664566872003,-0.091796875,0.15917969,0.01171875,56.625,-25.65625,0.46875,0.0,0.0,0.0
1664566872043,-0.3408203,0.043945312,0.20117188,14.09375,54.3125,15.4375,0.0,0.0,0.0
1664566872083,-0.5292969,0.12695312,0.6582031,-21.3125,91.59375,9.125,0.0,0.0,0.0
1664566872123,-0.9091797,-0.16894531,0.62597656,-27.46875,45.5625,3.53125,0.0,0.0,0.0
1664566872163,-1.5810547,0.043945312,0.9580078,30.3125,76.78125,0.03125,0.0,0.0,0.0
1664566872203,-1.3720703,-0.21484375,1.4580078,-7.78125,12.1875,-0.125,0.0,0.0,0.0
1664566872243,-1.3212891,0.22363281,0.3779297,-38.21875,-58.25,-30.21875,0.0,0.0,0.0
1664566872283,-0.9453125,-0.12207031,-0.1953125,47.65625,60.65625,-16.875,0.0,0.0,0.0
1664566872322,-0.39648438,0.55566406,0.26171875,78.28125,13.03125,17.3125,0.0,0.0,0.0
1664566872365,-1.3808594,-0.28515625,-0.23828125,6.28125,121.625,14.15625,0.0,0.0,0.0
1664566872403,-1.0585938,0.0029296875,0.15136719,-28.21875,97.53125,-43.21875,0.0,0.0,0.0
1664566872443,-0.7246094,0.10644531,0.021484375,-9.40625,61.8125,-3.75,-63.75,25.0625,-125.875
1664566872483,-0.67089844,0.041015625,0.04296875,-47.3125,91.78125,-6.25,0.0,0.0,0.0
1664566872523,-0.7050781,-0.02734375,-0.021484375,-65.75,106.90625,-2.28125,0.0,0.0,0.0
1664566872563,-0.79589844,-0.072265625,0.08300781,-54.09375,109.84375,14.5,0.0,0.0,0.0
1664566872603,-0.8154297,0.07714844,0.1015625,-58.5625,113.3125,35.75,0.0,0.0,0.0
1664566872643,-1.0673828,0.01953125,-0.059570312,-64.03125,80.125,40.28125,0.0,0.0,0.0
1664566872685,-1.3105469,-0.20507812,0.0546875,-79.53125,50.46875,27.21875,0.0,0.0,0.0
1664566872726,-1.4023438,-0.17871094,0.10449219,-59.59375,27.34375,-4.09375,0.0,0.0,0.0
1664566872763,-1.7275391,-0.103515625,0.059570312,-29.96875,-6.5,-15.8125,0.0,0.0,0.0
1664566872802,-1.3164062,0.048828125,-0.37890625,1.28125,-105.46875,-14.25,0.0,0.0,0.0
1664566872843,-0.77246094,0.14355469,-0.25585938,120.96875,-198.5625,-14.3125,0.0,0.0,0.0
1664566872883,-1.4960938,0.17285156,-0.12890625,83.125,-148.40625,-27.84375,0.0,0.0,0.0
1664566872922,-1.5488281,0.39257812,0.047851562,38.25,-154.375,-5.8125,-65.6875,23.75,-122.625
1664566872963,-1.0927734,0.091796875,0.2705078,-21.625,-148.4375,-3.3125,0.0,0.0,0.0
1664566873003,-0.69433594,-0.22949219,0.19042969,-16.375,-149.0625,-10.625,0.0,0.0,0.0
1664566873042,-0.44433594,-0.13964844,-0.021484375,-1.96875,-108.90625,-31.875,0.0,0.0,0.0
1664566873083,-0.11621094,0.1484375,-0.015625,45.625,-58.59375,-17.03125,0.0,0.0,0.0
1664566873123,-0.18652344,0.15039062,0.125,38.375,33.0,6.5625,0.0,0.0,0.0
1664566873163,-0.484375,0.08105469,0.52441406,3.09375,103.0,13.03125,0.0,0.0,0.0
1664566873202,-0.9794922,-0.1484375,0.73535156,-14.40625,80.71875,-2.46875,0.0,0.0,0.0
1664566873243,-1.6689453,-0.005859375,0.8642578,37.40625,66.875,-0.5625,0.0,0.0,0.0
1664566873283,-1.1357422,0.0390625,1.21875,-8.8125,22.6875,-10.09375,0.0,0.0,0.0
1664566873325,-1.2929688,0.22265625,0.4765625,-34.8125,-48.125,-27.34375,0.0,0.0,0.0
1664566873363,-1.2216797,0.0087890625,-0.53222656,12.5,61.3125,-9.84375,0.0,0.0,0.0
1664566873403,-0.359375,0.5419922,0.14257812,86.03125,4.0625,4.0625,0.0,0.0,0.0
1664566873443,-1.328125,-0.21875,-0.21484375,18.34375,113.625,8.15625,-61.1875,23.875,-117.1875
1664566873482,-1.0712891,0.061523438,0.13183594,-25.90625,108.03125,-50.0625,0.0,0.0,0.0
1664566873523,-0.75097656,0.103515625,-0.017578125,-3.96875,67.71875,4.375,0.0,0.0,0.0
1664566873563,-0.6767578,0.07324219,0.06542969,-54.34375,97.21875,0.65625,0.0,0.0,0.0
1664566873603,-0.6904297,-0.10058594,-0.12011719,-68.6875,95.375,6.03125,0.0,0.0,0.0
1664566873643,-0.8330078,-0.061523438,0.032226562,-39.625,116.75,13.03125,0.0,0.0,0.0
1664566873682,-0.9707031,0.016601562,0.29101562,-60.8125,112.59375,24.8125,0.0,0.0,0.0
1664566873723,-1.0615234,-0.12792969,-0.03125,-89.4375,63.875,23.46875,0.0,0.0,0.0
1664566873763,-1.2539062,-0.083984375,0.0107421875,-70.8125,44.0,18.125,0.0,0.0,0.0
1664566873802,-1.4091797,-0.060546875,0.036132812,-58.71875,21.03125,3.53125,0.0,0.0,0.0
1664566873843,-1.6289062,-0.0546875,0.03125,-39.4375,-14.96875,-0.75,0.0,0.0,0.0
1664566873883,-1.2089844,0.0126953125,-0.27539062,-16.9375,-102.25,-6.65625,0.0,0.0,0.0
1664566873922,-0.8017578,0.119140625,-0.15234375,67.6875,-172.9375,-11.5625,0.0,0.0,0.0
1664566873962,-1.53125,0.15917969,-0.09082031,23.4375,-109.8125,-45.65625,-61.5,22.8125,-124.125
1664566874003,-1.5712891,0.38964844,0.0087890625,1.8125,-116.84375,-34.5625,0.0,0.0,0.0
1664566874043,-1.0507812,0.15234375,0.28125,-8.1875,-134.0,-25.84375,0.0,0.0,0.0
1664566874082,-0.8125,-0.22851562,0.13183594,-23.5625,-118.59375,-29.125,0.0,0.0,0.0
1664566874123,-0.40429688,-0.16796875,-0.06738281,-13.0625,-69.59375,-54.46875,0.0,0.0,0.0
1664566874162,-0.26464844,0.09375,-0.0146484375,44.46875,-54.03125,-23.5,0.0,0.0,0.0
1664566874203,-0.23828125,0.16113281,0.06933594,47.21875,-5.25,5.46875,0.0,0.0,0.0
1664566874243,-0.48046875,0.08203125,0.4140625,15.5,65.0,12.375,0.0,0.0,0.0
1664566874282,-0.75,-0.15625,0.7050781,-2.46875,58.8125,13.15625,0.0,0.0,0.0
1664566874323,-1.8789062,-0.06347656,0.7128906,32.15625,50.65625,25.75,0.0,0.0,0.0
1664566874363,-1.1240234,0.038085938,1.1738281,8.03125,12.375,-21.1875,0.0,0.0,0.0
1664566874402,-1.5820312,-0.21386719,0.59277344,-56.78125,-37.0,-17.03125,0.0,0.0,0.0
1664566874443,-1.2822266,0.13378906,-0.46191406,2.90625,21.09375,-11.71875,-60.625,20.5625,-110.4375
1664566874483,-0.5625,0.2734375,0.0078125,72.125,23.375,0.71875,0.0,0.0,0.0
1664566874522,-1.1425781,-0.07714844,-0.0029296875,91.90625,44.125,28.84375,0.0,0.0,0.0
1664566874563,-1.0800781,-0.07324219,0.0087890625,-29.75,108.3125,-34.1875,0.0,0.0,0.0
1664566874603,-0.8173828,0.083984375,0.11816406,19.09375,56.5,9.5,0.0,0.0,0.0
1664566874643,-0.6796875,0.091796875,-0.0126953125,-3.0,88.4375,10.71875,0.0,0.0,0.0
1664566874682,-0.7529297,0.020507812,-0.009765625,-33.53125,103.0,11.15625,0.0,0.0,0.0
1664566874723,-0.7714844,-0.022460938,0.03125,-17.84375,91.125,20.75,0.0,0.0,0.0
1664566874763,-0.85058594,-0.001953125,0.20800781,-26.25,100.6875,24.8125,0.0,0.0,0.0
1664566874803,-0.9453125,0.009765625,0.0029296875,-57.21875,90.1875,45.53125,0.0,0.0,0.0
1664566874844,-1.2167969,0.0234375,0.043945312,-57.28125,56.8125,32.15625,0.0,0.0,0.0
1664566874883,-1.3691406,-0.24707031,0.048828125,-47.75,30.6875,5.34375,0.0,0.0,0.0
1664566874923,-1.5478516,-0.099609375,0.09277344,-31.8125,7.5,-6.53125,0.0,0.0,0.0
1664566874963,-1.4492188,0.03125,-0.15625,-27.34375,-48.1875,-17.53125,-63.125,25.5625,-129.5
1664566875003,-0.91503906,0.13183594,-0.15722656,32.625,-144.375,-20.28125,0.0,0.0,0.0
1664566875063,-1.2460938,0.13867188,-0.068359375,49.125,-126.84375,-45.375,0.0,0.0,0.0
1664566875082,-1.5,0.3984375,-0.16699219,-24.75,-105.46875,-42.25,0.0,0.0,0.0
1664566875123,-1.3427734,0.21484375,0.23339844,-14.53125,-144.375,-19.125,0.0,0.0,0.0
1664566875163,-0.7529297,-0.15234375,0.2421875,-69.84375,-125.25,-42.625,0.0,0.0,0.0
1664566875203,-0.5654297,-0.2578125,-0.0234375,-54.9375,-55.0,-62.875,0.0,0.0,0.0
1664566875243,-0.3701172,0.017578125,-0.036132812,25.5625,-50.75,-30.59375,0.0,0.0,0.0
1664566875283,-0.31640625,0.08496094,0.044921875,81.78125,-1.53125,-10.03125,0.0,0.0,0.0
1664566875323,-0.47460938,-0.0068359375,0.24707031,43.125,50.65625,3.46875,0.0,0.0,0.0
1664566875363,-0.75683594,-0.043945312,0.5517578,7.90625,24.40625,9.8125,0.0,0.0,0.0
1664566875404,-1.4990234,0.13085938,0.671875,16.78125,80.90625,36.4375,0.0,0.0,0.0
1664566875443,-1.2529297,-0.32910156,1.0253906,53.8125,-29.0,0.03125,-62.25,20.0,-112.125
1664566875483,-1.6064453,-0.2734375,0.6845703,-56.03125,-29.8125,-34.625,0.0,0.0,0.0
1664566875523,-1.2451172,0.091796875,-0.3359375,-33.71875,25.3125,-15.34375,0.0,0.0,0.0
1664566875562,-0.5332031,0.2626953,0.09765625,88.5,15.3125,-4.59375,0.0,0.0,0.0
1664566875603,-1.140625,0.0087890625,0.12207031,82.0625,-32.1875,67.90625,0.0,0.0,0.0
1664566875643,-1.0341797,-0.15625,-0.17089844,-64.78125,124.0625,-23.6875,0.0,0.0,0.0
1664566875683,-0.8388672,0.11816406,0.2998047,34.59375,42.78125,1.875,0.0,0.0,0.0
1664566875724,-0.6347656,0.24121094,-0.09472656,-17.15625,111.4375,26.34375,0.0,0.0,0.0
1664566875763,-0.84765625,-0.024414062,0.04296875,-2.6875,107.53125,28.96875,0.0,0.0,0.0
1664566875803,-0.7246094,0.0234375,-0.0126953125,-5.375,96.34375,12.0625,0.0,0.0,0.0
1664566875843,-0.87402344,0.03125,0.17382812,-7.875,97.6875,27.28125,0.0,0.0,0.0
1664566875885,-0.94140625,0.030273438,0.05859375,-18.21875,90.1875,44.59375,0.0,0.0,0.0
1664566875922,-1.2314453,-0.03125,0.103515625,-41.9375,56.375,37.28125,0.0,0.0,0.0
1664566875963,-1.3554688,-0.23828125,0.1171875,-43.84375,33.625,2.3125,-62.875,25.25,-128.125
1664566876003,-1.5517578,-0.061523438,0.17675781,-45.71875,3.9375,-8.625,0.0,0.0,0.0
1664566876043,-1.4335938,0.0546875,-0.048828125,-44.3125,-56.15625,-23.34375,0.0,0.0,0.0
1664566876083,-0.8095703,0.22753906,-0.16015625,4.75,-135.5625,-27.84375,0.0,0.0,0.0
1664566876123,-1.3652344,0.15332031,-0.08105469,-8.5625,-103.84375,-49.75,0.0,0.0,0.0
1664566876163,-1.5722656,0.4814453,-0.060546875,-25.84375,-129.78125,-49.5625,0.0,0.0,0.0
1664566876203,-1.1884766,0.20996094,0.26464844,-20.59375,-159.625,-5.625,0.0,0.0,0.0
1664566876243,-0.765625,-0.048828125,0.21582031,-51.78125,-144.78125,-23.21875,0.0,0.0,0.0
1664566876283,-0.5654297,-0.15429688,-0.0087890625,-36.5,-97.96875,-38.40625,0.0,0.0,0.0
1664566876323,-0.31640625,-0.03125,0.0390625,33.25,-52.625,-29.5625,0.0,0.0,0.0
1664566876362,-0.25683594,0.095703125,0.11035156,77.875,-0.5,-7.71875,0.0,0.0,0.0
1664566876403,-0.3955078,0.051757812,0.3486328,35.03125,50.46875,7.375,0.0,0.0,0.0
1664566876443,-0.79785156,-0.12109375,0.6269531,5.53125,58.34375,6.5625,-59.25,21.9375,-105.625
1664566876483,-1.5224609,-9.765625E-4,0.9863281,55.90625,43.5,14.625,0.0,0.0,0.0
1664566876523,-1.0703125,-0.16503906,1.0869141,-13.3125,-28.9375,-17.09375,0.0,0.0,0.0
1664566876562,-1.4736328,-0.14453125,0.7832031,-35.34375,-15.34375,-33.40625,0.0,0.0,0.0
1664566876602,-1.2939453,0.111328125,-0.265625,-13.03125,28.96875,-7.15625,0.0,0.0,0.0
1664566876643,-0.546875,0.3955078,0.13769531,93.0625,-6.59375,4.9375,0.0,0.0,0.0
1664566876683,-1.1181641,-0.053710938,0.034179688,82.3125,3.40625,36.53125,0.0,0.0,0.0
1664566876723,-1.1455078,-0.057617188,-0.04296875,-57.5625,143.84375,-23.09375,0.0,0.0,0.0
1664566876763,-0.8232422,0.09765625,0.25,44.84375,51.75,-0.5,0.0,0.0,0.0
1664566876802,-0.6796875,0.2265625,0.021484375,21.15625,99.28125,17.0625,0.0,0.0,0.0
1664566876842,-0.76464844,-0.09277344,0.041015625,-20.875,113.625,5.34375,0.0,0.0,0.0
1664566876883,-0.75097656,-0.0048828125,0.08300781,-16.875,94.09375,5.59375,0.0,0.0,0.0
1664566876923,-0.8544922,-0.009765625,0.16308594,-0.3125,99.40625,24.21875,0.0,0.0,0.0
1664566876963,-0.90234375,0.057617188,0.12792969,0.78125,89.9375,28.3125,-66.875,25.0625,-125.125
1664566877003,-1.2207031,-0.041992188,0.10449219,-34.0625,71.625,23.25,0.0,0.0,0.0
1664566877043,-1.3847656,-0.10839844,0.099609375,-43.96875,41.84375,4.5625,0.0,0.0,0.0
1664566877084,-1.4804688,0.028320312,0.22949219,-55.125,12.8125,-3.8125,0.0,0.0,0.0
1664566877123,-1.4619141,0.0078125,0.10058594,-36.875,-35.53125,-10.40625,0.0,0.0,0.0
1664566877162,-0.921875,0.11035156,-0.16894531,10.78125,-120.875,-2.03125,0.0,0.0,0.0
1664566877204,-1.1171875,0.055664062,-0.22753906,-4.03125,-115.625,-38.46875,0.0,0.0,0.0
1664566877243,-1.5722656,0.30273438,-0.09277344,-12.09375,-110.0625,-35.53125,0.0,0.0,0.0
1664566877283,-1.2861328,0.33203125,0.22460938,-22.0,-128.96875,-11.4375,0.0,0.0,0.0
1664566877323,-0.78027344,0.046875,0.1875,-66.125,-124.84375,-30.15625,0.0,0.0,0.0
1664566877363,-0.6826172,-0.22363281,0.009765625,-66.375,-91.9375,-37.5625,0.0,0.0,0.0
1664566877403,-0.46875,-0.11425781,-0.07128906,24.75,-48.0,-41.8125,0.0,0.0,0.0
1664566877446,-0.31054688,0.08886719,-9.765625E-4,77.5,-23.5625,-1.96875,-63.75,19.6875,-104.125
1664566877486,-0.37695312,0.1015625,0.1875,46.125,43.125,13.71875,0.0,0.0,0.0
1664566877523,-0.6347656,-0.060546875,0.6015625,19.9375,34.71875,14.8125,0.0,0.0,0.0
1664566877564,-1.4863281,-0.04296875,0.55078125,20.96875,59.96875,27.375,0.0,0.0,0.0
1664566877603,-1.2998047,-0.12011719,1.1738281,71.03125,-43.40625,-13.4375,0.0,0.0,0.0
1664566877643,-1.2148438,-0.2841797,0.9609375,-28.9375,-31.5,-33.65625,0.0,0.0,0.0
1664566877683,-1.1337891,0.2783203,0.14160156,-23.03125,-2.15625,-24.0,0.0,0.0,0.0
1664566877724,-0.9794922,-0.0126953125,-0.13476562,58.46875,35.4375,-6.3125,0.0,0.0,0.0
1664566877763,-0.8066406,0.28808594,0.42773438,115.40625,-71.84375,70.65625,0.0,0.0,0.0
1664566877806,-1.1171875,-0.20800781,-0.2841797,-55.3125,100.8125,-11.25,0.0,0.0,0.0
1664566877843,-1.0029297,0.041992188,0.3564453,39.59375,66.40625,-15.53125,0.0,0.0,0.0
1664566877882,-0.67089844,0.18359375,0.020507812,16.09375,105.9375,-6.0625,0.0,0.0,0.0
1664566877923,-0.6201172,0.13867188,0.017578125,22.25,131.34375,26.96875,0.0,0.0,0.0
1664566877963,-0.80078125,0.00390625,0.0068359375,6.03125,114.96875,17.6875,-69.125,24.3125,-118.25
1664566878003,-0.8144531,0.001953125,0.11425781,15.1875,93.5,17.0625,0.0,0.0,0.0
1664566878043,-0.8388672,0.051757812,0.11035156,-8.4375,92.28125,20.75,0.0,0.0,0.0
1664566878083,-1.1083984,0.044921875,0.046875,-39.4375,76.65625,31.90625,0.0,0.0,0.0
1664566878126,-1.3789062,-0.13574219,0.07910156,-53.1875,47.78125,14.09375,0.0,0.0,0.0
1664566878163,-1.4541016,-0.09082031,0.16210938,-35.84375,30.1875,-14.3125,0.0,0.0,0.0
1664566878203,-1.6259766,0.06738281,0.06738281,-27.84375,-12.28125,-24.5625,0.0,0.0,0.0
1664566878244,-1.1943359,0.234375,-0.21191406,-10.75,-97.96875,-16.0,0.0,0.0,0.0
1664566878283,-0.90527344,0.09863281,-0.2421875,18.0625,-127.21875,-33.46875,0.0,0.0,0.0
1664566878323,-1.5810547,0.30859375,-0.08105469,-40.3125,-92.0,-43.15625,0.0,0.0,0.0
1664566878363,-1.3476562,0.52734375,0.03515625,-24.125,-140.09375,-32.5,0.0,0.0,0.0
1664566878403,-0.9472656,0.045898438,0.2421875,-64.15625,-147.21875,-11.5625,0.0,0.0,0.0
1664566878443,-0.61328125,-0.1484375,0.044921875,-59.21875,-125.125,-32.25,-65.375,20.875,-108.0625
1664566878483,-0.5625,-0.036132812,-0.03125,-17.65625,-64.09375,-42.0,0.0,0.0,0.0
1664566878524,-0.28222656,0.02734375,0.022460938,37.875,-14.65625,-21.5,0.0,0.0,0.0
1664566878562,-0.39648438,0.046875,0.087890625,54.125,50.59375,6.21875,0.0,0.0,0.0
1664566878602,-0.58691406,-0.026367188,0.4423828,47.46875,58.28125,10.84375,0.0,0.0,0.0
1664566878643,-1.1445312,-0.0146484375,0.6660156,30.25,53.5625,18.21875,0.0,0.0,0.0
1664566878685,-1.5898438,-0.0703125,1.0917969,83.96875,-7.09375,-5.375,0.0,0.0,0.0
1664566878724,-1.0058594,-0.30078125,0.8359375,-16.125,-9.84375,-33.40625,0.0,0.0,0.0
1664566878764,-1.3105469,0.2861328,0.27539062,-38.28125,-20.65625,-26.375,0.0,0.0,0.0
1664566878803,-1.2099609,0.09472656,-0.21972656,48.03125,67.3125,8.84375,0.0,0.0,0.0
1664566878843,-0.56640625,0.2109375,0.049804688,89.84375,-47.75,25.375,0.0,0.0,0.0
1664566878883,-1.2460938,-0.19140625,-0.18847656,3.90625,72.5625,0.03125,0.0,0.0,0.0
1664566878923,-1.0166016,0.0048828125,0.25683594,15.96875,85.4375,-37.3125,0.0,0.0,0.0
1664566878963,-0.859375,0.119140625,0.0068359375,10.84375,68.03125,-22.65625,-65.5625,21.8125,-113.75
1664566879003,-0.578125,0.08300781,0.041992188,34.03125,81.78125,-9.71875,0.0,0.0,0.0
1664566879042,-0.70214844,0.038085938,0.049804688,-0.3125,92.5,-3.1875,0.0,0.0,0.0
1664566879083,-0.7421875,-0.026367188,0.057617188,-15.21875,98.0,-2.53125,0.0,0.0,0.0
1664566879123,-0.80371094,0.03125,0.16796875,-37.96875,104.65625,11.15625,0.0,0.0,0.0
1664566879163,-1.0625,-0.09375,0.0087890625,-47.625,81.03125,22.4375,0.0,0.0,0.0
1664566879203,-1.2431641,-0.29785156,0.036132812,-53.1875,58.8125,14.5,0.0,0.0,0.0
1664566879243,-1.4570312,-0.18164062,0.11816406,-54.46875,29.90625,-11.71875,0.0,0.0,0.0
1664566879283,-1.7304688,-0.15917969,0.12402344,-37.96875,-0.5,-17.28125,0.0,0.0,0.0
1664566879323,-1.2744141,0.0087890625,-0.12695312,1.9375,-82.09375,-4.15625,0.0,0.0,0.0
1664566879363,-0.90722656,0.09472656,-0.26953125,94.46875,-156.09375,-0.625,0.0,0.0,0.0
1664566879403,-1.4902344,0.11230469,-0.16699219,57.84375,-112.5,-6.4375,0.0,0.0,0.0
1664566879443,-1.3369141,0.30664062,0.0234375,85.875,-142.59375,-5.75,-67.1875,20.125,-120.8125
1664566879482,-0.96484375,0.14160156,0.22265625,17.6875,-157.0,12.1875,0.0,0.0,0.0
1664566879523,-0.6904297,-0.17578125,0.111328125,-15.8125,-139.34375,11.71875,0.0,0.0,0.0
1664566879563,-0.47851562,-0.13085938,0.022460938,-26.75,-90.15625,-1.78125,0.0,0.0,0.0
1664566879603,-0.28710938,0.051757812,-0.013671875,-3.3125,-28.40625,-4.59375,0.0,0.0,0.0
1664566879645,-0.25878906,0.10644531,0.13867188,14.375,39.84375,3.59375,0.0,0.0,0.0
1664566879683,-0.4921875,0.11621094,0.59765625,-22.28125,79.5,2.78125,0.0,0.0,0.0
1664566879722,-1.2011719,-0.04296875,0.5917969,-30.90625,45.09375,-0.5,0.0,0.0,0.0
1664566879763,-1.4208984,-0.08691406,1.2167969,59.0,-13.5,-0.6875,0.0,0.0,0.0
1664566879803,-1.2490234,-0.052734375,1.0976562,-14.84375,-32.4375,-17.78125,0.0,0.0,0.0
1664566879843,-1.3457031,0.12402344,0.4716797,3.28125,-27.1875,-20.03125,0.0,0.0,0.0
1664566879883,-1.0605469,-0.12402344,-0.21582031,34.96875,51.5625,-7.59375,0.0,0.0,0.0
1664566879923,-0.6191406,0.33398438,0.14746094,113.9375,-8.8125,27.375,0.0,0.0,0.0
1664566879963,-1.1357422,-0.23925781,-0.25195312,0.21875,123.34375,-3.5,-62.875,22.375,-112.25
1664566880003,-0.9736328,0.08496094,0.265625,36.90625,105.75,-29.25,0.0,0.0,0.0
1664566880044,-0.86621094,0.076171875,0.061523438,18.53125,93.375,-14.78125,0.0,0.0,0.0
1664566880083,-0.70996094,0.03515625,0.030273438,-2.8125,81.96875,-17.03125,0.0,0.0,0.0
1664566880123,-0.6503906,0.020507812,-0.018554688,-28.75,92.34375,-16.1875,0.0,0.0,0.0
1664566880163,-0.7421875,-0.036132812,0.09277344,-43.71875,99.28125,-4.34375,0.0,0.0,0.0
1664566880203,-0.8671875,-0.05078125,0.14550781,-54.46875,96.1875,12.625,0.0,0.0,0.0
1664566880242,-1.1201172,-0.0234375,0.033203125,-66.59375,84.8125,21.78125,0.0,0.0,0.0
1664566880283,-1.390625,-0.09082031,0.024414062,-50.0,43.9375,12.5,0.0,0.0,0.0
1664566880323,-1.4082031,-0.23242188,0.099609375,-52.375,6.09375,-14.40625,0.0,0.0,0.0
1664566880363,-1.6123047,-0.16308594,0.033203125,-31.5625,-22.65625,-19.3125,0.0,0.0,0.0
1664566880402,-1.1064453,0.10839844,-0.28125,46.75,-108.09375,-2.28125,0.0,0.0,0.0
1664566880443,-1.0927734,0.0,-0.30078125,105.625,-145.59375,-3.875,-65.6875,20.125,-127.125
1664566880483,-1.5283203,0.140625,-0.15234375,74.5,-129.53125,-11.78125,0.0,0.0,0.0
1664566880522,-1.2597656,0.25878906,0.13183594,85.5,-142.59375,7.5625,0.0,0.0,0.0
1664566880563,-0.9296875,0.051757812,0.21972656,19.34375,-154.875,16.40625,0.0,0.0,0.0
1664566880603,-0.7089844,-0.16601562,0.078125,-11.4375,-123.4375,4.75,0.0,0.0,0.0
1664566880644,-0.43066406,-0.02734375,0.048828125,-4.90625,-71.5625,-11.6875,0.0,0.0,0.0
1664566880683,-0.27929688,0.12597656,-0.029296875,21.46875,-21.9375,-3.0,0.0,0.0,0.0
1664566880723,-0.4326172,0.12792969,0.20996094,9.5,43.375,3.21875,0.0,0.0,0.0
1664566880764,-0.6201172,0.13964844,0.5644531,-39.0625,65.28125,-4.03125,0.0,0.0,0.0
1664566880802,-1.0205078,-0.034179688,0.5488281,-38.84375,57.71875,3.78125,0.0,0.0,0.0
1664566880843,-1.4863281,-0.07910156,1.0361328,21.21875,-2.28125,-3.4375,0.0,0.0,0.0
1664566880883,-1.2978516,-0.18847656,1.2470703,-1.59375,-46.84375,-16.96875,0.0,0.0,0.0
1664566880923,-1.3251953,0.046875,0.3076172,-18.5625,-25.59375,-22.125,0.0,0.0,0.0
1664566880963,-0.91015625,-0.072265625,-0.17871094,50.65625,51.6875,-10.8125,-61.5,20.0,-110.0
1664566881003,-0.70996094,0.43945312,0.21777344,133.90625,-4.03125,33.4375,0.0,0.0,0.0
1664566881043,-1.2421875,-0.32421875,-0.2939453,-10.875,123.34375,-9.34375,0.0,0.0,0.0
1664566881083,-0.94921875,0.19140625,0.27539062,29.53125,96.59375,-39.25,0.0,0.0,0.0
1664566881123,-0.81933594,0.11425781,0.022460938,7.5,74.375,-8.6875,0.0,0.0,0.0
1664566881163,-0.640625,0.059570312,0.087890625,-25.84375,89.46875,-12.96875,0.0,0.0,0.0
1664566881203,-0.7548828,-0.059570312,0.07910156,-52.5625,95.6875,-18.9375,0.0,0.0,0.0
1664566881243,-0.80566406,-0.07421875,0.18359375,-58.96875,93.0,-7.34375,0.0,0.0,0.0
1664566881283,-0.87402344,-0.076171875,0.16699219,-63.5625,93.125,14.9375,0.0,0.0,0.0
1664566881323,-1.0556641,-0.09082031,0.0029296875,-45.0625,62.0,24.65625,0.0,0.0,0.0
1664566881363,-1.2724609,-0.16796875,0.032226562,-41.9375,37.71875,10.71875,0.0,0.0,0.0
1664566881404,-1.3769531,-0.18847656,0.083984375,-55.0625,22.875,-10.28125,0.0,0.0,0.0
1664566881443,-1.5283203,-0.1328125,0.06347656,-46.03125,0.03125,-10.34375,-63.625,21.9375,-131.875
1664566881482,-1.2617188,-0.01953125,-0.31152344,-7.03125,-74.125,-10.625,0.0,0.0,0.0
1664566881525,-0.8564453,0.12792969,-0.23339844,86.46875,-149.125,-8.25,0.0,0.0,0.0
1664566881563,-1.3193359,0.12988281,0.018554688,87.75,-126.0625,-14.125,0.0,0.0,0.0
1664566881602,-1.4335938,0.21582031,-0.00390625,68.46875,-131.90625,-0.9375,0.0,0.0,0.0
1664566881644,-1.0908203,0.21191406,0.32421875,38.9375,-149.5625,15.5,0.0,0.0,0.0
1664566881682,-0.8105469,-0.08886719,0.19335938,3.28125,-142.78125,16.40625,0.0,0.0,0.0
1664566881723,-0.5830078,-0.19238281,0.083984375,-15.40625,-100.65625,7.8125,0.0,0.0,0.0
1664566881763,-0.32128906,0.07519531,0.049804688,16.90625,-61.78125,4.25,0.0,0.0,0.0
1664566881803,-0.2890625,0.1015625,0.14648438,28.3125,3.90625,11.59375,0.0,0.0,0.0
1664566881843,-0.44726562,0.14746094,0.4892578,-21.375,65.78125,0.46875,0.0,0.0,0.0
1664566881885,-0.80078125,-0.026367188,0.703125,-36.21875,66.03125,-3.4375,0.0,0.0,0.0
1664566881923,-1.3896484,-0.07324219,0.75683594,-4.53125,61.6875,-0.75,0.0,0.0,0.0
1664566881963,-1.2509766,0.107421875,1.3808594,-2.75,-24.125,-11.78125,-61.1875,23.5625,-113.75
1664566882003,-1.3251953,0.049804688,0.43945312,-39.75,-24.78125,-14.1875,0.0,0.0,0.0
1664566882042,-1.3427734,-0.10449219,-0.20117188,13.03125,36.25,-3.75,0.0,0.0,0.0
1664566882083,-0.5439453,0.46972656,-0.053710938,55.84375,48.03125,-2.9375,0.0,0.0,0.0
1664566882125,-1.125,-0.07421875,0.01171875,61.1875,56.0,19.21875,0.0,0.0,0.0
1664566882164,-1.1044922,-0.10839844,0.040039062,-28.6875,128.03125,-35.90625,0.0,0.0,0.0
1664566882202,-0.86621094,0.12988281,0.12402344,26.46875,67.78125,-16.4375,0.0,0.0,0.0
1664566882243,-0.66503906,0.16210938,0.024414062,0.78125,83.3125,-8.625,0.0,0.0,0.0
1664566882283,-0.7109375,0.041015625,0.078125,-34.6875,96.3125,-9.59375,0.0,0.0,0.0
1664566882323,-0.80078125,-0.005859375,0.103515625,-48.46875,96.46875,-11.5,0.0,0.0,0.0
1664566882363,-0.8457031,0.03125,0.18554688,-62.21875,100.5,5.46875,0.0,0.0,0.0
1664566882403,-0.9033203,-0.021484375,-0.0078125,-73.6875,83.96875,31.40625,0.0,0.0,0.0
1664566882442,-1.1904297,-0.12109375,-0.06542969,-66.0625,52.46875,14.875,-63.125,20.875,-131.875
1664566882483,-1.4648438,-0.33398438,0.08496094,-61.78125,28.375,-15.9375,0.0,0.0,0.0
1664566882523,-1.5380859,-0.18945312,0.09277344,-36.6875,-6.375,-25.03125,0.0,0.0,0.0
1664566882565,-1.4658203,-0.07128906,-0.25,-8.0625,-70.03125,-10.75,0.0,0.0,0.0
1664566882603,-0.8574219,0.1796875,-0.1484375,103.125,-145.84375,-7.15625,0.0,0.0,0.0
1664566882642,-1.3007812,0.15527344,-0.056640625,98.0,-136.84375,-11.125,0.0,0.0,0.0
1664566882684,-1.3769531,0.24804688,0.052734375,90.8125,-126.65625,-4.03125,0.0,0.0,0.0
1664566882723,-0.99316406,0.17285156,0.3095703,42.84375,-138.375,11.28125,0.0,0.0,0.0
1664566882763,-0.8623047,-0.109375,0.15332031,12.0,-126.46875,6.34375,0.0,0.0,0.0
1664566882803,-0.5332031,-0.10644531,0.087890625,6.40625,-72.90625,-4.34375,0.0,0.0,0.0
1664566882843,-0.34960938,0.07324219,0.016601562,19.6875,-26.3125,-11.1875,0.0,0.0,0.0
1664566882883,-0.2783203,0.12597656,0.07128906,20.90625,20.25,0.15625,0.0,0.0,0.0
1664566882922,-0.47851562,0.15429688,0.4482422,-19.90625,62.65625,-6.78125,0.0,0.0,0.0
1664566882963,-0.8876953,-0.021484375,0.58984375,-36.21875,47.78125,-9.21875,-61.8125,20.125,-113.875
1664566883003,-1.4316406,0.048828125,0.7597656,11.59375,44.40625,0.96875,0.0,0.0,0.0
1664566883043,-1.3046875,0.06542969,1.2568359,-8.75,-22.15625,-8.5625,0.0,0.0,0.0
1664566883083,-1.3769531,0.055664062,0.390625,-55.5625,-36.40625,-24.5625,0.0,0.0,0.0
1664566883123,-1.3056641,-0.06347656,-0.40234375,13.15625,23.71875,-4.84375,0.0,0.0,0.0
1664566883163,-0.4873047,0.5839844,0.12597656,75.375,37.71875,4.0,0.0,0.0,0.0
1664566883204,-1.1523438,-0.20214844,-0.018554688,24.46875,44.125,17.5,0.0,0.0,0.0
1664566883243,-1.0556641,-0.1015625,0.107421875,-59.21875,127.3125,-54.9375,0.0,0.0,0.0
1664566883282,-0.81152344,0.13671875,0.044921875,3.90625,59.0,-16.3125,0.0,0.0,0.0
1664566883323,-0.6220703,0.13964844,0.017578125,-5.25,84.40625,2.25,0.0,0.0,0.0
1664566883363,-0.7558594,0.044921875,0.040039062,-47.75,93.25,-5.5625,0.0,0.0,0.0
1664566883403,-0.8564453,-0.07324219,0.05859375,-77.65625,102.875,-12.09375,0.0,0.0,0.0
1664566883443,-0.85546875,-0.041992188,0.13964844,-76.6875,99.65625,3.53125,-66.0,18.8125,-128.4375
1664566883483,-0.9921875,-0.076171875,-0.018554688,-63.96875,72.375,21.40625,0.0,0.0,0.0
1664566883523,-1.2744141,-0.14941406,0.032226562,-60.375,57.53125,12.0625,0.0,0.0,0.0
1664566883563,-1.3789062,-0.12792969,0.109375,-54.28125,18.0,-3.5625,0.0,0.0,0.0
1664566883602,-1.46875,-0.05859375,0.09765625,-64.28125,-5.5,-2.8125,0.0,0.0,0.0
1664566883643,-1.4013672,-0.10644531,-0.32226562,-33.15625,-68.9375,3.21875,0.0,0.0,0.0
1664566883683,-0.828125,-0.0029296875,-0.25195312,71.34375,-150.71875,0.40625,0.0,0.0,0.0
1664566883723,-1.3398438,0.0048828125,-0.033203125,71.8125,-128.75,-11.375,0.0,0.0,0.0
1664566883763,-1.5263672,0.13378906,-0.061523438,87.3125,-131.5,-5.5,0.0,0.0,0.0
1664566883803,-1.1308594,0.28808594,0.31152344,76.65625,-151.9375,3.59375,0.0,0.0,0.0
1664566883843,-0.77441406,-0.08105469,0.17480469,26.21875,-134.46875,9.9375,0.0,0.0,0.0
1664566883882,-0.5234375,-0.1953125,0.08886719,5.96875,-96.5,-9.40625,0.0,0.0,0.0
1664566883923,-0.28320312,0.032226562,0.0126953125,40.21875,-58.90625,-5.5,0.0,0.0,0.0
1664566883963,-0.2763672,0.17089844,0.08886719,39.71875,6.09375,8.21875,-60.3125,23.4375,-109.875
1664566884002,-0.4921875,0.16015625,0.46289062,-13.8125,53.03125,2.90625,0.0,0.0,0.0
1664566884043,-0.7871094,-0.09375,0.5966797,-15.40625,54.90625,-8.25,0.0,0.0,0.0
1664566884084,-1.3564453,-9.765625E-4,0.6933594,-4.65625,64.25,-11.0,0.0,0.0,0.0
1664566884123,-1.3330078,0.14355469,1.1503906,18.84375,-6.3125,-4.40625,0.0,0.0,0.0
1664566884163,-1.3789062,-0.1796875,0.6308594,-18.625,-47.3125,-20.46875,0.0,0.0,0.0
1664566884203,-1.2714844,0.12792969,-0.03125,14.625,24.46875,-9.0625,0.0,0.0,0.0
1664566884243,-0.5703125,0.2578125,-0.009765625,54.71875,37.15625,0.53125,0.0,0.0,0.0
1664566884284,-0.9453125,0.0078125,0.18164062,99.28125,25.6875,32.40625,0.0,0.0,0.0
1664566884323,-1.2324219,-0.30273438,-0.051757812,-57.4375,122.96875,-42.0,0.0,0.0,0.0
1664566884364,-0.87890625,0.20703125,0.22851562,42.40625,70.46875,-31.75,0.0,0.0,0.0
1664566884405,-0.6171875,0.19042969,-0.018554688,5.78125,83.125,-10.5625,0.0,0.0,0.0
1664566884443,-0.7128906,0.053710938,0.059570312,-41.28125,92.09375,-12.71875,-65.875,23.5625,-125.125
1664566884483,-0.81640625,-0.09765625,0.029296875,-59.59375,93.4375,-23.34375,0.0,0.0,0.0
1664566884524,-0.87402344,-0.052734375,0.16992188,-63.375,97.46875,-9.15625,0.0,0.0,0.0
1664566884562,-0.89453125,-0.05859375,0.123046875,-59.71875,76.46875,24.8125,0.0,0.0,0.0
1664566884603,-1.1923828,-0.055664062,0.11621094,-64.90625,61.875,31.25,0.0,0.0,0.0
1664566884642,-1.3417969,-0.34472656,0.038085938,-60.9375,27.03125,8.84375,0.0,0.0,0.0
1664566884684,-1.4335938,-0.12792969,0.09667969,-54.9375,-5.09375,-12.46875,0.0,0.0,0.0
1664566884723,-1.4863281,0.0078125,-0.03125,-32.5625,-39.125,-19.0625,0.0,0.0,0.0
1664566884765,-0.9375,0.0859375,-0.16992188,73.78125,-125.0,-0.625,0.0,0.0,0.0
1664566884803,-1.2089844,0.03515625,-0.12988281,81.40625,-133.125,-13.375,0.0,0.0,0.0
1664566884843,-1.6220703,0.3095703,-0.061523438,56.75,-118.125,-24.0625,0.0,0.0,0.0
1664566884883,-1.1806641,0.2109375,0.2919922,52.46875,-134.40625,0.0,0.0,0.0,0.0
1664566884923,-0.9375,-0.140625,0.15429688,2.125,-121.0,-9.65625,0.0,0.0,0.0
1664566884963,-0.60546875,-0.15039062,0.01953125,1.15625,-65.625,-22.96875,-63.3125,22.0625,-115.5625
1664566885003,-0.32421875,0.03125,0.005859375,21.09375,-31.375,-15.625,0.0,0.0,0.0
1664566885045,-0.22949219,0.11816406,0.041015625,39.15625,16.34375,3.71875,0.0,0.0,0.0
1664566885083,-0.40234375,0.07421875,0.32226562,-1.53125,71.53125,2.5625,0.0,0.0,0.0
1664566885123,-0.70996094,0.047851562,0.5654297,-25.15625,55.03125,-0.5,0.0,0.0,0.0
1664566885163,-1.2988281,0.028320312,0.38183594,-25.96875,57.90625,6.875,0.0,0.0,0.0
1664566885204,-1.5888672,-0.09765625,1.1171875,20.375,-1.40625,-2.75,0.0,0.0,0.0
1664566885244,-1.3808594,-0.14648438,0.89160156,-15.625,-57.15625,-32.65625,0.0,0.0,0.0
1664566885283,-1.4257812,-0.005859375,0.0390625,29.46875,-22.125,-24.25,0.0,0.0,0.0
1664566885323,-0.62109375,0.18164062,-0.119140625,47.53125,43.5625,-20.21875,0.0,0.0,0.0
1664566885363,-0.83496094,0.2626953,0.22753906,104.125,-1.78125,42.46875,0.0,0.0,0.0
1664566885403,-1.3349609,-0.43652344,-0.22949219,-68.625,124.25,-23.9375,0.0,0.0,0.0
1664566885442,-0.9785156,0.11621094,0.20703125,15.0625,53.4375,-24.6875,-64.1875,20.875,-123.9375
1664566885483,-0.65722656,0.09082031,-0.056640625,-12.78125,63.9375,0.09375,0.0,0.0,0.0
1664566885523,-0.53515625,0.07128906,0.017578125,-37.125,77.75,-0.5625,0.0,0.0,0.0
1664566885563,-0.7792969,0.0126953125,0.030273438,-62.8125,94.28125,-0.75,0.0,0.0,0.0
1664566885603,-0.93652344,-0.13964844,0.19628906,-64.78125,99.96875,-2.9375,0.0,0.0,0.0
1664566885643,-0.9042969,-0.09667969,0.048828125,-61.34375,74.09375,21.59375,0.0,0.0,0.0
1664566885682,-1.0830078,-0.0703125,-0.029296875,-57.09375,57.65625,20.6875,0.0,0.0,0.0
1664566885724,-1.4335938,-0.31152344,0.038085938,-65.375,36.78125,2.65625,0.0,0.0,0.0
1664566885763,-1.4179688,-0.16992188,0.14453125,-57.28125,0.28125,-14.0,0.0,0.0,0.0
1664566885802,-1.46875,0.07519531,0.11621094,-34.375,-26.875,-7.71875,0.0,0.0,0.0
1664566885843,-0.9794922,-0.02734375,-0.37695312,33.0,-104.9375,-1.25,0.0,0.0,0.0
1664566885883,-1.0283203,0.036132812,-0.17480469,78.34375,-135.28125,-16.0625,0.0,0.0,0.0
1664566885924,-1.5625,0.15820312,-0.10253906,52.53125,-108.40625,-24.4375,0.0,0.0,0.0
1664566885965,-1.2753906,0.24609375,0.20019531,84.15625,-120.5,-2.59375,-63.75,20.0,-122.75
1664566886003,-0.9160156,0.0126953125,0.16894531,37.59375,-131.0625,14.5,0.0,0.0,0.0
1664566886043,-0.65234375,-0.19238281,0.11328125,19.6875,-95.09375,-9.21875,0.0,0.0,0.0
1664566886083,-0.3935547,0.017578125,0.11328125,14.6875,-63.5,-4.28125,0.0,0.0,0.0
1664566886123,-0.40234375,0.11035156,0.07128906,39.59375,-31.25,11.59375,0.0,0.0,0.0
1664566886163,-0.48535156,0.12695312,0.2861328,16.34375,40.75,7.625,0.0,0.0,0.0
1664566886204,-0.5732422,0.16796875,0.6923828,-18.8125,54.4375,-1.25,0.0,0.0,0.0
1664566886243,-1.0859375,-0.10449219,0.33203125,-48.28125,24.9375,0.96875,0.0,0.0,0.0
1664566886283,-1.3974609,-0.076171875,1.1884766,19.9375,13.84375,-9.84375,0.0,0.0,0.0
1664566886323,-1.4921875,0.032226562,0.8730469,-11.71875,-58.5,-14.65625,0.0,0.0,0.0
1664566886363,-1.4111328,0.041015625,0.2529297,12.3125,-33.9375,-4.65625,0.0,0.0,0.0
1664566886404,-0.8017578,-0.083984375,0.06933594,29.09375,29.84375,-14.125,0.0,0.0,0.0
1664566886443,-0.44433594,0.4013672,0.12109375,53.4375,16.90625,13.53125,-60.875,20.75,-114.5
1664566886483,-1.2314453,-0.33691406,-0.0703125,-36.28125,84.53125,-8.3125,0.0,0.0,0.0
1664566886523,-1.0908203,0.015625,0.19726562,-5.3125,100.375,-28.40625,0.0,0.0,0.0
1664566886563,-0.8671875,9.765625E-4,0.09472656,13.28125,76.46875,4.9375,0.0,0.0,0.0
1664566886603,-0.6669922,0.08203125,0.09082031,-24.125,88.125,-4.71875,0.0,0.0,0.0
1664566886643,-0.7001953,0.016601562,-0.041015625,-59.40625,93.375,-7.28125,0.0,0.0,0.0
1664566886683,-0.7294922,-0.0087890625,0.045898438,-51.59375,104.46875,3.21875,0.0,0.0,0.0
1664566886723,-0.88964844,-0.01953125,0.16113281,-60.3125,108.5625,13.40625,0.0,0.0,0.0
1664566886763,-1.1435547,-0.06640625,0.040039062,-84.5625,88.71875,21.78125,0.0,0.0,0.0
1664566886803,-1.3378906,-0.31640625,0.02734375,-75.625,45.28125,5.21875,0.0,0.0,0.0
1664566886843,-1.390625,-0.22949219,0.083984375,-56.78125,4.125,-14.0625,0.0,0.0,0.0
1664566886883,-1.6552734,-0.0390625,-0.041015625,-15.21875,-13.4375,-11.84375,0.0,0.0,0.0
1664566886923,-1.0683594,0.109375,-0.24902344,68.34375,-115.0,-1.78125,0.0,0.0,0.0
1664566886963,-0.953125,0.14453125,-0.24511719,91.0,-140.09375,-5.3125,-63.625,19.8125,-128.125
1664566887006,-1.5585938,0.034179688,-0.26464844,28.5,-119.53125,-11.96875,0.0,0.0,0.0
1664566887043,-1.2578125,0.17382812,0.1953125,77.25,-138.0625,-1.0625,0.0,0.0,0.0
1664566887083,-0.95214844,0.046875,0.22460938,33.3125,-147.53125,16.28125,0.0,0.0,0.0
1664566887123,-0.7138672,-0.17871094,0.1171875,4.75,-105.375,9.125,0.0,0.0,0.0
1664566887163,-0.40039062,0.021484375,0.10253906,4.0625,-60.1875,-6.71875,0.0,0.0,0.0
1664566887203,-0.27929688,0.107421875,0.056640625,17.8125,-5.75,0.0,0.0,0.0,0.0
1664566887244,-0.4375,0.09667969,0.23730469,1.375,50.875,3.78125,0.0,0.0,0.0
1664566887283,-0.65625,0.115234375,0.5136719,-26.9375,61.8125,1.6875,0.0,0.0,0.0
1664566887323,-1.1806641,0.034179688,0.4140625,-28.15625,68.28125,5.53125,0.0,0.0,0.0
1664566887363,-1.5546875,0.033203125,1.1113281,7.90625,3.40625,-5.4375,0.0,0.0,0.0
1664566887403,-1.2509766,-0.22265625,0.9628906,-11.3125,-73.25,-21.125,0.0,0.0,0.0
1664566887443,-1.2744141,0.06347656,0.19042969,13.0,-9.59375,-18.9375,-61.8125,21.625,-114.625
1664566887483,-0.9296875,-0.0126953125,-0.057617188,39.46875,55.90625,-24.75,0.0,0.0,0.0
1664566887524,-0.8095703,0.20703125,0.16796875,104.84375,-5.3125,33.8125,0.0,0.0,0.0
1664566887563,-1.2617188,-0.21484375,0.0,-14.53125,100.5625,-17.96875,0.0,0.0,0.0
1664566887603,-0.9267578,0.08984375,0.11621094,13.40625,65.96875,-20.34375,0.0,0.0,0.0
1664566887644,-0.75390625,0.0546875,0.07421875,-15.03125,71.59375,-4.28125,0.0,0.0,0.0
1664566887683,-0.6738281,-0.001953125,0.111328125,-37.4375,79.875,-4.15625,0.0,0.0,0.0
1664566887724,-0.80078125,-0.09863281,0.111328125,-54.21875,75.78125,-16.5625,0.0,0.0,0.0
1664566887763,-0.8232422,-0.09375,0.0859375,-61.59375,74.6875,-8.125,0.0,0.0,0.0
1664566887803,-0.8535156,-0.043945312,0.12207031,-62.28125,83.34375,15.1875,0.0,0.0,0.0
1664566887843,-0.9707031,-0.051757812,0.08105469,-62.28125,64.3125,31.25,0.0,0.0,0.0
1664566887883,-1.2197266,-0.14941406,0.0087890625,-57.625,49.1875,15.96875,0.0,0.0,0.0
1664566887923,-1.4355469,-0.29882812,0.12695312,-54.65625,23.0625,-13.03125,0.0,0.0,0.0
1664566887963,-1.6044922,-0.16015625,0.09375,-31.625,-15.28125,-15.75,-62.875,21.1875,-129.5
1664566888003,-1.2431641,-0.044921875,-0.3955078,10.53125,-99.125,-6.90625,0.0,0.0,0.0
1664566888043,-0.78808594,0.1640625,-0.1640625,95.125,-160.0,-2.40625,0.0,0.0,0.0
1664566888082,-1.4023438,0.09472656,-0.0625,61.875,-121.15625,-23.5625,0.0,0.0,0.0
1664566888123,-1.4355469,0.15136719,0.140625,76.59375,-117.625,-11.375,0.0,0.0,0.0
1664566888162,-0.9326172,0.12011719,0.23046875,64.375,-132.65625,-1.125,0.0,0.0,0.0
1664566888203,-0.70410156,-0.15332031,0.14648438,24.28125,-102.4375,-6.25,0.0,0.0,0.0
1664566888243,-0.46875,-0.13183594,0.12207031,14.9375,-60.3125,-13.0625,0.0,0.0,0.0
1664566888283,-0.40820312,0.05859375,0.09375,39.21875,-28.9375,-0.25,0.0,0.0,0.0
1664566888323,-0.4716797,0.18945312,0.21484375,27.8125,37.59375,6.03125,0.0,0.0,0.0
1664566888363,-0.6171875,0.20898438,0.56347656,-6.84375,65.59375,1.8125,0.0,0.0,0.0
1664566888403,-1.0126953,-0.13964844,0.44433594,-37.90625,43.9375,-4.46875,0.0,0.0,0.0
1664566888444,-1.3652344,-0.001953125,0.97265625,-2.875,48.375,-18.15625,-62.125,22.375,-115.25
1664566888483,-1.3017578,0.13964844,0.9169922,0.59375,-42.3125,-9.46875,0.0,0.0,0.0
1664566888523,-1.3681641,0.06640625,0.34960938,3.84375,-18.6875,3.21875,0.0,0.0,0.0
1664566888564,-1.0029297,0.020507812,-0.0146484375,25.6875,13.28125,-0.8125,0.0,0.0,0.0
1664566888603,-0.52734375,0.23046875,-0.12402344,36.125,27.9375,-2.53125,0.0,0.0,0.0
1664566888643,-1.4033203,-0.38085938,0.06933594,14.9375,71.875,-1.0,0.0,0.0,0.0
1664566888683,-0.9746094,0.049804688,0.18457031,1.15625,95.375,-41.65625,0.0,0.0,0.0
1664566888723,-0.76953125,0.14355469,0.095703125,12.375,52.28125,-6.4375,0.0,0.0,0.0
1664566888763,-0.6220703,0.14746094,0.0625,-33.34375,78.90625,-1.3125,0.0,0.0,0.0
1664566888803,-0.7871094,-0.024414062,0.08691406,-59.65625,88.4375,-3.0625,0.0,0.0,0.0
1664566888846,-0.86816406,-0.09765625,0.10839844,-68.0625,85.8125,-5.75,0.0,0.0,0.0
1664566888883,-0.86328125,-0.047851562,0.15527344,-66.71875,95.125,7.5625,0.0,0.0,0.0
1664566888923,-1.0009766,-0.072265625,0.16503906,-63.5625,64.625,26.40625,0.0,0.0,0.0
1664566888962,-1.1787109,-0.11230469,0.064453125,-70.5625,47.71875,14.75,-61.1875,22.5625,-129.625
1664566889003,-1.4130859,-0.31054688,0.07910156,-59.03125,18.28125,-6.3125,0.0,0.0,0.0
1664566889042,-1.4824219,-0.09667969,0.11816406,-35.34375,-20.9375,-17.59375,0.0,0.0,0.0
1664566889083,-1.3896484,-0.049804688,-0.24121094,-2.875,-78.375,-1.0,0.0,0.0,0.0
1664566889123,-0.7548828,0.09375,-0.16894531,87.375,-141.8125,5.0,0.0,0.0,0.0
1664566889162,-1.3408203,-0.01953125,0.0390625,57.34375,-119.71875,-18.15625,0.0,0.0,0.0
1664566889206,-1.4345703,0.099609375,0.10253906,67.84375,-120.0,-16.5,0.0,0.0,0.0
1664566889243,-0.9765625,0.11328125,0.29003906,61.875,-123.96875,-0.4375,0.0,0.0,0.0
1664566889283,-0.80078125,-0.13574219,0.20214844,35.1875,-115.125,-0.625,0.0,0.0,0.0
1664566889323,-0.51953125,-0.09277344,0.08984375,23.25,-73.3125,-16.375,0.0,0.0,0.0
1664566889363,-0.3642578,0.099609375,0.1015625,39.15625,-33.46875,-10.5625,0.0,0.0,0.0
1664566889402,-0.4140625,0.10253906,0.15332031,33.5,20.0625,-3.1875,0.0,0.0,0.0
1664566889444,-0.52734375,0.099609375,0.4375,-15.6875,65.46875,-5.75,-58.8125,24.1875,-112.875
1664566889483,-0.8642578,-0.0048828125,0.5283203,-33.71875,70.34375,-2.03125,0.0,0.0,0.0
1664566889523,-1.3554688,-0.08203125,0.89160156,14.09375,53.75,1.3125,0.0,0.0,0.0
1664566889563,-1.3271484,0.09375,0.9824219,7.84375,-14.3125,-10.5625,0.0,0.0,0.0
1664566889603,-1.3613281,-0.06738281,0.43554688,-12.59375,-38.96875,-16.0,0.0,0.0,0.0
1664566889643,-1.2324219,-0.017578125,-0.30078125,18.21875,24.65625,-10.21875,0.0,0.0,0.0
1664566889703,-0.5566406,0.43847656,-0.0087890625,61.5,25.9375,3.71875,0.0,0.0,0.0
1664566889723,-1.2265625,-0.22167969,0.19433594,50.9375,33.3125,29.09375,0.0,0.0,0.0
1664566889766,-1.1230469,-0.11621094,0.048828125,-57.625,95.375,-57.875,0.0,0.0,0.0
1664566889803,-0.85839844,0.14453125,0.029296875,-6.96875,41.3125,-16.96875,0.0,0.0,0.0
1664566889843,-0.5751953,0.115234375,-0.041015625,-12.46875,72.8125,1.375,0.0,0.0,0.0
1664566889883,-0.7285156,0.07421875,0.087890625,-37.3125,89.53125,4.125,0.0,0.0,0.0
1664566889923,-0.92089844,-0.12011719,0.13476562,-57.03125,92.9375,-6.71875,0.0,0.0,0.0
1664566889963,-0.8652344,-0.087890625,0.15527344,-69.15625,80.125,-2.28125,-61.8125,20.875,-128.4375
1664566890003,-0.82128906,-0.040039062,0.040039062,-59.40625,71.53125,23.90625,0.0,0.0,0.0
1664566890043,-1.1064453,-0.109375,0.07910156,-58.5,57.59375,17.5,0.0,0.0,0.0
1664566890083,-1.3916016,-0.27734375,0.09277344,-61.21875,35.5625,-7.8125,0.0,0.0,0.0
1664566890122,-1.5273438,-0.20410156,0.3095703,-59.21875,-6.125,-8.75,0.0,0.0,0.0
1664566890163,-1.4707031,-0.041992188,0.13183594,-32.78125,-50.84375,-11.125,0.0,0.0,0.0
1664566890203,-0.86621094,-0.0087890625,-0.3046875,48.375,-138.4375,2.90625,0.0,0.0,0.0
1664566890243,-0.99316406,0.07324219,-0.09863281,84.875,-148.03125,-10.5625,0.0,0.0,0.0
1664566890283,-1.5410156,0.041015625,-0.005859375,52.59375,-110.375,-24.1875,0.0,0.0,0.0
1664566890323,-1.3066406,0.14941406,0.3046875,72.375,-136.3125,-22.0625,0.0,0.0,0.0
1664566890363,-0.8359375,0.087890625,0.25683594,28.25,-128.0625,-14.125,0.0,0.0,0.0
1664566890403,-0.68359375,-0.17480469,0.18554688,-6.78125,-81.75,-19.5,0.0,0.0,0.0
1664566890442,-0.44335938,-0.11621094,0.19335938,7.96875,-46.78125,-18.8125,-58.8125,20.5625,-111.1875
1664566890483,-0.2890625,0.05078125,0.13085938,36.0625,-15.9375,-3.96875,0.0,0.0,0.0
1664566890523,-0.3876953,0.140625,0.24121094,10.84375,50.40625,2.71875,0.0,0.0,0.0
1664566890563,-0.65722656,0.07421875,0.5332031,-23.75,81.21875,7.375,0.0,0.0,0.0
1664566890603,-1.0898438,-0.09277344,0.4326172,-38.28125,76.21875,9.5625,0.0,0.0,0.0
1664566890643,-1.4794922,0.00390625,0.9033203,32.03125,29.21875,0.15625,0.0,0.0,0.0
1664566890683,-1.5507812,-0.21679688,1.0214844,3.9375,-33.84375,-14.96875,0.0,0.0,0.0
1664566890726,-1.2900391,0.060546875,0.23632812,-4.84375,-15.75,-13.125,0.0,0.0,0.0
1664566890765,-0.8808594,0.09082031,0.043945312,31.125,51.0,3.03125,0.0,0.0,0.0
1664566890803,-0.65722656,0.099609375,0.08105469,43.3125,9.125,19.15625,0.0,0.0,0.0
1664566890843,-1.140625,-0.27734375,-0.059570312,-31.9375,107.46875,-12.84375,0.0,0.0,0.0
1664566890882,-1.0009766,0.083984375,0.25585938,-15.625,71.46875,-24.125,0.0,0.0,0.0
1664566890923,-0.78125,0.0146484375,-0.07714844,-21.8125,62.125,2.5,0.0,0.0,0.0
1664566890963,-0.6542969,0.08886719,0.06738281,-36.8125,81.03125,2.4375,-64.5,18.9375,-122.4375
1664566891003,-0.81640625,-0.068359375,0.09472656,-50.75,91.0625,-0.1875,0.0,0.0,0.0
1664566891043,-0.9277344,-0.14550781,0.051757812,-64.90625,80.6875,-8.5625,0.0,0.0,0.0
1664566891084,-0.9238281,-0.09472656,0.09375,-44.28125,68.71875,7.375,0.0,0.0,0.0
1664566891123,-0.921875,-0.036132812,0.23730469,-43.09375,62.65625,21.34375,0.0,0.0,0.0
1664566891163,-1.1679688,-0.18359375,0.06640625,-63.4375,53.8125,20.5625,0.0,0.0,0.0
1664566891203,-1.3662109,-0.25878906,0.03125,-41.9375,39.71875,-1.34375,0.0,0.0,0.0
1664566891243,-1.5791016,-0.05859375,0.15332031,-34.4375,-2.21875,-7.59375,0.0,0.0,0.0
1664566891283,-1.4785156,-0.0107421875,-0.25683594,8.28125,-68.625,-2.875,0.0,0.0,0.0
1664566891322,-0.85546875,0.07128906,-0.18164062,85.9375,-155.28125,13.71875,0.0,0.0,0.0
1664566891363,-1.0341797,-0.12695312,0.0048828125,63.9375,-132.03125,-13.5,0.0,0.0,0.0
1664566891403,-1.4326172,-0.00390625,0.021484375,43.875,-105.0,-23.03125,0.0,0.0,0.0
1664566891442,-1.1582031,0.11425781,0.28222656,67.1875,-125.375,-5.375,-62.875,20.125,-118.875
1664566891482,-0.8730469,-0.025390625,0.12011719,21.21875,-119.78125,3.46875,0.0,0.0,0.0
1664566891523,-0.6542969,-0.109375,0.0234375,-10.28125,-79.46875,-9.96875,0.0,0.0,0.0
1664566891562,-0.4375,0.111328125,0.13378906,13.09375,-48.46875,-3.25,0.0,0.0,0.0
1664566891603,-0.41015625,0.08984375,0.08691406,25.8125,-15.40625,18.65625,0.0,0.0,0.0
1664566891643,-0.5019531,0.080078125,0.43847656,-22.0625,52.40625,15.5625,0.0,0.0,0.0
1664566891683,-0.76464844,-0.14355469,0.68066406,-29.75,49.84375,2.71875,0.0,0.0,0.0
1664566891723,-1.3339844,-0.14355469,0.5888672,-2.8125,47.46875,-4.71875,0.0,0.0,0.0
1664566891763,-1.2392578,0.24023438,0.9892578,36.96875,-32.84375,2.71875,0.0,0.0,0.0
1664566891803,-1.2939453,0.1953125,0.4404297,15.84375,1.375,6.8125,0.0,0.0,0.0
1664566891842,-1.4638672,0.005859375,0.21289062,10.3125,-3.5,6.9375,0.0,0.0,0.0
1664566891883,-0.4716797,0.048828125,-0.20703125,34.34375,11.15625,0.78125,0.0,0.0,0.0
1664566891923,-1.015625,-0.20996094,-0.013671875,-7.34375,70.59375,0.90625,0.0,0.0,0.0
1664566891963,-1.1689453,-0.12402344,0.14355469,11.40625,98.25,-14.1875,-60.3125,22.375,-116.75
1664566892003,-0.87890625,0.087890625,0.034179688,28.5625,72.8125,-15.15625,0.0,0.0,0.0
1664566892042,-0.6220703,0.20996094,0.109375,-13.625,87.25,-10.15625,0.0,0.0,0.0
1664566892084,-0.76953125,-0.018554688,0.052734375,-45.5625,84.40625,0.0,0.0,0.0,0.0
1664566892123,-0.74609375,-0.07128906,0.04296875,-55.0,96.1875,-11.375,0.0,0.0,0.0
1664566892163,-0.8847656,-0.06738281,0.047851562,-54.53125,98.5,-1.3125,0.0,0.0,0.0
1664566892203,-0.9658203,-0.11425781,0.20996094,-52.4375,79.15625,18.34375,0.0,0.0,0.0
1664566892243,-1.0810547,-0.083984375,0.043945312,-58.5625,58.28125,19.46875,0.0,0.0,0.0
1664566892283,-1.3349609,-0.23046875,0.0048828125,-46.59375,44.59375,3.71875,0.0,0.0,0.0
1664566892342,-1.4179688,-0.11816406,0.16992188,-31.5,3.71875,-8.1875,0.0,0.0,0.0
1664566892364,-1.5712891,-0.021484375,0.03125,-19.5,-24.0,-6.0625,0.0,0.0,0.0
1664566892404,-1.0283203,0.005859375,-0.2861328,37.21875,-116.09375,2.3125,0.0,0.0,0.0
1664566892443,-0.99121094,-0.123046875,-0.15039062,80.5,-142.84375,-10.34375,-61.1875,22.8125,-126.5
1664566892483,-1.5390625,-0.018554688,-0.18847656,59.625,-129.21875,-25.46875,0.0,0.0,0.0
1664566892524,-1.2050781,0.19042969,0.15234375,87.4375,-125.125,-16.625,0.0,0.0,0.0
1664566892563,-0.8701172,0.15429688,0.22363281,58.46875,-119.09375,-3.0,0.0,0.0,0.0
1664566892603,-0.72558594,-0.22070312,0.13378906,27.4375,-90.90625,2.0625,0.0,0.0,0.0
1664566892645,-0.43164062,-0.046875,0.060546875,15.0,-60.5,-14.53125,0.0,0.0,0.0
1664566892683,-0.28027344,0.17578125,0.0546875,33.84375,-16.25,-2.75,0.0,0.0,0.0
1664566892723,-0.4951172,0.072265625,0.25097656,7.8125,33.75,8.90625,0.0,0.0,0.0
1664566892763,-0.6855469,0.11230469,0.5644531,-30.90625,46.5625,0.65625,0.0,0.0,0.0
1664566892803,-1.2304688,-0.009765625,0.53027344,-35.71875,57.84375,6.9375,0.0,0.0,0.0
1664566892843,-1.4433594,-0.19335938,1.0556641,6.09375,-22.65625,-2.6875,0.0,0.0,0.0
1664566892882,-1.1767578,-0.13964844,0.93847656,-28.875,-44.75,-32.0625,0.0,0.0,0.0
1664566892925,-1.4716797,0.026367188,0.23632812,9.5,-19.1875,-21.625,0.0,0.0,0.0
1664566892963,-0.70410156,0.11816406,0.053710938,59.90625,34.03125,-12.71875,-59.5625,23.4375,-113.625
1664566893006,-0.71972656,0.21777344,0.072265625,75.53125,4.75,15.84375,0.0,0.0,0.0
1664566893043,-1.2246094,-0.30859375,-0.07324219,-43.21875,127.4375,-22.0,0.0,0.0,0.0
1664566893083,-1.0214844,0.029296875,0.119140625,-0.5625,77.625,-21.375,0.0,0.0,0.0
1664566893124,-0.7402344,0.13378906,0.08886719,3.65625,79.34375,2.90625,0.0,0.0,0.0
1664566893163,-0.6699219,0.08984375,0.03515625,-28.34375,80.84375,4.5625,0.0,0.0,0.0
1664566893203,-0.81640625,-0.09765625,0.036132812,-56.03125,92.9375,-9.0,0.0,0.0,0.0
1664566893243,-0.8535156,-0.11425781,0.17578125,-63.96875,86.21875,-7.46875,0.0,0.0,0.0
1664566893285,-0.85546875,-0.0625,0.12109375,-58.96875,76.875,9.5,0.0,0.0,0.0
1664566893322,-0.9892578,-0.056640625,0.06738281,-48.0,59.5,22.6875,0.0,0.0,0.0
1664566893364,-1.2324219,-0.13867188,0.028320312,-57.4375,55.09375,13.65625,0.0,0.0,0.0
1664566893404,-1.3623047,-0.25195312,0.087890625,-50.125,21.34375,-8.6875,0.0,0.0,0.0
1664566893443,-1.5673828,-0.20898438,0.09472656,-49.75,-6.53125,-12.53125,-61.9375,22.0625,-129.0625
1664566893483,-1.3544922,-0.091796875,-0.32128906,-5.3125,-71.125,-11.25,0.0,0.0,0.0
1664566893524,-0.80859375,0.051757812,-0.20605469,86.53125,-139.71875,-1.59375,0.0,0.0,0.0
1664566893563,-1.3427734,0.018554688,-0.018554688,81.03125,-113.78125,-15.46875,0.0,0.0,0.0
1664566893603,-1.4550781,0.16503906,-0.0546875,79.5,-106.21875,-12.09375,0.0,0.0,0.0
1664566893642,-1.0693359,0.18847656,0.26171875,71.03125,-119.78125,6.6875,0.0,0.0,0.0
1664566893683,-0.81347656,-0.11621094,0.14941406,41.0,-101.03125,3.21875,0.0,0.0,0.0
1664566893723,-0.5214844,-0.09765625,0.08300781,12.125,-59.78125,-9.40625,0.0,0.0,0.0
1664566893763,-0.34960938,0.076171875,0.068359375,16.46875,-25.34375,0.84375,0.0,0.0,0.0
1664566893803,-0.38867188,0.11816406,0.1171875,7.8125,17.375,13.65625,0.0,0.0,0.0
1664566893842,-0.5800781,0.13964844,0.4326172,-15.28125,44.78125,7.8125,0.0,0.0,0.0
1664566893883,-0.8486328,-0.0029296875,0.57714844,-16.3125,34.28125,3.90625,0.0,0.0,0.0
1664566893923,-1.3291016,0.0126953125,0.69140625,-16.8125,60.21875,-8.375,0.0,0.0,0.0
1664566893962,-1.3544922,-0.0107421875,1.0576172,-10.75,-37.125,-8.5625,-60.125,26.4375,-117.1875
1664566894003,-1.2714844,-0.03125,0.51171875,-21.0,-49.5625,-21.625,0.0,0.0,0.0
1664566894043,-1.3398438,-0.052734375,-0.01953125,37.40625,-2.28125,-1.96875,0.0,0.0,0.0
1664566894082,-0.71972656,0.23925781,-0.01171875,56.0625,29.78125,-10.5625,0.0,0.0,0.0
1664566894123,-1.0009766,-0.051757812,0.0625,46.625,22.75,10.84375,0.0,0.0,0.0
1664566894163,-1.0800781,-0.22363281,0.0068359375,-45.4375,104.78125,-42.5,0.0,0.0,0.0
1664566894203,-0.8408203,0.17382812,0.026367188,12.75,61.09375,-16.8125,0.0,0.0,0.0
1664566894242,-0.6298828,0.1640625,-0.032226562,-5.875,89.40625,-0.6875,0.0,0.0,0.0
1664566894283,-0.7548828,0.0048828125,0.045898438,-53.1875,96.59375,4.3125,0.0,0.0,0.0
1664566894323,-0.94140625,-0.19335938,0.026367188,-81.4375,96.96875,-17.78125,0.0,0.0,0.0
1664566894363,-0.88964844,-0.091796875,0.13476562,-72.9375,79.28125,-8.25,0.0,0.0,0.0
1664566894404,-0.875,-0.06347656,0.13867188,-68.875,66.5,17.75,0.0,0.0,0.0
1664566894443,-1.0673828,-0.107421875,0.0107421875,-61.40625,53.5625,23.96875,-62.25,22.8125,-128.625
1664566894483,-1.2421875,-0.20703125,0.0,-48.40625,31.40625,11.03125,0.0,0.0,0.0
1664566894523,-1.3574219,-0.16113281,0.22460938,-50.3125,2.84375,-8.4375,0.0,0.0,0.0
1664566894563,-1.5888672,-0.12890625,0.05078125,-40.1875,-14.25,-13.0625,0.0,0.0,0.0
1664566894603,-1.1630859,-0.109375,-0.2939453,31.78125,-106.46875,-3.75,0.0,0.0,0.0
1664566894644,-0.9267578,-0.0068359375,-0.20410156,99.15625,-148.5,-12.84375,0.0,0.0,0.0
1664566894683,-1.4970703,0.030273438,-0.14746094,72.6875,-111.59375,-20.65625,0.0,0.0,0.0
1664566894724,-1.2666016,0.171875,0.14941406,97.875,-112.5,-6.1875,0.0,0.0,0.0
1664566894763,-0.9316406,0.08496094,0.22851562,60.15625,-115.125,-3.5625,0.0,0.0,0.0
1664566894804,-0.7294922,-0.15332031,0.1640625,21.21875,-78.9375,-6.90625,0.0,0.0,0.0
1664566894846,-0.39746094,-0.07714844,0.083984375,12.125,-59.84375,-3.4375,0.0,0.0,0.0
1664566894887,-0.2861328,0.07910156,0.06640625,28.125,-26.125,7.0,0.0,0.0,0.0
1664566894923,-0.4501953,0.076171875,0.24023438,12.1875,30.3125,15.0625,0.0,0.0,0.0
1664566894963,-0.703125,0.05078125,0.51464844,-22.21875,41.0625,7.25,-57.0,27.0625,-113.625
1664566895003,-1.0957031,-0.022460938,0.5205078,-29.875,45.34375,-2.15625,0.0,0.0,0.0
1664566895043,-1.4052734,-0.03515625,0.90625,16.78125,6.6875,-1.65625,0.0,0.0,0.0
1664566895083,-1.2724609,-0.076171875,1.0351562,-10.34375,-23.625,-15.46875,0.0,0.0,0.0
1664566895123,-1.3388672,0.072265625,0.35058594,-25.65625,-43.03125,-20.84375,0.0,0.0,0.0
1664566895164,-1.1152344,-0.09667969,-0.2685547,24.875,33.5,4.1875,0.0,0.0,0.0
1664566895203,-0.5810547,0.3701172,0.099609375,63.59375,20.0625,10.25,0.0,0.0,0.0
1664566895244,-1.2041016,-0.39257812,-0.15527344,15.5,72.6875,4.5625,0.0,0.0,0.0
1664566895283,-1.0224609,0.0068359375,0.16796875,2.65625,106.5,-46.65625,0.0,0.0,0.0
1664566895323,-0.7480469,0.17285156,0.051757812,34.53125,56.9375,-3.625,0.0,0.0,0.0
1664566895363,-0.6308594,0.17480469,0.07324219,-3.125,78.53125,0.0,0.0,0.0,0.0
1664566895403,-0.84375,-0.12207031,0.048828125,-51.15625,77.5625,-11.4375,0.0,0.0,0.0
1664566895443,-0.8095703,-0.10546875,0.12011719,-58.0,83.3125,-14.3125,-61.9375,24.625,-125.4375
1664566895483,-0.83496094,-0.04296875,0.13476562,-55.75,78.34375,6.8125,0.0,0.0,0.0
1664566895523,-0.9160156,-0.06347656,0.06347656,-61.21875,74.21875,27.4375,0.0,0.0,0.0
1664566895564,-1.2070312,-0.14746094,-0.026367188,-57.75,61.1875,11.9375,0.0,0.0,0.0
1664566895603,-1.3115234,-0.23046875,0.14648438,-48.84375,29.71875,10.59375,0.0,0.0,0.0
1664566895643,-1.5673828,-0.20019531,0.15917969,-58.0625,4.3125,-2.46875,0.0,0.0,0.0
1664566895683,-1.5078125,-0.1484375,-0.26953125,-35.0,-45.375,-11.3125,0.0,0.0,0.0
1664566895723,-0.7871094,0.03515625,-0.18457031,66.09375,-113.0625,0.40625,0.0,0.0,0.0
1664566895763,-1.2695312,-0.09863281,-0.0107421875,55.15625,-79.46875,-22.65625,0.0,0.0,0.0
1664566895806,-1.625,0.24121094,-0.19042969,46.75,-100.46875,-47.8125,0.0,0.0,0.0
1664566895845,-1.0371094,0.10546875,0.19335938,44.90625,-100.46875,-27.96875,0.0,0.0,0.0
1664566895883,-0.8095703,-0.16699219,0.107421875,-8.125,-109.8125,-16.8125,0.0,0.0,0.0
1664566895924,-0.5810547,-0.2529297,-0.06933594,1.6875,-85.40625,-16.875,0.0,0.0,0.0
1664566895963,-0.37890625,0.029296875,0.043945312,26.21875,-31.15625,-15.59375,-61.9375,23.3125,-113.125
1664566896003,-0.35351562,0.12597656,0.10839844,44.125,8.03125,4.6875,0.0,0.0,0.0
1664566896043,-0.54785156,-0.016601562,0.3076172,7.5,40.5625,12.1875,0.0,0.0,0.0
1664566896083,-0.81640625,-0.08203125,0.47070312,-14.53125,21.90625,4.3125,0.0,0.0,0.0
1664566896125,-1.5566406,-0.041015625,0.62597656,21.09375,59.0,14.8125,0.0,0.0,0.0
1664566896163,-1.2636719,-0.2421875,0.9433594,47.46875,-63.0625,-5.375,0.0,0.0,0.0
1664566896203,-1.4355469,-0.29785156,0.76464844,-16.4375,-52.75,-38.78125,0.0,0.0,0.0
1664566896243,-1.4960938,-0.02734375,-0.23828125,21.15625,1.3125,-21.75,0.0,0.0,0.0
1664566896283,-0.62597656,0.3466797,0.047851562,96.34375,40.75,1.3125,0.0,0.0,0.0
1664566896323,-1.0556641,-0.051757812,0.12011719,76.8125,-1.90625,34.78125,0.0,0.0,0.0
1664566896362,-1.0898438,-0.21777344,-0.09375,-56.0,130.78125,-53.71875,0.0,0.0,0.0
1664566896403,-0.70410156,0.21191406,0.11621094,7.6875,63.9375,-12.71875,0.0,0.0,0.0
1664566896443,-0.7285156,0.11816406,0.0107421875,-11.375,86.40625,16.65625,-63.75,23.3125,-120.625
1664566896483,-0.75683594,-0.14550781,0.053710938,-36.9375,96.25,-1.65625,0.0,0.0,0.0
1664566896523,-0.8339844,-0.17578125,0.07421875,-42.5625,91.46875,-14.1875,0.0,0.0,0.0
1664566896563,-0.8642578,-0.09082031,0.095703125,-42.3125,62.4375,-0.875,0.0,0.0,0.0
1664566896603,-0.859375,-0.038085938,0.076171875,-46.46875,44.71875,22.1875,0.0,0.0,0.0
1664566896643,-1.1416016,-0.068359375,0.09863281,-66.3125,46.75,25.375,0.0,0.0,0.0
1664566896683,-1.2841797,-0.2890625,0.03125,-51.09375,33.125,-0.4375,0.0,0.0,0.0
1664566896725,-1.4257812,-0.19238281,0.095703125,-55.125,10.65625,-6.78125,0.0,0.0,0.0
1664566896764,-1.5146484,-0.13574219,-0.0029296875,-37.375,-20.59375,-14.71875,0.0,0.0,0.0
1664566896803,-1.0136719,0.0107421875,-0.13085938,41.625,-115.5625,-1.84375,0.0,0.0,0.0
1664566896843,-1.0742188,-0.034179688,-0.10058594,81.21875,-126.71875,-22.15625,0.0,0.0,0.0
1664566896883,-1.5478516,0.11230469,-0.14355469,12.5625,-96.03125,-25.03125,0.0,0.0,0.0
1664566896923,-1.2890625,0.13183594,0.12402344,57.78125,-110.25,-10.9375,0.0,0.0,0.0
1664566896963,-0.85253906,-0.040039062,0.1796875,28.4375,-123.90625,6.46875,-62.125,23.75,-117.8125
1664566897006,-0.6230469,-0.21191406,0.06933594,-0.625,-108.09375,-1.46875,0.0,0.0,0.0
1664566897044,-0.43359375,-0.005859375,0.10839844,-4.46875,-71.71875,6.03125,0.0,0.0,0.0
1664566897083,-0.34472656,0.06347656,0.12109375,16.34375,-29.96875,21.65625,0.0,0.0,0.0
1664566897124,-0.4814453,9.765625E-4,0.20800781,-5.6875,40.28125,21.90625,0.0,0.0,0.0
1664566897163,-0.58496094,0.0078125,0.6347656,-30.96875,78.96875,3.90625,0.0,0.0,0.0
1664566897203,-1.2011719,-0.12402344,0.57128906,-47.75,42.71875,-1.1875,0.0,0.0,0.0
1664566897243,-1.4619141,0.055664062,1.0898438,37.65625,28.25,13.65625,0.0,0.0,0.0
1664566897283,-1.2167969,-0.18652344,1.015625,-15.34375,-42.0625,-6.78125,0.0,0.0,0.0
1664566897323,-1.265625,0.061523438,0.3076172,-35.65625,-17.90625,-22.84375,0.0,0.0,0.0
1664566897366,-0.99902344,-0.1640625,-0.27246094,39.84375,38.0,-0.25,0.0,0.0,0.0
1664566897403,-0.75878906,0.3876953,0.28710938,68.28125,35.375,17.75,0.0,0.0,0.0
1664566897443,-1.203125,-0.33007812,-0.20410156,4.125,59.1875,8.03125,-59.25,23.0,-113.3125
1664566897483,-0.96484375,9.765625E-4,0.19726562,-0.4375,99.65625,-35.65625,0.0,0.0,0.0
1664566897524,-0.6152344,0.18945312,0.046875,-6.71875,56.3125,-6.90625,0.0,0.0,0.0
1664566897563,-0.7363281,-0.037109375,0.064453125,-24.4375,83.34375,-3.0625,0.0,0.0,0.0
1664566897605,-0.76660156,-0.12402344,0.059570312,-52.4375,90.875,-16.5,0.0,0.0,0.0
1664566897643,-0.8984375,-0.12890625,0.11816406,-46.84375,89.09375,-5.09375,0.0,0.0,0.0
1664566897683,-0.8642578,-0.080078125,0.08300781,-28.15625,72.96875,21.28125,0.0,0.0,0.0
1664566897726,-0.9560547,-0.078125,0.029296875,-47.6875,61.09375,38.0625,0.0,0.0,0.0
1664566897763,-1.2529297,-0.17480469,0.024414062,-62.5625,47.59375,17.1875,0.0,0.0,0.0
1664566897803,-1.4033203,-0.30273438,0.14257812,-55.0,15.0,-0.3125,0.0,0.0,0.0
1664566897843,-1.5429688,-0.24414062,0.037109375,-34.5625,-3.0625,-7.03125,0.0,0.0,0.0
1664566897883,-1.2783203,-0.055664062,-0.30664062,9.875,-82.84375,-9.96875,0.0,0.0,0.0
1664566897923,-0.81640625,0.10546875,-0.15722656,94.59375,-139.46875,-9.34375,0.0,0.0,0.0
1664566897966,-1.3105469,-0.026367188,-0.059570312,30.6875,-96.625,-30.78125,-64.0625,21.8125,-120.0625
1664566898003,-1.6132812,0.12890625,-0.08300781,31.53125,-108.21875,-22.125,0.0,0.0,0.0
1664566898043,-1.0664062,0.109375,0.27734375,49.375,-117.75,-14.46875,0.0,0.0,0.0
1664566898083,-0.7285156,-0.19042969,0.11425781,0.59375,-123.375,-12.71875,0.0,0.0,0.0
1664566898123,-0.5341797,-0.140625,0.06640625,4.625,-78.6875,-11.375,0.0,0.0,0.0
1664566898163,-0.39648438,0.07324219,0.095703125,35.09375,-40.125,2.1875,0.0,0.0,0.0
1664566898203,-0.375,0.0107421875,0.13085938,27.5625,8.71875,17.0625,0.0,0.0,0.0
1664566898243,-0.54785156,0.033203125,0.37695312,-10.6875,60.84375,14.8125,0.0,0.0,0.0
1664566898285,-0.8955078,-0.07910156,0.5800781,-33.84375,49.46875,8.03125,0.0,0.0,0.0
1664566898325,-1.4189453,-0.09375,0.86035156,19.5625,57.96875,16.53125,0.0,0.0,0.0
1664566898363,-1.2949219,-0.24902344,0.93847656,-16.8125,-29.5625,-12.65625,0.0,0.0,0.0
1664566898403,-1.3496094,-0.12988281,0.65527344,-32.90625,-28.34375,-30.21875,0.0,0.0,0.0
1664566898443,-1.2314453,-0.051757812,-0.2578125,11.15625,13.71875,-9.71875,-61.1875,21.0625,-110.3125
1664566898483,-0.61328125,0.29101562,0.045898438,81.78125,39.40625,-1.78125,0.0,0.0,0.0
1664566898523,-1.0410156,-0.021484375,0.21289062,85.875,0.03125,50.15625,0.0,0.0,0.0
1664566898564,-1.1796875,-0.24902344,-0.18164062,-49.9375,105.03125,-32.90625,0.0,0.0,0.0
1664566898605,-0.7734375,0.13378906,0.3095703,7.5,69.0,-20.59375,0.0,0.0,0.0
1664566898646,-0.6171875,0.068359375,-0.043945312,-2.59375,78.40625,8.03125,0.0,0.0,0.0
1664566898683,-0.76660156,-0.07128906,0.11816406,-8.625,87.09375,4.6875,0.0,0.0,0.0
1664566898722,-0.85253906,-0.13085938,0.078125,-32.1875,77.1875,-2.6875,0.0,0.0,0.0
1664566898763,-0.8652344,-0.07910156,0.15039062,-29.0,84.34375,12.375,0.0,0.0,0.0
1664566898803,-0.82421875,-0.07910156,0.119140625,-34.3125,67.5625,33.1875,0.0,0.0,0.0
1664566898843,-1.2070312,-0.06933594,0.11328125,-48.0,57.34375,27.5625,0.0,0.0,0.0
1664566898884,-1.3466797,-0.29785156,0.14648438,-41.75,32.46875,9.8125,0.0,0.0,0.0
1664566898924,-1.5,-0.22460938,0.07421875,-48.90625,1.5,-6.96875,0.0,0.0,0.0
1664566898963,-1.4882812,-0.018554688,-0.10644531,-18.4375,-45.3125,-17.28125,-62.375,23.0,-127.125
1664566899003,-0.8798828,0.11816406,-0.15625,66.625,-119.71875,-18.03125,0.0,0.0,0.0
1664566899043,-1.3642578,0.072265625,0.00390625,58.09375,-112.625,-38.21875,0.0,0.0,0.0
1664566899082,-1.5488281,0.18847656,-0.06542969,8.96875,-111.96875,-30.34375,0.0,0.0,0.0
1664566899123,-1.140625,0.11816406,0.22070312,28.90625,-127.59375,-18.4375,0.0,0.0,0.0
1664566899163,-0.80859375,-0.1484375,0.21875,-9.34375,-142.78125,1.4375,0.0,0.0,0.0
1664566899203,-0.6152344,-0.15234375,0.048828125,-16.5625,-95.40625,-11.3125,0.0,0.0,0.0
1664566899244,-0.3876953,0.07421875,0.10253906,5.40625,-41.15625,-0.9375,0.0,0.0,0.0
1664566899283,-0.3544922,0.052734375,0.08203125,21.90625,-0.625,18.28125,0.0,0.0,0.0
1664566899323,-0.50097656,0.06347656,0.38964844,-1.71875,51.3125,16.15625,0.0,0.0,0.0
1664566899363,-0.77734375,-0.08886719,0.76660156,-24.78125,40.4375,12.0625,0.0,0.0,0.0
1664566899404,-1.4003906,-0.115234375,0.5683594,-13.9375,38.75,1.75,0.0,0.0,0.0
1664566899442,-1.1757812,-0.1640625,1.1455078,5.96875,-12.65625,-15.03125,-58.625,23.5625,-113.125
1664566899483,-1.2978516,-0.14355469,0.78125,-40.0,-26.75,-30.03125,0.0,0.0,0.0
1664566899523,-1.3339844,0.0087890625,-0.140625,19.03125,15.84375,-12.71875,0.0,0.0,0.0
1664566899563,-0.6933594,0.18554688,0.09765625,97.21875,25.4375,0.34375,0.0,0.0,0.0
1664566899603,-1.0917969,-0.047851562,0.08496094,35.15625,22.8125,19.53125,0.0,0.0,0.0
1664566899643,-1.1074219,-0.1875,-0.013671875,-45.1875,111.3125,-29.3125,0.0,0.0,0.0
1664566899683,-0.62597656,0.14257812,0.018554688,-6.84375,82.4375,-10.5,0.0,0.0,0.0
1664566899843,-0.6855469,0.24707031,0.10546875,11.40625,93.90625,24.875,0.0,0.0,0.0
1664566899845,-0.78125,-0.11621094,0.01171875,-28.6875,84.21875,12.75,0.0,0.0,0.0
1664566899848,-0.8925781,-0.1640625,0.13574219,-54.03125,91.0625,-1.59375,0.0,0.0,0.0
1664566899849,-0.9121094,-0.09277344,0.16796875,-36.09375,68.46875,13.53125,0.0,0.0,0.0
1664566899886,-0.8642578,-0.07421875,0.13476562,-32.25,56.1875,33.25,0.0,0.0,0.0
1664566899923,-1.1123047,-0.10839844,0.07714844,-36.9375,66.09375,32.53125,0.0,0.0,0.0
1664566899963,-1.3681641,-0.30371094,0.07714844,-29.875,37.40625,11.9375,-63.125,22.375,-125.3125
1664566900003,-1.4648438,-0.11035156,0.2265625,-43.03125,0.28125,-4.78125,0.0,0.0,0.0
1664566900043,-1.5019531,-0.109375,0.13769531,-28.65625,-33.875,-14.3125,0.0,0.0,0.0
1664566900083,-0.9628906,0.021484375,-0.2626953,58.75,-138.4375,-4.78125,0.0,0.0,0.0
1664566900123,-1.1699219,0.017578125,-0.09277344,78.71875,-130.8125,-28.28125,0.0,0.0,0.0
1664566900203,-1.5810547,0.14941406,0.001953125,-7.09375,-98.59375,-34.5,0.0,0.0,0.0
1664566900204,-1.2539062,0.15136719,0.20507812,2.5,-108.53125,-21.8125,0.0,0.0,0.0
1664566900304,-0.80078125,-0.037109375,0.09667969,-10.09375,-121.59375,-7.59375,0.0,0.0,0.0
1664566900307,-0.55859375,-0.17089844,9.765625E-4,-15.15625,-91.875,-10.09375,0.0,0.0,0.0
1664566900323,-0.43164062,-0.016601562,0.15039062,-5.375,-30.34375,-20.65625,0.0,0.0,0.0
1664566900363,-0.4375,0.015625,0.11425781,26.65625,-2.28125,6.8125,0.0,0.0,0.0
1664566900404,-0.52246094,0.0107421875,0.21875,6.03125,49.0625,9.9375,0.0,0.0,0.0
1664566900443,-0.6767578,-0.0107421875,0.6328125,-17.46875,68.09375,10.90625,-58.375,22.0625,-109.5625
1664566900482,-1.1435547,-0.13085938,0.546875,-20.84375,41.1875,7.25,0.0,0.0,0.0
1664566900523,-1.5,-0.18652344,0.8955078,61.5,19.15625,0.53125,0.0,0.0,0.0
1664566900563,-1.5107422,-0.18164062,1.0068359,0.21875,-34.4375,-23.15625,0.0,0.0,0.0
1664566900604,-1.2988281,0.0087890625,0.2109375,5.46875,-22.28125,-22.125,0.0,0.0,0.0
1664566900643,-0.8017578,-0.140625,-0.20996094,58.34375,38.0,-6.0,0.0,0.0,0.0
1664566900683,-0.7392578,0.40527344,0.14648438,103.125,-6.125,33.3125,0.0,0.0,0.0
1664566900723,-1.1425781,-0.20214844,-0.20019531,-18.5,105.875,-1.59375,0.0,0.0,0.0
1664566900764,-0.9501953,0.0,0.234375,30.125,82.125,-21.6875,0.0,0.0,0.0
1664566900803,-0.6279297,0.09472656,-0.051757812,-6.84375,62.53125,-8.25,0.0,0.0,0.0
1664566900844,-0.75,-0.05078125,0.07324219,-33.15625,88.4375,-1.125,0.0,0.0,0.0
1664566900885,-0.8779297,-0.07324219,0.06933594,-37.0625,83.71875,-0.75,0.0,0.0,0.0
1664566900923,-0.8574219,-0.08691406,0.11816406,-32.125,77.875,13.0,0.0,0.0,0.0
1664566900963,-0.8183594,-0.048828125,0.12695312,-33.9375,78.28125,24.71875,-64.1875,21.1875,-126.8125
1664566901003,-1.0400391,-0.06347656,9.765625E-4,-69.46875,62.65625,23.90625,0.0,0.0,0.0
1664566901043,-1.3222656,-0.1875,0.08105469,-62.21875,38.5,11.40625,0.0,0.0,0.0
1664566901084,-1.3798828,-0.14550781,0.15625,-40.1875,19.28125,-1.65625,0.0,0.0,0.0
1664566901125,-1.6171875,-0.12109375,0.10253906,-32.5625,-14.1875,-11.5625,0.0,0.0,0.0
1664566901166,-1.203125,0.018554688,-0.21777344,7.5,-108.53125,-14.34375,0.0,0.0,0.0
1664566901203,-1.0019531,-0.028320312,-0.16210938,78.65625,-124.09375,-30.03125,0.0,0.0,0.0
1664566901243,-1.3691406,0.119140625,-0.1171875,32.15625,-92.90625,-25.40625,0.0,0.0,0.0
1664566901283,-1.3779297,0.20214844,0.10644531,55.71875,-110.0625,-11.4375,0.0,0.0,0.0
1664566901323,-0.875,-0.057617188,0.10449219,6.9375,-142.15625,-1.0625,0.0,0.0,0.0
1664566901363,-0.6582031,-0.22753906,0.07421875,-13.4375,-135.21875,1.5625,0.0,0.0,0.0
1664566901403,-0.52734375,-0.07519531,0.10546875,0.21875,-77.46875,4.0,0.0,0.0,0.0
1664566901443,-0.37402344,0.057617188,0.076171875,39.78125,-26.3125,15.625,-57.625,23.3125,-108.625
1664566901483,-0.44140625,0.11425781,0.23828125,23.25,45.75,14.15625,0.0,0.0,0.0
1664566901523,-0.6074219,0.013671875,0.5957031,-19.1875,63.8125,2.375,0.0,0.0,0.0
1664566901563,-1.1152344,-0.20410156,0.60253906,-36.75,50.9375,-10.8125,0.0,0.0,0.0
1664566901603,-1.34375,-0.059570312,1.0039062,49.4375,-6.4375,-3.125,0.0,0.0,0.0
1664566901643,-1.2626953,-0.21679688,1.1103516,-14.78125,-40.375,-23.625,0.0,0.0,0.0
1664566901684,-1.5029297,0.16796875,0.13183594,-14.1875,-10.5,-20.46875,0.0,0.0,0.0
1664566901724,-0.89941406,-0.09472656,-0.17773438,56.875,27.875,-4.09375,0.0,0.0,0.0
1664566901763,-0.75683594,0.34179688,0.34179688,86.90625,-11.84375,24.46875,0.0,0.0,0.0
1664566901805,-1.1689453,-0.18652344,-0.2265625,-42.375,92.625,2.71875,0.0,0.0,0.0
1664566901843,-0.9140625,0.005859375,0.29785156,-20.09375,84.8125,-22.78125,0.0,0.0,0.0
1664566901883,-0.640625,0.038085938,-0.005859375,-23.34375,99.34375,-3.0,0.0,0.0,0.0
1664566901924,-0.71484375,-0.044921875,0.10839844,-20.78125,87.03125,3.46875,0.0,0.0,0.0
1664566901963,-0.7783203,-0.0859375,0.08105469,-22.0625,86.84375,-1.53125,-62.6875,19.25,-118.5625
1664566902004,-0.8457031,-0.12988281,0.17285156,-24.5,90.3125,8.34375,0.0,0.0,0.0
1664566902046,-0.8486328,-0.033203125,0.10644531,-22.34375,70.59375,22.5625,0.0,0.0,0.0
1664566902085,-1.0908203,-0.025390625,0.0029296875,-40.65625,64.375,24.65625,0.0,0.0,0.0
1664566902123,-1.3603516,-0.14648438,0.10058594,-42.5,40.09375,6.5625,0.0,0.0,0.0
1664566902163,-1.3466797,-0.15820312,0.18359375,-61.96875,10.3125,-1.34375,0.0,0.0,0.0
1664566902202,-1.4501953,-0.099609375,0.05078125,-42.4375,-18.8125,-9.125,0.0,0.0,0.0
1664566902243,-1.1699219,-0.20117188,-0.2890625,12.1875,-87.1875,-9.53125,0.0,0.0,0.0
1664566902283,-1.2509766,-0.037109375,-0.119140625,51.875,-104.3125,-57.3125,0.0,0.0,0.0
1664566902323,-1.4677734,0.24023438,-0.15039062,30.5,-96.03125,-58.125,0.0,0.0,0.0
1664566902363,-1.1777344,0.2841797,0.11328125,42.53125,-93.75,-19.78125,0.0,0.0,0.0
1664566902403,-0.95214844,-0.078125,0.08105469,13.90625,-109.34375,-19.4375,0.0,0.0,0.0
1664566902443,-0.69433594,-0.20214844,0.10839844,16.46875,-95.59375,-14.0625,-60.625,17.3125,-111.8125
1664566902483,-0.5888672,0.0029296875,0.14648438,39.40625,-76.90625,-1.25,0.0,0.0,0.0
1664566902503,-0.5136719,0.0107421875,0.08496094,45.75,-42.96875,25.5,0.0,0.0,0.0
1664566902563,-0.4970703,0.01171875,0.18164062,9.9375,24.34375,18.71875,0.0,0.0,0.0
1664566902583,-0.49902344,-0.0146484375,0.43652344,-0.375,68.96875,11.71875,0.0,0.0,0.0
1664566902623,-0.875,-0.2265625,0.5205078,-7.46875,33.3125,13.15625,0.0,0.0,0.0
1664566902664,-1.5380859,-0.12207031,0.7236328,36.59375,59.1875,0.0,0.0,0.0,0.0
1664566902703,-1.1367188,-0.0546875,1.1347656,-23.21875,-52.09375,-17.46875,0.0,0.0,0.0
1664566902743,-1.3417969,-0.009765625,0.16894531,-37.0625,-49.625,-15.28125,0.0,0.0,0.0
1664566902786,-1.2783203,-0.05859375,0.13769531,20.0,24.8125,7.375,0.0,0.0,0.0
1664566902826,-0.7109375,0.17089844,-0.091796875,33.5625,20.75,3.59375,0.0,0.0,0.0
1664566902883,-1.0126953,-0.16308594,-0.09472656,61.5625,32.21875,19.34375,0.0,0.0,0.0
1664566902903,-1.0234375,-0.07324219,0.09863281,-1.78125,96.65625,-26.0625,0.0,0.0,0.0
1664566902963,-0.71484375,0.10644531,0.10449219,15.65625,62.65625,-14.71875,-59.125,22.0625,-117.1875
1664566902983,-0.6923828,0.076171875,0.00390625,1.8125,98.0,2.5,0.0,0.0,0.0
1664566903024,-0.8769531,-0.07714844,0.15234375,-11.25,80.375,0.65625,0.0,0.0,0.0
1664566903063,-0.80859375,-0.0703125,0.072265625,-20.21875,71.53125,2.125,0.0,0.0,0.0
1664566903103,-0.82128906,-0.091796875,0.05859375,-22.84375,75.4375,11.53125,0.0,0.0,0.0
1664566903143,-0.91308594,-0.06640625,0.18066406,-44.21875,73.15625,23.53125,0.0,0.0,0.0
1664566903183,-1.2753906,-0.041015625,0.07324219,-39.3125,69.625,26.21875,0.0,0.0,0.0
1664566903222,-1.3398438,-0.3408203,0.12109375,-32.25,33.4375,14.9375,0.0,0.0,0.0
1664566903263,-1.4892578,-0.203125,0.19140625,-44.5,0.46875,-12.34375,0.0,0.0,0.0
1664566903303,-1.4042969,-0.05859375,-0.15527344,-30.28125,-60.1875,-14.53125,0.0,0.0,0.0
1664566903343,-0.7636719,0.036132812,-0.12011719,75.0,-128.96875,-20.03125,0.0,0.0,0.0
1664566903383,-1.3955078,0.0625,-0.0107421875,52.90625,-106.71875,-51.65625,0.0,0.0,0.0
1664566903443,-1.5810547,0.21289062,-0.13867188,23.59375,-101.21875,-43.59375,-61.1875,20.3125,-121.125
1664566903463,-1.1347656,0.09472656,0.22167969,23.25,-115.1875,-29.96875,0.0,0.0,0.0
1664566903504,-0.8183594,-0.171875,0.12207031,-0.1875,-139.53125,-23.03125,0.0,0.0,0.0
1664566903543,-0.49316406,-0.16699219,-0.034179688,-19.3125,-76.5,-13.125,0.0,0.0,0.0
1664566903644,-0.36523438,0.0390625,0.14648438,10.84375,-30.40625,6.6875,0.0,0.0,0.0
1664566903647,-0.42578125,0.04296875,0.078125,32.28125,6.46875,28.375,0.0,0.0,0.0
1664566903662,-0.5341797,0.017578125,0.3203125,9.8125,77.0625,20.5625,0.0,0.0,0.0
1664566903703,-0.7705078,-0.13867188,0.7470703,-8.75,69.125,9.375,0.0,0.0,0.0
1664566903744,-1.5576172,-0.064453125,0.26660156,-39.375,35.375,10.59375,0.0,0.0,0.0
1664566903784,-1.2412109,0.00390625,1.1826172,37.34375,-7.03125,-7.59375,0.0,0.0,0.0
1664566903823,-1.4658203,-0.19433594,0.6308594,-42.125,-55.25,-20.15625,0.0,0.0,0.0
1664566903863,-1.3017578,0.0390625,0.030273438,21.84375,-8.6875,-14.59375,0.0,0.0,0.0
1664566903903,-0.78808594,-0.0390625,-0.08300781,57.71875,18.90625,-0.3125,0.0,0.0,0.0
1664566903965,-0.9404297,0.0546875,0.016601562,107.71875,15.1875,28.1875,-58.625,16.0625,-115.5625
1664566903983,-1.1201172,-0.13476562,-0.13378906,2.90625,103.875,-13.125,0.0,0.0,0.0
1664566904024,-0.8955078,0.10839844,0.19238281,-6.96875,72.96875,-21.4375,0.0,0.0,0.0
1664566904063,-0.671875,0.099609375,-0.0087890625,-12.46875,64.9375,0.34375,0.0,0.0,0.0
1664566904103,-0.84472656,-0.07910156,0.095703125,-29.1875,88.375,3.21875,0.0,0.0,0.0
1664566904143,-0.8310547,-0.17089844,0.14355469,-55.1875,75.84375,3.90625,0.0,0.0,0.0
1664566904183,-0.8515625,-0.13769531,0.13378906,-37.75,76.15625,12.625,0.0,0.0,0.0
1664566904223,-0.8779297,-0.053710938,0.1796875,-25.09375,79.5,26.34375,0.0,0.0,0.0
1664566904264,-1.0771484,-0.064453125,-0.022460938,-45.96875,60.96875,24.46875,0.0,0.0,0.0
1664566904303,-1.28125,-0.16601562,-0.020507812,-38.40625,28.0625,13.71875,0.0,0.0,0.0
1664566904343,-1.4082031,-0.10058594,0.20996094,-51.09375,13.53125,-4.65625,0.0,0.0,0.0
1664566904403,-1.5996094,-0.14941406,0.1328125,-38.21875,-18.625,-10.875,0.0,0.0,0.0
1664566904444,-1.1982422,-0.11621094,-0.12890625,22.8125,-109.28125,-5.21875,-63.0,16.8125,-122.75
1664566904463,-0.98535156,-0.08984375,-0.17480469,68.78125,-127.15625,-39.03125,0.0,0.0,0.0
1664566904502,-1.4707031,0.13476562,-0.06640625,36.125,-102.5,-51.96875,0.0,0.0,0.0
1664566904544,-1.2392578,0.12792969,0.001953125,45.21875,-97.5,-21.625,0.0,0.0,0.0
1664566904583,-0.8720703,0.0087890625,0.10253906,34.46875,-94.3125,-28.59375,0.0,0.0,0.0
1664566904623,-0.5703125,-0.15917969,0.09667969,23.96875,-89.625,-17.28125,0.0,0.0,0.0
1664566904663,-0.55859375,-0.11621094,0.078125,22.3125,-56.71875,-16.6875,0.0,0.0,0.0
1664566904703,-0.40820312,0.087890625,0.0546875,41.65625,-17.96875,1.3125,0.0,0.0,0.0
1664566904743,-0.4404297,0.06347656,0.25976562,11.9375,37.15625,15.84375,0.0,0.0,0.0
1664566904784,-0.7167969,-0.01953125,0.5185547,-11.5625,47.28125,15.96875,0.0,0.0,0.0
1664566904823,-0.93066406,-0.17089844,0.49902344,-24.96875,42.53125,9.5,0.0,0.0,0.0
1664566904863,-1.4433594,-0.23242188,0.75097656,60.53125,29.40625,9.9375,0.0,0.0,0.0
1664566904903,-1.2646484,-0.21679688,1.109375,-12.40625,-16.375,-17.65625,0.0,0.0,0.0
1664566904963,-1.3173828,0.055664062,0.06347656,-45.78125,-25.53125,-24.75,-61.1875,19.6875,-110.625
1664566904983,-1.1875,0.005859375,-0.33496094,53.21875,47.59375,14.21875,0.0,0.0,0.0
1664566905024,-0.66308594,0.38378906,0.15820312,75.125,-25.09375,33.0,0.0,0.0,0.0
1664566905063,-1.1455078,-0.29296875,-0.20214844,14.09375,31.90625,19.46875,0.0,0.0,0.0
1664566905106,-1.0292969,-0.024414062,0.19921875,11.28125,102.15625,-42.125,0.0,0.0,0.0
1664566905165,-0.82128906,0.21386719,0.024414062,3.90625,59.96875,-7.40625,0.0,0.0,0.0
1664566905183,-0.6982422,0.13085938,0.07324219,9.03125,80.90625,3.90625,0.0,0.0,0.0
1664566905224,-0.6982422,-0.059570312,0.045898438,-31.9375,85.4375,-1.65625,0.0,0.0,0.0
1664566905263,-0.83496094,-0.064453125,0.1171875,-49.46875,84.875,3.71875,0.0,0.0,0.0
1664566905303,-0.9042969,-0.080078125,0.16015625,-44.09375,76.8125,21.96875,0.0,0.0,0.0
1664566905344,-0.95703125,-0.06738281,0.11230469,-48.84375,55.46875,27.09375,0.0,0.0,0.0
1664566905385,-1.2783203,-0.13671875,0.055664062,-56.0,44.84375,16.40625,0.0,0.0,0.0
1664566905443,-1.3818359,-0.16210938,0.14648438,-55.5,22.75,2.0625,-62.375,21.625,-126.8125
1664566905463,-1.5136719,-0.16113281,0.17578125,-57.75,-3.25,-6.59375,0.0,0.0,0.0
1664566905503,-1.2402344,-0.18457031,-0.27539062,-23.5,-71.0,-6.3125,0.0,0.0,0.0
1664566905543,-0.87597656,0.10546875,-0.08105469,61.5,-121.71875,-22.59375,0.0,0.0,0.0
1664566905603,-1.3007812,0.1015625,0.044921875,29.21875,-95.09375,-40.96875,0.0,0.0,0.0
1664566905624,-1.4941406,0.2421875,-0.080078125,15.5,-111.90625,-21.1875,0.0,0.0,0.0
1664566905663,-0.9345703,0.13867188,0.21777344,26.65625,-119.46875,-18.5,0.0,0.0,0.0
1664566905705,-0.68066406,-0.13574219,0.033203125,-1.65625,-121.71875,-6.78125,0.0,0.0,0.0
1664566905743,-0.5341797,-0.12597656,0.059570312,11.53125,-81.4375,-10.75,0.0,0.0,0.0
1664566905783,-0.4453125,0.01953125,0.10058594,42.78125,-43.15625,-0.875,0.0,0.0,0.0
1664566905823,-0.44335938,0.07910156,0.14550781,40.6875,1.8125,7.8125,0.0,0.0,0.0
1664566905863,-0.5605469,0.08691406,0.49804688,8.21875,48.75,4.125,0.0,0.0,0.0
1664566905923,-0.7607422,-0.11230469,0.66308594,-37.4375,41.3125,-2.53125,0.0,0.0,0.0
1664566905963,-1.3642578,-0.17675781,0.8017578,27.75,19.625,0.78125,-57.875,19.6875,-111.0625
1664566905983,-1.1376953,-0.11230469,1.3046875,-15.40625,-35.34375,-16.375,0.0,0.0,0.0
1664566906023,-1.3203125,-0.076171875,0.3466797,-78.5,-57.875,-45.125,0.0,0.0,0.0
1664566906064,-1.3037109,0.026367188,-0.40625,46.25,24.59375,8.15625,0.0,0.0,0.0
1664566906103,-0.5830078,0.46875,0.2734375,101.78125,7.0,25.3125,0.0,0.0,0.0
1664566906143,-1.1738281,-0.037109375,-0.08105469,22.5,25.125,18.65625,0.0,0.0,0.0
1664566906184,-1.0205078,-0.060546875,0.29296875,-31.75,87.4375,-47.8125,0.0,0.0,0.0
1664566906223,-0.6533203,0.19335938,0.047851562,-32.3125,71.21875,-19.25,0.0,0.0,0.0
1664566906263,-0.8564453,0.068359375,0.09277344,-8.0625,113.375,15.65625,0.0,0.0,0.0
1664566906304,-0.7109375,-0.021484375,0.16113281,-19.53125,90.5625,4.3125,0.0,0.0,0.0
1664566906343,-0.8173828,-0.16699219,0.15234375,-30.53125,90.875,6.8125,0.0,0.0,0.0
1664566906383,-0.81640625,-0.14941406,0.16308594,-26.125,83.125,24.75,0.0,0.0,0.0
1664566906443,-0.703125,0.14355469,0.00390625,-18.5625,119.0,38.6875,-62.375,18.3125,-123.9375
1664566906463,-1.3007812,-0.16894531,0.078125,-55.4375,84.40625,46.75,0.0,0.0,0.0
1664566906503,-1.2900391,-0.119140625,0.11035156,-47.25,33.1875,5.0,0.0,0.0,0.0
1664566906545,-1.5839844,-0.13183594,0.1484375,-57.28125,9.875,-4.59375,0.0,0.0,0.0
1664566906583,-1.3984375,-0.12695312,-0.16601562,-32.96875,-66.0625,-17.28125,0.0,0.0,0.0
1664566906623,-0.9013672,0.040039062,-0.08984375,31.25,-137.46875,-25.90625,0.0,0.0,0.0
1664566906683,-1.34375,0.0390625,0.01171875,39.96875,-102.25,-49.875,0.0,0.0,0.0
1664566906703,-1.5712891,0.2578125,-0.048828125,19.09375,-114.8125,-21.75,0.0,0.0,0.0
1664566906743,-1.1416016,0.07714844,0.28222656,20.8125,-138.3125,-14.71875,0.0,0.0,0.0
1664566906784,-0.6875,-0.119140625,0.1875,-14.0625,-123.4375,-13.5625,0.0,0.0,0.0
1664566906824,-0.4794922,-0.15136719,0.036132812,-13.25,-97.5625,-19.125,0.0,0.0,0.0
1664566906864,-0.46484375,-0.0126953125,0.087890625,31.84375,-45.0625,-11.0,0.0,0.0,0.0
1664566906903,-0.2919922,0.0625,0.08300781,41.0,2.90625,9.125,0.0,0.0,0.0
1664566906964,-0.5205078,0.057617188,0.3125,9.375,54.5625,12.625,-56.6875,19.0625,-106.6875
1664566906983,-0.73339844,-0.078125,0.6591797,-8.5625,60.46875,12.9375,0.0,0.0,0.0
1664566907023,-1.5458984,-0.01171875,0.6738281,-2.03125,65.09375,20.25,0.0,0.0,0.0
1664566907062,-1.3115234,-0.1015625,1.0087891,13.90625,-13.4375,-6.53125,0.0,0.0,0.0
1664566907103,-1.3603516,-0.23339844,0.953125,-22.0,-23.4375,-25.53125,0.0,0.0,0.0
1664566907143,-1.2070312,0.11816406,0.11035156,-12.34375,-15.625,-26.5625,0.0,0.0,0.0
1664566907183,-0.8095703,-0.047851562,-0.009765625,80.4375,26.34375,3.34375,0.0,0.0,0.0
1664566907223,-0.94921875,0.25195312,0.36523438,98.9375,-8.125,52.65625,0.0,0.0,0.0
1664566907264,-1.2236328,-0.2607422,-0.3671875,-51.78125,88.1875,-11.1875,0.0,0.0,0.0
1664566907303,-0.84277344,0.06640625,0.31445312,45.46875,83.46875,-32.375,0.0,0.0,0.0
1664566907343,-0.8544922,0.20019531,0.030273438,7.25,101.1875,-13.875,0.0,0.0,0.0
1664566907383,-0.7597656,0.057617188,0.06738281,-8.4375,86.96875,-2.625,0.0,0.0,0.0
1664566907443,-0.765625,-0.08984375,-0.020507812,-30.46875,86.34375,-3.75,-63.625,18.8125,-121.875
1664566907463,-0.8925781,-0.07714844,0.24414062,-34.625,81.28125,7.5625,0.0,0.0,0.0
1664566907503,-0.83203125,-0.08300781,0.13085938,-36.9375,69.25,23.125,0.0,0.0,0.0
1664566907544,-1.1044922,-0.05859375,0.07714844,-59.09375,78.78125,34.96875,0.0,0.0,0.0
1664566907584,-1.3613281,-0.26171875,0.12792969,-51.96875,46.5,12.1875,0.0,0.0,0.0
1664566907623,-1.4316406,-0.06933594,0.234375,-50.25,24.9375,-0.5,0.0,0.0,0.0
1664566907664,-1.6542969,-0.12011719,0.055664062,-33.15625,-6.125,-15.40625,0.0,0.0,0.0
1664566907703,-1.1113281,0.055664062,-0.19726562,27.28125,-101.875,-8.375,0.0,0.0,0.0
1664566907743,-0.9003906,-0.029296875,-0.15429688,88.4375,-131.84375,-28.59375,0.0,0.0,0.0
1664566907784,-1.3837891,0.15625,-0.19238281,27.03125,-106.09375,-32.0625,0.0,0.0,0.0
1664566907823,-1.3203125,0.20800781,0.16210938,49.25,-107.625,-16.125,0.0,0.0,0.0
1664566907866,-0.7861328,-0.032226562,0.13476562,18.21875,-129.65625,-3.875,0.0,0.0,0.0
1664566907903,-0.6376953,-0.15625,0.08984375,25.8125,-114.03125,-11.3125,0.0,0.0,0.0
1664566907945,-0.4921875,-0.06347656,0.10546875,12.6875,-54.75,-18.3125,-59.5625,19.8125,-110.125
1664566907983,-0.375,0.1171875,0.055664062,28.4375,-17.40625,-6.53125,0.0,0.0,0.0
1664566908023,-0.48535156,0.1015625,0.22070312,17.5625,42.28125,4.8125,0.0,0.0,0.0
1664566908063,-0.6464844,0.060546875,0.47753906,-24.5,55.09375,-7.46875,0.0,0.0,0.0
1664566908103,-1.0009766,-0.13085938,0.5673828,-15.46875,34.15625,-7.59375,0.0,0.0,0.0
1664566908143,-1.3544922,-0.13574219,0.96191406,52.46875,28.5625,3.34375,0.0,0.0,0.0
1664566908203,-1.2138672,-0.17285156,1.0488281,-25.53125,-34.875,-17.40625,0.0,0.0,0.0
1664566908224,-1.3857422,0.12597656,0.25,-39.125,-26.875,-23.9375,0.0,0.0,0.0
1664566908264,-1.3183594,-0.053710938,-0.3798828,13.03125,40.5,13.65625,0.0,0.0,0.0
1664566908303,-0.546875,0.38671875,0.20019531,59.5,10.59375,15.5625,0.0,0.0,0.0
1664566908344,-1.0859375,-0.23535156,-0.2109375,8.46875,54.71875,15.71875,0.0,0.0,0.0
1664566908383,-1.0693359,-0.07128906,0.19238281,-25.40625,94.96875,-36.5,0.0,0.0,0.0
1664566908423,-0.6464844,0.15917969,0.01953125,4.3125,68.46875,-3.75,-62.875,20.125,-115.6875
1664566908463,-0.7988281,0.107421875,0.01171875,-8.375,98.9375,13.0,0.0,0.0,0.0
1664566908505,-0.7792969,-0.08886719,0.051757812,-44.6875,80.96875,0.34375,0.0,0.0,0.0
1664566908546,-0.9033203,-0.123046875,0.1171875,-49.75,88.90625,-2.59375,0.0,0.0,0.0
1664566908583,-0.91503906,-0.13183594,0.19433594,-35.71875,75.65625,13.15625,0.0,0.0,0.0
1664566908623,-0.88671875,-0.03125,-0.001953125,-34.6875,69.75,30.0,0.0,0.0,0.0
1664566908663,-1.2363281,-0.10449219,0.109375,-58.96875,65.71875,23.90625,0.0,0.0,0.0
1664566908703,-1.3945312,-0.26367188,0.123046875,-48.65625,29.84375,5.40625,0.0,0.0,0.0
1664566908743,-1.453125,-0.13085938,0.15820312,-50.625,6.40625,-7.40625,0.0,0.0,0.0
1664566908784,-1.5283203,-0.103515625,-0.076171875,-27.40625,-32.78125,-11.6875,0.0,0.0,0.0
1664566908823,-0.98828125,0.038085938,-0.24316406,40.4375,-118.1875,3.90625,0.0,0.0,0.0
1664566908863,-0.9794922,0.01953125,-0.19238281,66.8125,-122.03125,-29.5625,0.0,0.0,0.0
1664566908903,-1.3408203,0.19335938,-0.15722656,32.46875,-105.90625,-20.09375,0.0,0.0,0.0
1664566908963,-1.2490234,0.060546875,0.23925781,37.59375,-104.15625,-5.9375,-63.0,20.75,-116.625
1664566908983,-0.82421875,-0.0859375,0.140625,11.34375,-128.125,-13.25,0.0,0.0,0.0
1664566909023,-0.64160156,-0.24707031,0.09472656,22.25,-99.375,-20.21875,0.0,0.0,0.0
1664566909063,-0.4951172,-0.048828125,0.09667969,22.5625,-52.09375,-17.71875,0.0,0.0,0.0
1664566909103,-0.4033203,0.12402344,0.10253906,34.40625,-8.8125,0.78125,0.0,0.0,0.0
1664566909144,-0.5449219,0.06738281,0.33203125,8.71875,47.71875,2.65625,0.0,0.0,0.0
1664566909184,-0.734375,-0.052734375,0.5205078,-24.3125,38.5625,-1.0,0.0,0.0,0.0
1664566909223,-1.1738281,-0.10058594,0.51171875,-22.65625,34.21875,-8.3125,0.0,0.0,0.0
1664566909263,-1.3886719,-0.018554688,1.0566406,41.71875,9.03125,1.09375,0.0,0.0,0.0
1664566909303,-1.3505859,-0.39648438,0.9589844,-30.78125,-50.0625,-29.5,0.0,0.0,0.0
1664566909343,-1.4169922,0.025390625,-0.009765625,8.65625,-20.21875,-32.0625,0.0,0.0,0.0
1664566909383,-0.79296875,-0.009765625,-0.09765625,78.53125,47.78125,-4.65625,0.0,0.0,0.0
1664566909423,-0.86621094,0.24609375,0.29785156,135.53125,-20.15625,42.90625,-61.5,17.875,-109.5625
1664566909464,-1.2236328,-0.32714844,-0.25097656,-46.53125,97.9375,-22.53125,0.0,0.0,0.0
1664566909505,-0.8496094,0.09277344,0.28515625,21.71875,58.9375,-31.875,0.0,0.0,0.0
1664566909543,-0.6699219,0.12988281,0.0234375,-0.375,92.6875,9.125,0.0,0.0,0.0
1664566909583,-0.77246094,-0.037109375,0.12011719,-28.6875,86.21875,0.84375,0.0,0.0,0.0
1664566909624,-0.76171875,-0.08886719,-0.009765625,-38.09375,76.28125,-9.96875,0.0,0.0,0.0
1664566909663,-0.83691406,-0.034179688,0.12890625,-31.375,79.6875,9.5,0.0,0.0,0.0
1664566909723,-0.8574219,-0.022460938,0.23242188,-47.5625,84.03125,30.5625,0.0,0.0,0.0
1664566909743,-0.9736328,-0.03515625,-0.01171875,-81.75,74.03125,26.96875,0.0,0.0,0.0
1664566909784,-1.3779297,-0.28808594,0.08105469,-58.59375,46.0625,20.96875,0.0,0.0,0.0
1664566909823,-1.4814453,-0.24804688,0.33789062,-59.03125,8.78125,-6.96875,0.0,0.0,0.0
1664566909863,-1.5419922,-0.14550781,0.068359375,-41.28125,-22.96875,-19.90625,0.0,0.0,0.0
1664566909903,-1.0244141,-0.060546875,-0.3154297,30.4375,-105.0625,-4.59375,0.0,0.0,0.0
1664566909942,-0.7998047,0.06933594,-0.15332031,104.46875,-123.5,-24.4375,-64.5,20.75,-122.0
1664566909982,-1.4199219,0.10546875,-0.05859375,14.5625,-92.125,-41.9375,0.0,0.0,0.0
1664566910023,-1.4765625,0.19140625,0.060546875,37.34375,-100.1875,-20.34375,0.0,0.0,0.0
1664566910064,-0.8769531,0.0234375,0.16699219,-4.65625,-117.375,-12.71875,0.0,0.0,0.0
1664566910105,-0.6953125,-0.19433594,0.029296875,-5.3125,-110.0625,-14.90625,0.0,0.0,0.0
1664566910144,-0.5107422,-0.029296875,0.11621094,7.0625,-54.75,2.0,0.0,0.0,0.0
1664566910183,-0.47265625,0.07421875,0.1171875,23.375,-12.15625,15.0,0.0,0.0,0.0
1664566910222,-0.4453125,0.052734375,0.18847656,15.71875,48.25,17.6875,0.0,0.0,0.0
1664566910263,-0.67285156,-0.05078125,0.64746094,-18.625,61.03125,5.90625,0.0,0.0,0.0
1664566910303,-1.2021484,-0.25683594,0.60546875,-40.40625,37.46875,-4.46875,0.0,0.0,0.0
1664566910343,-1.375,-0.15234375,0.9716797,42.71875,-14.0625,-12.28125,0.0,0.0,0.0
1664566910383,-1.1396484,-0.15136719,1.0195312,-9.28125,-36.09375,-23.8125,0.0,0.0,0.0
1664566910425,-1.3759766,0.25097656,0.01171875,-12.46875,-19.1875,-18.4375,-59.6875,19.25,-109.5625
1664566910483,-1.0507812,-0.15429688,-0.0625,74.09375,30.5625,10.0625,0.0,0.0,0.0
1664566910502,-0.7763672,0.16308594,0.25585938,84.9375,-15.34375,23.1875,0.0,0.0,0.0
1664566910543,-1.1669922,-0.22949219,-0.16308594,-10.21875,81.96875,-10.75,0.0,0.0,0.0
1664566910582,-0.8935547,-0.01953125,0.20703125,-2.625,71.53125,-32.125,0.0,0.0,0.0
1664566910623,-0.68847656,0.13378906,0.020507812,7.125,88.96875,1.75,0.0,0.0,0.0
1664566910663,-0.83496094,0.0234375,0.07714844,-23.34375,85.1875,3.65625,0.0,0.0,0.0
1664566910702,-0.7841797,-0.125,-0.028320312,-46.59375,89.15625,-0.9375,0.0,0.0,0.0
1664566910743,-0.8779297,-0.12402344,0.13183594,-50.125,85.0625,8.59375,0.0,0.0,0.0
1664566910786,-0.8652344,-0.038085938,0.19042969,-52.1875,78.71875,24.03125,0.0,0.0,0.0
1664566910823,-1.0302734,0.013671875,0.10253906,-64.96875,75.53125,28.0625,0.0,0.0,0.0
1664566910864,-1.3154297,-0.29882812,0.11035156,-61.84375,48.6875,22.03125,0.0,0.0,0.0
1664566910903,-1.328125,-0.21875,0.14453125,-42.5,11.75,-2.75,0.0,0.0,0.0
1664566910943,-1.6689453,-0.10546875,0.13574219,-29.9375,-3.0,-15.40625,-64.5,18.1875,-125.875
1664566910983,-1.2919922,-0.057617188,-0.27441406,14.21875,-85.59375,-15.53125,0.0,0.0,0.0
1664566911023,-0.828125,0.044921875,-0.20800781,105.21875,-129.90625,-24.125,0.0,0.0,0.0
1664566911065,-1.3779297,0.051757812,-0.072265625,59.375,-102.875,-35.21875,0.0,0.0,0.0
1664566911106,-1.4472656,0.1796875,0.06933594,48.3125,-106.71875,-22.65625,0.0,0.0,0.0
1664566911143,-0.9316406,-0.0087890625,0.1875,12.4375,-122.5,-3.1875,0.0,0.0,0.0
1664566911184,-0.64746094,-0.18945312,0.09375,27.5,-113.90625,-8.0,0.0,0.0,0.0
1664566911243,-0.48535156,-0.051757812,0.11230469,19.40625,-60.375,-5.375,0.0,0.0,0.0
1664566911263,-0.39257812,0.033203125,0.06738281,28.25,-17.53125,4.0,0.0,0.0,0.0
1664566911303,-0.45996094,0.09863281,0.16308594,21.40625,47.78125,7.8125,0.0,0.0,0.0
1664566911343,-0.7060547,0.061523438,0.5439453,-12.03125,53.875,3.71875,0.0,0.0,0.0
1664566911383,-1.0742188,-0.13867188,0.59277344,-41.03125,30.0625,-5.6875,0.0,0.0,0.0
1664566911426,-1.3574219,-0.015625,0.90527344,51.875,32.53125,4.0625,-62.375,18.8125,-111.1875
1664566911463,-1.1962891,-0.18847656,1.0644531,-23.03125,-47.625,-7.46875,0.0,0.0,0.0
1664566911503,-1.3164062,-0.001953125,0.19335938,-51.78125,-45.90625,-35.46875,0.0,0.0,0.0
1664566911543,-1.1152344,-0.10644531,-0.2578125,23.4375,33.6875,6.9375,0.0,0.0,0.0
1664566911583,-0.6279297,0.31640625,0.14941406,63.8125,24.15625,21.84375,0.0,0.0,0.0
1664566911623,-1.1767578,-0.3466797,-0.076171875,6.21875,52.78125,14.875,0.0,0.0,0.0
1664566911663,-1.0,-0.14648438,0.11816406,-25.96875,103.4375,-53.90625,0.0,0.0,0.0
1664566911703,-0.6357422,0.17578125,-0.07421875,23.0,73.46875,4.125,0.0,0.0,0.0
1664566911743,-0.7265625,0.20898438,0.029296875,-12.90625,99.53125,29.53125,0.0,0.0,0.0
1664566911784,-0.8408203,-0.123046875,0.119140625,-49.03125,79.03125,6.8125,0.0,0.0,0.0
1664566911823,-0.8964844,-0.19140625,0.115234375,-42.625,75.90625,-0.8125,0.0,0.0,0.0
1664566911863,-0.7998047,-0.08203125,0.16601562,-30.96875,76.28125,19.875,0.0,0.0,0.0
1664566911903,-0.96972656,-0.06640625,0.040039062,-40.65625,72.96875,31.125,0.0,0.0,0.0
1664566911944,-1.2509766,-0.078125,0.041015625,-49.5625,55.78125,25.75,-66.3125,17.875,-125.125
1664566912003,-1.3398438,-0.21289062,0.11230469,-46.15625,23.65625,2.5625,0.0,0.0,0.0
1664566912025,-1.5800781,-0.29492188,0.09472656,-50.6875,2.96875,-10.625,0.0,0.0,0.0
1664566912064,-1.3847656,-0.10449219,-0.28808594,-12.96875,-59.78125,-18.5,0.0,0.0,0.0
1664566912103,-0.8408203,0.16992188,-0.14160156,82.3125,-130.625,-20.84375,0.0,0.0,0.0
1664566912143,-1.2275391,0.043945312,0.029296875,49.3125,-88.75,-42.0625,0.0,0.0,0.0
1664566912203,-1.4160156,0.23535156,-0.12597656,34.59375,-103.34375,-42.125,0.0,0.0,0.0
1664566912223,-1.1123047,0.07714844,0.12597656,17.125,-104.625,-9.21875,0.0,0.0,0.0
1664566912263,-0.73535156,-0.1484375,0.036132812,-2.34375,-116.40625,-17.34375,0.0,0.0,0.0
1664566912303,-0.54589844,-0.14746094,0.06933594,10.3125,-80.8125,-15.03125,0.0,0.0,0.0
1664566912343,-0.48632812,-0.0068359375,0.15234375,21.46875,-43.53125,-3.375,0.0,0.0,0.0
1664566912383,-0.5185547,0.005859375,0.140625,32.53125,4.875,16.21875,0.0,0.0,0.0
1664566912423,-0.5751953,0.040039062,0.3828125,4.5625,57.90625,6.5625,-60.4375,17.125,-109.25
1664566912463,-0.7792969,-0.12988281,0.6816406,-29.9375,52.21875,-7.21875,0.0,0.0,0.0
1664566912503,-1.5556641,-0.08105469,0.39746094,-13.125,65.0,0.71875,0.0,0.0,0.0
1664566912544,-1.2167969,-0.09863281,1.1123047,23.0625,-37.4375,-8.9375,0.0,0.0,0.0
1664566912584,-1.2705078,-0.10058594,0.546875,-25.71875,-40.71875,-17.59375,0.0,0.0,0.0
1664566912623,-1.3476562,0.064453125,0.046875,15.0,-1.1875,-5.3125,0.0,0.0,0.0
1664566912663,-0.91015625,-0.0029296875,-0.0234375,49.71875,27.625,11.15625,0.0,0.0,0.0
1664566912703,-0.91796875,-0.009765625,0.14746094,59.1875,-7.46875,24.75,0.0,0.0,0.0
1664566912763,-1.0800781,-0.234375,-0.2548828,-55.3125,82.03125,-24.0,0.0,0.0,0.0
1664566912783,-0.8232422,0.080078125,0.3251953,0.0,77.125,-16.625,0.0,0.0,0.0
1664566912823,-0.61816406,0.080078125,-0.049804688,-20.875,90.3125,20.3125,0.0,0.0,0.0
1664566912862,-0.8515625,-0.10449219,0.10644531,-36.46875,80.4375,12.375,0.0,0.0,0.0
1664566912903,-0.88964844,-0.10644531,0.087890625,-44.5,77.875,-0.9375,0.0,0.0,0.0
1664566912943,-0.86328125,-0.13671875,0.08886719,-31.03125,73.53125,14.5,-65.375,16.25,-121.5625
1664566912986,-0.8925781,-0.09082031,0.16699219,-18.09375,76.03125,29.15625,0.0,0.0,0.0
1664566913023,-0.9482422,-0.057617188,-0.022460938,-53.0625,58.40625,34.59375,0.0,0.0,0.0
1664566913063,-1.296875,-0.3017578,0.06542969,-46.71875,41.3125,18.40625,0.0,0.0,0.0
1664566913103,-1.4130859,-0.19140625,0.19238281,-36.09375,15.25,-0.9375,0.0,0.0,0.0
1664566913143,-1.5898438,-0.1953125,0.13769531,-35.96875,-15.53125,-5.09375,0.0,0.0,0.0
1664566913183,-1.1728516,-0.140625,-0.2919922,-1.46875,-97.65625,-4.34375,0.0,0.0,0.0
1664566913223,-0.8330078,0.04296875,-0.17871094,102.84375,-135.21875,-27.53125,0.0,0.0,0.0
1664566913263,-1.2275391,0.12207031,-0.10644531,26.0,-73.9375,-51.46875,0.0,0.0,0.0
1664566913303,-1.4873047,0.26171875,0.0107421875,40.09375,-95.34375,-24.84375,0.0,0.0,0.0
1664566913343,-0.9638672,0.03515625,0.18359375,19.40625,-106.53125,-20.78125,0.0,0.0,0.0
1664566913383,-0.80371094,-0.2578125,0.1328125,14.4375,-106.40625,-21.75,0.0,0.0,0.0
1664566913423,-0.50390625,-0.15820312,0.111328125,12.6875,-62.40625,-19.4375,-62.125,14.75,-109.875
1664566913463,-0.43554688,0.049804688,0.11425781,33.5625,-19.84375,-9.34375,0.0,0.0,0.0
1664566913523,-0.4326172,0.08984375,0.14941406,29.09375,18.65625,9.8125,0.0,0.0,0.0
1664566913543,-0.6923828,0.057617188,0.5058594,-0.0625,49.59375,11.28125,0.0,0.0,0.0
1664566913583,-0.9169922,-0.20996094,0.6777344,-1.53125,34.28125,-0.6875,0.0,0.0,0.0
1664566913623,-1.4101562,-0.13574219,0.5908203,32.6875,33.5,-7.21875,0.0,0.0,0.0
1664566913664,-1.3984375,-0.13476562,1.1572266,2.59375,-20.84375,-17.09375,0.0,0.0,0.0
1664566913703,-1.3789062,-0.001953125,0.31835938,-64.65625,-44.09375,-25.53125,0.0,0.0,0.0
1664566913744,-0.9560547,0.08886719,-0.16210938,74.21875,21.40625,16.9375,0.0,0.0,0.0
1664566913783,-0.7363281,0.23730469,0.09472656,38.6875,4.3125,24.875,0.0,0.0,0.0
1664566913823,-1.2275391,-0.27929688,-0.15429688,-12.46875,64.125,9.375,0.0,0.0,0.0
1664566913863,-0.9638672,-0.13085938,0.22949219,-17.03125,71.28125,-35.53125,0.0,0.0,0.0
1664566913903,-0.62402344,0.17675781,-0.029296875,8.46875,85.375,7.90625,0.0,0.0,0.0
1664566913943,-0.81347656,0.028320312,0.06640625,-20.34375,88.0625,25.3125,-64.5,16.0625,-118.25
1664566913986,-0.7998047,-0.0703125,0.078125,-30.28125,77.125,-0.625,0.0,0.0,0.0
1664566914023,-0.8671875,-0.099609375,0.109375,-39.3125,72.8125,7.25,0.0,0.0,0.0
1664566914063,-0.8378906,-0.08105469,0.12695312,-31.3125,69.125,22.625,0.0,0.0,0.0
1664566914103,-1.0048828,-0.09277344,0.07128906,-61.53125,57.46875,30.0,0.0,0.0,0.0
1664566914143,-1.2744141,-0.16210938,0.15527344,-74.46875,46.75,20.4375,0.0,0.0,0.0
1664566914184,-1.3720703,-0.31054688,0.16601562,-53.53125,22.75,4.6875,0.0,0.0,0.0
1664566914224,-1.4560547,-0.15917969,0.1328125,-57.21875,-19.0,-2.03125,0.0,0.0,0.0
1664566914283,-1.2841797,-0.1953125,-0.16699219,-27.125,-78.3125,-3.75,0.0,0.0,0.0
1664566914306,-0.71484375,0.043945312,-0.1328125,67.5625,-123.3125,-24.75,0.0,0.0,0.0
1664566914343,-1.2597656,0.11621094,0.013671875,39.71875,-76.5625,-58.0625,0.0,0.0,0.0
1664566914383,-1.5166016,0.17871094,-0.059570312,40.875,-94.0625,-37.375,0.0,0.0,0.0
1664566914423,-1.0117188,0.115234375,0.23925781,28.25,-96.75,-31.375,0.0,0.0,0.0
1664566914463,-0.76953125,-0.1015625,0.09277344,-11.25,-108.53125,-24.0625,-63.125,14.75,-112.5625
1664566914503,-0.5625,-0.29492188,0.001953125,11.65625,-71.90625,-18.8125,0.0,0.0,0.0
1664566914543,-0.4970703,-0.016601562,0.099609375,43.5625,-31.875,-4.71875,0.0,0.0,0.0
1664566914584,-0.46289062,0.10839844,0.09375,57.84375,4.125,9.8125,0.0,0.0,0.0
1664566914623,-0.5595703,0.10546875,0.32226562,18.71875,58.21875,6.34375,0.0,0.0,0.0
1664566914663,-0.81152344,-0.1328125,0.57128906,-17.40625,42.65625,-1.125,0.0,0.0,0.0
1664566914704,-1.3769531,-0.076171875,0.45117188,-16.625,82.5625,0.78125,0.0,0.0,0.0
1664566914743,-1.28125,-0.19335938,1.1064453,47.90625,-10.28125,-3.3125,0.0,0.0,0.0
1664566914783,-1.2783203,-0.23339844,0.7890625,-40.40625,-52.09375,-28.21875,0.0,0.0,0.0
1664566914823,-1.2792969,0.055664062,0.1328125,37.46875,-28.46875,-19.90625,0.0,0.0,0.0
1664566914863,-0.88964844,-0.021484375,-0.080078125,55.78125,32.40625,-0.375,0.0,0.0,0.0
1664566914903,-0.9042969,0.3017578,0.17382812,68.84375,6.03125,36.4375,0.0,0.0,0.0
1664566914944,-1.1494141,-0.37109375,-0.2763672,-34.375,71.28125,-4.90625,-60.625,18.3125,-113.3125
1664566914983,-0.8798828,0.09765625,0.31835938,14.75,99.59375,-35.46875,0.0,0.0,0.0
1664566915043,-0.66015625,0.20605469,-0.0625,-6.84375,94.90625,11.15625,0.0,0.0,0.0
1664566915063,-0.890625,-0.09472656,0.123046875,-35.96875,80.625,15.65625,0.0,0.0,0.0
1664566915103,-0.8701172,-0.16992188,0.095703125,-58.0625,75.1875,-8.625,0.0,0.0,0.0
1664566915144,-0.8876953,-0.15429688,0.1796875,-41.15625,76.03125,-2.15625,0.0,0.0,0.0
1664566915184,-0.8125,-0.05859375,0.12988281,-23.4375,59.125,21.71875,0.0,0.0,0.0
1664566915244,-0.9248047,-0.051757812,0.064453125,-43.96875,62.375,34.90625,0.0,0.0,0.0
1664566915264,-1.2539062,-0.18066406,0.11816406,-51.96875,52.40625,23.59375,0.0,0.0,0.0
1664566915304,-1.3261719,-0.24804688,0.15527344,-44.5625,21.65625,-5.6875,0.0,0.0,0.0
1664566915343,-1.5605469,-0.15625,0.123046875,-51.59375,7.3125,-13.25,0.0,0.0,0.0
1664566915383,-1.3681641,-0.1484375,-0.21679688,-17.34375,-63.4375,-17.59375,0.0,0.0,0.0
1664566915423,-0.86816406,0.043945312,-0.14941406,75.71875,-136.1875,-13.875,0.0,0.0,0.0
1664566915463,-1.2724609,0.115234375,0.043945312,57.0,-104.9375,-26.75,-66.0,17.75,-121.5625
1664566915503,-1.5634766,0.21875,-0.05859375,15.5,-106.59375,-23.5,0.0,0.0,0.0
1664566915543,-1.1572266,0.07128906,0.22070312,-8.125,-125.875,-5.3125,0.0,0.0,0.0
1664566915583,-0.74121094,-0.16210938,0.09375,4.9375,-138.375,13.40625,0.0,0.0,0.0
1664566915623,-0.4638672,-0.18652344,0.09375,-1.96875,-83.875,0.65625,0.0,0.0,0.0
1664566915663,-0.4658203,0.055664062,0.13867188,20.375,-50.78125,-3.25,0.0,0.0,0.0
1664566915703,-0.38476562,0.099609375,0.09667969,34.09375,9.03125,15.96875,0.0,0.0,0.0
1664566915743,-0.609375,0.0048828125,0.4111328,3.34375,66.28125,7.90625,0.0,0.0,0.0
1664566915803,-0.7675781,-0.14160156,0.78808594,-12.78125,61.15625,-11.25,0.0,0.0,0.0
1664566915823,-1.6103516,-0.0029296875,0.46777344,-11.96875,72.75,-0.4375,0.0,0.0,0.0
1664566915864,-1.1728516,0.01953125,1.2167969,23.4375,-28.59375,-10.875,0.0,0.0,0.0
1664566915903,-1.4638672,0.07714844,0.4267578,-66.0625,-37.78125,-22.78125,0.0,0.0,0.0
1664566915943,-1.2705078,-0.15039062,-0.22753906,20.5625,-7.59375,0.28125,-60.875,15.0625,-108.625
1664566915983,-0.6357422,0.16015625,-0.1171875,39.65625,16.65625,-0.1875,0.0,0.0,0.0
1664566916022,-1.0947266,-0.057617188,0.021484375,37.09375,57.28125,15.0,0.0,0.0,0.0
1664566916064,-1.0058594,-0.12792969,0.14746094,-7.09375,85.125,-21.875,0.0,0.0,0.0
1664566916103,-0.7207031,0.12402344,0.13085938,-3.96875,83.1875,-13.8125,0.0,0.0,0.0
1664566916143,-0.76660156,0.02734375,0.059570312,-46.71875,96.71875,1.875,0.0,0.0,0.0
1664566916183,-0.765625,-0.10449219,0.0048828125,-48.40625,83.0,1.875,0.0,0.0,0.0
1664566916223,-0.80371094,-0.10253906,0.12890625,-28.03125,77.8125,4.6875,0.0,0.0,0.0
1664566916263,-0.8515625,-0.13574219,0.11621094,-44.09375,80.6875,14.5,0.0,0.0,0.0
1664566916304,-0.8964844,-0.047851562,0.1953125,-42.1875,82.25,30.875,0.0,0.0,0.0
1664566916344,-1.1757812,-0.17578125,0.07128906,-60.0625,63.21875,26.65625,0.0,0.0,0.0
1664566916383,-1.3769531,-0.2265625,0.07519531,-31.21875,35.3125,11.8125,0.0,0.0,0.0
1664566916423,-1.4882812,-0.12402344,0.16894531,-34.3125,7.3125,-1.59375,0.0,0.0,0.0
1664566916463,-1.4980469,-0.1796875,-0.11425781,-17.03125,-41.03125,-15.21875,-68.25,17.0,-127.375
1664566916503,-1.0195312,0.05078125,-0.13574219,49.46875,-117.03125,-19.25,0.0,0.0,0.0
1664566916564,-1.2275391,0.025390625,-0.12597656,54.125,-106.40625,-32.4375,0.0,0.0,0.0
1664566916583,-1.5478516,0.16308594,-0.15234375,44.59375,-106.71875,-22.65625,0.0,0.0,0.0
1664566916623,-1.1494141,0.13964844,0.26660156,25.625,-129.03125,-6.53125,0.0,0.0,0.0
1664566916664,-0.7285156,-0.16113281,0.13378906,-0.625,-144.0,14.15625,0.0,0.0,0.0
1664566916703,-0.5839844,-0.25,0.057617188,-0.0625,-96.375,-17.84375,0.0,0.0,0.0
1664566916745,-0.43847656,0.061523438,0.045898438,22.5625,-52.375,-12.96875,0.0,0.0,0.0
1664566916784,-0.37695312,0.13769531,0.107421875,28.25,1.3125,11.03125,0.0,0.0,0.0
1664566916823,-0.6152344,0.018554688,0.3857422,2.5,56.5625,12.9375,0.0,0.0,0.0
1664566916863,-0.7402344,-0.11816406,0.7294922,-16.5625,52.84375,-1.65625,0.0,0.0,0.0
1664566916903,-1.5419922,-0.024414062,0.63183594,4.5625,67.5,10.0625,0.0,0.0,0.0
1664566916943,-1.1992188,-0.06347656,1.1396484,-0.375,-15.34375,-9.53125,-60.625,15.1875,-108.375
1664566916982,-1.4023438,-0.11035156,0.54296875,-54.6875,-41.15625,-29.1875,0.0,0.0,0.0
1664566917023,-1.3359375,-0.13671875,-0.43652344,18.78125,-17.53125,0.34375,0.0,0.0,0.0
1664566917063,-0.64941406,0.21386719,0.026367188,91.53125,18.125,-3.5625,0.0,0.0,0.0
1664566917103,-1.1162109,-0.09375,0.111328125,58.625,15.1875,18.40625,0.0,0.0,0.0
1664566917144,-1.0771484,-0.16992188,0.09277344,-15.625,87.875,-38.84375,0.0,0.0,0.0
1664566917183,-0.69921875,0.16015625,0.119140625,15.84375,66.40625,-17.84375,0.0,0.0,0.0
1664566917224,-0.73828125,0.125,0.09765625,-8.875,107.21875,11.71875,0.0,0.0,0.0
1664566917263,-0.79296875,-0.11621094,0.068359375,-45.71875,90.125,-2.8125,0.0,0.0,0.0
1664566917323,-0.8691406,-0.13476562,0.07324219,-46.84375,82.875,-2.09375,0.0,0.0,0.0
1664566917344,-0.8984375,-0.07910156,0.25,-32.96875,85.875,13.03125,0.0,0.0,0.0
1664566917383,-0.8183594,-0.10449219,0.13574219,-51.21875,73.71875,33.8125,0.0,0.0,0.0
1664566917424,-1.1230469,-0.076171875,0.119140625,-65.1875,66.4375,33.0,0.0,0.0,0.0
1664566917463,-1.2832031,-0.39941406,0.11230469,-40.0625,25.0,7.90625,-65.6875,16.5625,-123.9375
1664566917503,-1.3779297,-0.14550781,0.11621094,-35.40625,9.1875,-8.0625,0.0,0.0,0.0
1664566917543,-1.5742188,-0.17578125,0.045898438,-30.90625,-18.4375,-17.59375,0.0,0.0,0.0
1664566917583,-1.1738281,-0.0126953125,-0.14550781,41.90625,-103.71875,-33.46875,0.0,0.0,0.0
1664566917623,-1.0888672,-0.0126953125,-0.19140625,85.0625,-109.5,-46.03125,0.0,0.0,0.0
1664566917663,-1.5839844,0.203125,-0.17382812,19.8125,-100.25,-30.40625,0.0,0.0,0.0
1664566917706,-1.2929688,0.14257812,0.12109375,51.5,-117.875,-12.71875,0.0,0.0,0.0
1664566917743,-0.796875,-0.091796875,0.140625,1.15625,-142.03125,6.6875,0.0,0.0,0.0
1664566917783,-0.52734375,-0.20605469,0.068359375,8.53125,-128.5625,-7.875,0.0,0.0,0.0
1664566917824,-0.43652344,-0.0390625,0.083984375,22.875,-56.96875,-4.46875,0.0,0.0,0.0
1664566917863,-0.40039062,0.087890625,0.07421875,38.4375,-6.3125,13.15625,0.0,0.0,0.0
1664566917903,-0.55566406,0.026367188,0.26367188,21.53125,53.6875,12.25,0.0,0.0,0.0
1664566917944,-0.64746094,-0.064453125,0.5908203,-6.5,55.03125,2.90625,-61.0625,16.5625,-108.0625
1664566917985,-1.4345703,-0.0859375,0.58496094,-10.6875,61.03125,5.21875,0.0,0.0,0.0
1664566918023,-1.3017578,-0.07714844,1.0546875,35.8125,-25.15625,0.0,0.0,0.0,0.0
1664566918084,-1.2841797,-0.31152344,0.8857422,-30.34375,-46.09375,-24.4375,0.0,0.0,0.0
1664566918103,-1.2822266,0.053710938,0.20410156,10.125,-36.34375,-23.28125,0.0,0.0,0.0
1664566918144,-0.90234375,-0.06542969,-0.05078125,82.5625,35.5,0.96875,0.0,0.0,0.0
