# Sensor type: Respeck
# Activity type: Descending stairs
# Activity code: 13
# Subject id: s1912558
# Notes: 
timestamp,accel_x,accel_y,accel_z,gyro_x,gyro_y,gyro_z
1664563043852,-0.072753906,-0.95806885,0.28289795,-2.5,2.921875,0.125
1664563043899,-0.06762695,-0.9578247,0.29559326,-3.875,3.171875,0.359375
1664563043944,-0.06958008,-0.9451294,0.31292725,-5.890625,4.328125,-0.796875
1664563043973,-0.064941406,-0.9536743,0.2929077,-2.671875,4.0,-0.0625
1664563044018,-0.01977539,-0.9077759,0.30633545,-4.171875,3.015625,0.640625
1664563044064,0.044189453,-0.89190674,0.3114624,3.234375,-2.765625,2.1875
1664563044095,0.10107422,-0.8687134,0.2838745,2.4375,-6.3125,4.265625
1664563044138,0.028564453,-0.96051025,0.4389038,2.84375,-6.40625,1.734375
1664563044183,-0.12548828,-1.0061646,0.4960327,9.140625,-9.328125,5.0625
1664563044244,-0.1430664,-1.0059204,0.4081421,1.375,-4.671875,4.21875
1664563044257,-0.0859375,-0.98809814,0.40496826,-6.9375,-6.90625,5.09375
1664563044319,-0.05444336,-0.878479,0.40667725,-3.390625,-2.375,5.59375
1664563044333,-0.08300781,-0.8501587,0.38201904,-4.921875,-1.078125,3.125
1664563044363,-0.057373047,-0.892395,0.4406128,-5.515625,2.75,2.328125
1664563044423,-0.033203125,-0.8911743,0.43426514,-1.40625,3.703125,-0.78125
1664563044454,-0.02758789,-0.927063,0.42352295,-6.28125,1.375,-0.96875
1664563044486,-0.06982422,-0.8892212,0.48114014,-5.3125,3.6875,-1.53125
1664563044543,-0.064453125,-0.87384033,0.47332764,-5.171875,6.59375,-4.1875
1664563044575,-0.052734375,-0.9163208,0.4442749,-7.28125,4.890625,-5.796875
1664563044603,0.048828125,-1.0278931,0.4100952,-11.609375,-3.796875,-2.796875
1664563044665,0.13354492,-1.0908813,0.36712646,-7.09375,-2.53125,-0.75
1664563044678,-0.12890625,-0.9834595,0.3036499,-6.859375,17.40625,-8.3125
1664563044725,-0.18188477,-0.8491821,0.21429443,-3.296875,22.046875,-5.609375
1664563044784,0.10913086,-0.92022705,0.22869873,-2.1875,12.453125,-1.296875
1664563044798,0.118896484,-1.0252075,0.47161865,10.15625,7.734375,-0.859375
1664563044847,-0.14428711,-0.97491455,0.3414917,5.546875,7.125,-9.1875
1664563044903,-0.13769531,-0.958313,0.37078857,0.5,4.828125,-5.34375
1664563044921,0.026367188,-0.88409424,0.35125732,6.1875,3.0,-2.859375
1664563044965,-0.056884766,-0.86065674,0.29730225,1.21875,2.328125,-6.34375
1664563045024,-0.09399414,-0.8491821,0.28778076,-1.640625,-1.625,-3.328125
1664563045038,0.009521484,-0.7661743,0.30926514,-0.8125,-3.03125,-1.828125
1664563045085,-0.037109375,-0.75250244,0.31097412,-3.625,-7.921875,-2.703125
1664563045114,-0.1381836,-0.7456665,0.2687378,0.96875,-9.71875,3.09375
1664563045160,-0.11376953,-0.8274536,0.35369873,-6.484375,-7.546875,0.734375
1664563045204,-0.16430664,-0.8740845,0.39178467,0.109375,-7.921875,1.703125
1664563045234,-0.07836914,-0.9011841,0.44232178,-2.609375,-7.09375,3.640625
1664563045279,-0.1965332,-0.94000244,0.4640503,-0.125,-0.546875,-0.96875
1664563045324,-0.31274414,-0.9602661,0.55267334,0.484375,0.25,-2.40625
1664563045353,-0.15820312,-0.8909302,0.3554077,-5.453125,3.265625,0.578125
1664563045400,-0.06616211,-0.82940674,0.432312,-1.5,6.140625,-2.46875
1664563045445,-0.064941406,-1.0274048,0.34710693,0.25,-1.75,-3.140625
1664563045504,0.11816406,-1.406311,0.31048584,-10.734375,-12.78125,-4.359375
1664563045518,-9.765625E-4,-1.107727,0.39813232,12.421875,2.234375,-5.140625
1664563045565,0.04272461,-1.1030884,0.36273193,2.6875,-2.890625,0.75
1664563045594,0.03491211,-1.0071411,0.39105225,-3.296875,-5.34375,3.296875
1664563045638,-0.039794922,-0.9859009,0.41204834,10.1875,-1.421875,2.375
1664563045684,-0.060058594,-0.9512329,0.33392334,1.609375,-4.75,1.59375
1664563045714,0.05102539,-0.9163208,0.3300171,2.640625,-5.890625,11.046875
1664563045804,0.05810547,-0.8657837,0.3764038,13.8125,-7.96875,8.34375
1664563045806,-0.1706543,-0.94976807,0.37225342,8.90625,-1.828125,4.359375
1664563045833,-0.15917969,-0.95806885,0.34735107,7.1875,-5.21875,4.765625
1664563045864,-0.018310547,-0.91290283,0.3480835,0.171875,0.796875,2.6875
1664563045923,-0.095214844,-0.8904419,0.3439331,0.765625,4.375,-0.625
1664563045953,-0.096191406,-0.8526001,0.2975464,-3.484375,6.890625,1.5625
1664563045983,-0.064208984,-0.802063,0.30560303,1.234375,14.28125,-3.640625
1664563046043,-0.01928711,-0.8167114,0.3908081,1.640625,19.203125,-4.984375
1664563046073,-9.765625E-4,-0.82891846,0.38201904,3.515625,17.8125,-3.46875
1664563046103,-0.045654297,-0.78082275,0.38446045,7.375,18.6875,-4.65625
1664563046163,0.037109375,-0.91119385,0.3131714,4.390625,3.90625,-0.765625
1664563046178,-0.05029297,-0.8928833,0.3764038,5.796875,14.875,-6.3125
1664563046223,-0.008544922,-0.91241455,0.39642334,6.328125,11.265625,-4.078125
1664563046285,0.05810547,-0.8694458,0.3768921,-1.984375,3.859375,0.296875
1664563046299,-0.060302734,-0.88531494,0.40252686,-3.3125,5.9375,-4.75
1664563046344,-0.0949707,-0.99053955,0.53118896,-1.359375,8.1875,-5.96875
1664563046404,-0.02734375,-1.045227,0.5101929,-2.984375,2.671875,-3.953125
1664563046418,-0.028076172,-1.0879517,0.33221436,-11.015625,-4.265625,-4.796875
1664563046464,0.043701172,-1.2666626,0.41326904,-21.078125,-11.125,0.375
1664563046523,0.075927734,-0.9702759,0.309021,-12.140625,2.3125,-0.5
1664563046538,-0.20507812,-1.1880493,0.32000732,-14.046875,-1.46875,-1.828125
1664563046585,0.17236328,-0.86383057,0.23382568,1.921875,-0.15625,8.90625
1664563046613,0.032226562,-0.7439575,0.35150146,3.03125,0.734375,-6.265625
1664563046659,-0.22460938,-1.0254517,0.37005615,-1.84375,-10.25,-0.890625
1664563046703,-0.12182617,-1.0689087,0.35809326,4.34375,-8.265625,3.09375
1664563046735,0.007080078,-0.9741821,0.39031982,-5.78125,-1.015625,-3.21875
1664563046779,-0.059814453,-0.90582275,0.42816162,-2.453125,-3.1875,0.671875
1664563046824,-0.15112305,-0.9260864,0.37982178,2.375,1.375,-0.375
1664563046854,-0.20410156,-0.9241333,0.36419678,8.84375,8.4375,-0.234375
1664563046899,-0.06323242,-0.9011841,0.36956787,2.140625,8.359375,2.015625
1664563046943,0.06689453,-0.91363525,0.43670654,3.078125,5.34375,1.046875
1664563046974,-0.1616211,-0.93218994,0.401062,-1.203125,6.78125,-6.546875
1664563047019,-0.13305664,-0.9241333,0.41033936,0.125,4.296875,-0.109375
1664563047064,-0.027832031,-0.8633423,0.39593506,0.453125,7.28125,-2.1875
1664563047124,-0.06567383,-0.8821411,0.34246826,-0.046875,3.859375,-1.984375
1664563047140,-0.08984375,-0.8479614,0.39007568,1.640625,1.296875,-2.75
1664563047185,-0.09838867,-0.8513794,0.37200928,0.03125,-2.53125,-0.984375
1664563047244,-0.03955078,-0.80255127,0.28900146,1.546875,-8.375,1.03125
1664563047259,-0.087890625,-0.786438,0.3012085,-2.546875,-5.078125,0.0625
1664563047319,-0.027832031,-0.7420044,0.34490967,1.03125,-13.25,3.671875
1664563047364,-0.06982422,-0.82940674,0.38763428,3.453125,-12.484375,2.90625
1664563047366,-0.18017578,-0.8804321,0.37054443,2.8125,-11.140625,5.6875
1664563047424,-0.1508789,-0.862854,0.4862671,9.828125,-11.4375,6.21875
1664563047484,-0.22094727,-0.9138794,0.45037842,-0.359375,-6.453125,4.25
1664563047487,-0.2878418,-0.97857666,0.4779663,-4.953125,-3.578125,2.15625
1664563047544,-0.22753906,-0.928772,0.47991943,-0.421875,1.015625,0.390625
1664563047575,-0.21728516,-0.8533325,0.43426514,-0.265625,7.140625,-3.0
1664563047619,-0.091308594,-1.06427,0.3151245,-5.984375,0.015625,-1.984375
1664563047664,0.06347656,-1.3167114,0.4779663,-8.09375,5.484375,-8.953125
1664563047678,-0.23168945,-1.111145,0.3583374,-3.03125,13.390625,-10.34375
1664563047724,0.15258789,-1.1760864,0.47772217,5.109375,1.0625,-3.171875
1664563047784,0.2368164,-0.90631104,0.32733154,1.203125,10.765625,-8.15625
1664563047798,0.07788086,-0.85284424,0.21697998,16.453125,-8.609375,11.890625
1664563047844,0.091308594,-0.9573364,0.48162842,-3.1875,-24.328125,3.234375
1664563047904,-0.20922852,-1.0405884,0.39031982,16.5,-10.203125,4.484375
1664563047919,-0.12646484,-0.9199829,0.33807373,9.953125,-3.609375,5.75
1664563047967,0.046875,-0.9746704,0.36639404,1.84375,-8.0625,9.234375
1664563048024,-0.026611328,-0.91363525,0.385437,13.734375,-8.703125,8.328125
1664563048039,-0.16625977,-0.9668579,0.36029053,0.9375,-2.296875,4.640625
1664563048084,-0.083984375,-0.9373169,0.34320068,0.53125,-2.609375,4.984375
1664563048114,-0.025146484,-0.8687134,0.33172607,-1.859375,-0.984375,3.84375
1664563048159,-0.09765625,-0.90045166,0.40203857,-3.0,-0.96875,2.546875
1664563048205,-0.07080078,-0.90289307,0.36639404,1.921875,2.078125,-0.0625
1664563048234,-0.045410156,-0.8616333,0.34075928,-2.125,3.5625,-0.53125
1664563048279,-0.099609375,-0.8323364,0.31048584,-1.828125,9.859375,-1.78125
1664563048323,-0.080322266,-0.6873169,0.33319092,-1.015625,13.8125,-3.828125
1664563048355,-0.042236328,-0.708313,0.34832764,-0.5,17.375,-5.0
1664563048401,-0.038085938,-0.85113525,0.42303467,-0.859375,13.078125,-5.34375
1664563048444,-0.028320312,-0.9507446,0.4069214,2.75,12.125,-5.53125
1664563048474,-0.025390625,-0.93170166,0.42840576,2.796875,15.703125,-8.21875
1664563048519,-0.026123047,-0.9727173,0.4611206,4.015625,9.484375,-6.59375
1664563048565,-0.0041503906,-0.9368286,0.40350342,1.0,7.046875,-3.1875
1664563048593,-0.06542969,-0.88116455,0.4381714,-1.40625,5.609375,-5.671875
1664563048639,-0.06665039,-0.9360962,0.38446045,-6.875,1.609375,-2.8125
1664563048685,-0.01953125,-1.1616821,0.37371826,-18.90625,-6.265625,-0.34375
1664563048713,0.16235352,-1.0703735,0.3319702,-13.015625,-6.046875,6.828125
1664563048759,-0.11450195,-1.1189575,0.33026123,-20.765625,1.75,-1.375
1664563048804,-0.08129883,-1.2007446,0.39666748,-7.515625,-8.578125,5.765625
1664563048834,0.033935547,-0.9378052,0.4706421,-7.34375,2.71875,-0.546875
1664563048864,-0.11425781,-0.9780884,0.43670654,1.0625,-6.328125,-3.84375
1664563048925,-0.118652344,-0.9776001,0.35321045,0.359375,-7.484375,-0.296875
1664563048984,-0.11816406,-0.8779907,0.3859253,2.15625,-1.296875,-2.53125
1664563048987,-0.1027832,-0.8657837,0.33148193,3.5,5.15625,-0.984375
1664563049044,-0.059570312,-0.97613525,0.3805542,4.09375,7.109375,-3.21875
1664563049074,-0.12890625,-0.9536743,0.39569092,10.40625,12.578125,-2.625
1664563049103,-0.053710938,-0.90216064,0.39227295,1.328125,10.28125,-1.34375
1664563049164,-0.03125,-0.9578247,0.3817749,0.125,5.96875,-0.84375
1664563049179,-0.08276367,-0.84942627,0.3895874,-5.25,6.1875,0.28125
1664563049224,-0.059570312,-0.8616333,0.31781006,-3.328125,2.984375,2.8125
1664563049283,-0.018798828,-0.8706665,0.3546753,1.078125,3.625,3.9375
1664563049299,-0.0078125,-0.833313,0.34881592,3.609375,-1.40625,1.78125
1664563049344,-0.044189453,-0.78619385,0.3768921,-0.375,-9.640625,3.828125
1664563049404,-0.15893555,-0.68927,0.3131714,8.984375,-11.1875,8.9375
1664563049418,-0.10644531,-0.7229614,0.35003662,2.515625,-12.203125,11.515625
1664563049464,-0.076171875,-0.9155884,0.371521,-2.171875,-15.828125,8.953125
1664563049493,-0.04321289,-0.95562744,0.49725342,8.671875,-12.21875,6.875
1664563049538,-0.13696289,-0.8753052,0.5204468,-2.140625,-14.734375,7.828125
1664563049584,-0.18847656,-0.92510986,0.5512085,-3.46875,-15.5,4.71875
1664563049617,-0.14331055,-0.9365845,0.4484253,1.953125,-9.265625,4.65625
1664563049660,-0.16259766,-0.8257446,0.45550537,0.515625,-7.453125,-0.140625
1664563049703,-0.17041016,-1.036438,0.39813232,-9.015625,-6.453125,-2.8125
1664563049734,0.07324219,-1.2678833,0.49334717,-12.484375,-2.890625,-3.484375
1664563049779,-0.20166016,-1.038147,0.3788452,16.0,8.515625,-14.09375
1664563049823,0.05517578,-1.1919556,0.40325928,-6.921875,1.234375,5.421875
1664563049853,0.4025879,-1.0999146,0.4713745,19.390625,-1.796875,-6.59375
1664563049899,-0.05126953,-0.942688,0.27191162,14.375,4.4375,-1.703125
1664563049944,-0.0690918,-0.8928833,0.28167725,-3.1875,-5.53125,2.59375
1664563049974,0.04663086,-0.9307251,0.40130615,5.984375,-0.8125,5.28125
1664563050019,0.03857422,-0.9319458,0.3378296,9.15625,4.65625,0.03125
1664563050063,-0.11279297,-0.97076416,0.37908936,12.390625,1.65625,1.640625
1664563050093,7.324219E-4,-0.91534424,0.37835693,6.296875,-2.03125,3.875
1664563050138,0.0021972656,-0.9216919,0.36419678,5.59375,0.265625,1.109375
1664563050183,-0.07836914,-0.9578247,0.38690186,0.328125,-0.9375,-0.109375
1664563050228,-0.068603516,-0.93634033,0.3571167,-1.59375,-1.375,0.515625
1664563050244,-0.0847168,-0.9043579,0.31488037,-3.640625,5.1875,-1.921875
1664563050304,-0.080566406,-0.8921509,0.34661865,-2.4375,9.421875,-5.71875
1664563050334,-0.09277344,-0.83380127,0.41229248,2.328125,12.265625,-7.15625
1664563050364,-0.09082031,-0.8255005,0.3414917,1.484375,12.21875,-5.453125
1664563050425,0.011962891,-0.79888916,0.30438232,-1.046875,17.203125,-4.5
1664563050453,-0.05419922,-0.78326416,0.33758545,5.328125,18.03125,-6.953125
1664563050484,-0.03540039,-0.8862915,0.37860107,2.6875,12.28125,-7.859375
1664563050544,0.08178711,-0.9690552,0.4093628,0.40625,7.796875,-5.59375
1664563050574,-0.08300781,-0.8154907,0.3295288,6.21875,15.625,-3.140625
1664563050604,-0.0793457,-0.8093872,0.28656006,-4.28125,4.25,-2.09375
1664563050664,0.022460938,-0.86138916,0.4562378,-4.546875,1.6875,-2.546875
1664563050678,0.021484375,-0.88897705,0.50408936,4.796875,-2.03125,-2.046875
1664563050727,-0.06567383,-0.9458618,0.43621826,-5.5625,-6.78125,-0.953125
1664563050784,-0.103759766,-1.2092896,0.39666748,-16.4375,-11.25,3.359375
1664563050799,0.15161133,-1.2869263,0.43450928,-9.796875,-11.8125,14.046875
1664563050845,-0.030029297,-1.2959595,0.39105225,-17.921875,-2.71875,1.375
1664563050904,-0.21264648,-1.2075806,0.38568115,0.453125,-8.671875,10.0
1664563050918,0.04638672,-0.7485962,0.3397827,-8.203125,8.234375,6.203125
1664563050965,-0.20996094,-0.8401489,0.41986084,0.578125,7.046875,-10.984375
1664563050993,-0.071777344,-1.0076294,0.33148193,6.78125,-3.71875,6.390625
1664563051039,0.0034179688,-0.9246216,0.33831787,7.453125,5.546875,-4.828125
1664563051084,-0.07299805,-0.9192505,0.37957764,1.015625,2.34375,-2.8125
1664563051114,-0.03149414,-0.8999634,0.3703003,6.78125,0.296875,-0.5625
1664563051159,-0.083496094,-0.91973877,0.35882568,-3.390625,2.34375,-2.203125
1664563051205,-0.08618164,-0.93414307,0.3583374,-2.0,-0.28125,-1.9375
1664563051233,-0.07519531,-0.9151001,0.37420654,1.25,3.375,-3.6875
1664563051278,-0.0793457,-0.8977661,0.40130615,1.40625,2.171875,-0.203125
1664563051354,-0.06347656,-0.94000244,0.371521,-2.25,1.625,-2.28125
1664563051356,-0.080566406,-0.9299927,0.35662842,-5.96875,-4.21875,-2.140625
1664563051400,-0.059326172,-0.80963135,0.3222046,-1.21875,-5.75,-0.9375
1664563051447,-0.07739258,-0.788147,0.276062,-3.109375,-3.828125,2.5625
1664563051504,-0.029785156,-0.7932739,0.27752686,-2.484375,-2.765625,4.4375
1664563051534,-0.07080078,-0.8279419,0.33294678,-1.484375,-2.484375,4.03125
1664563051564,-0.1652832,-0.83843994,0.41131592,4.28125,-0.46875,3.625
1664563051594,-0.16455078,-0.8311157,0.46600342,-1.375,-3.578125,3.109375
1664563051639,-0.12573242,-0.8616333,0.5187378,0.484375,-5.625,3.984375
1664563051684,-0.17822266,-0.88897705,0.5578003,1.546875,-7.15625,1.09375
1664563051713,-0.18530273,-0.82403564,0.4755249,1.921875,-7.25,0.734375
1664563051744,-0.103515625,-0.8008423,0.37786865,-6.640625,-3.25,-0.71875
1664563051804,-0.052490234,-0.8740845,0.37664795,-10.53125,-12.953125,3.625
1664563051834,0.13964844,-1.2317505,0.40716553,-7.46875,-14.78125,3.078125
1664563051864,-0.087646484,-1.3052368,0.47357178,9.703125,-1.484375,-12.140625
1664563051925,0.08300781,-1.3674927,0.58343506,5.75,-1.609375,0.40625
1664563051957,0.119140625,-1.1109009,0.41400146,0.890625,-6.65625,2.140625
1664563051984,-0.13378906,-0.9170532,0.37054443,4.859375,1.78125,1.953125
1664563052044,-0.07397461,-0.78448486,0.31903076,9.0,-3.71875,6.8125
1664563052074,0.01586914,-0.83306885,0.28778076,0.578125,3.734375,5.484375
1664563052104,0.072509766,-0.90509033,0.33563232,4.046875,-0.578125,7.046875
1664563052164,0.026367188,-0.94000244,0.4081421,15.859375,-1.390625,5.296875
1664563052179,-0.08642578,-0.96954346,0.38861084,11.078125,-1.890625,1.015625
1664563052224,-0.10083008,-0.9710083,0.3756714,3.171875,1.28125,1.65625
1664563052286,-0.099609375,-0.9234009,0.36517334,3.71875,9.359375,-0.71875
1664563052298,-0.049316406,-0.8740845,0.33294678,4.21875,9.375,-0.59375
1664563052344,-0.01586914,-0.9282837,0.39227295,5.0,11.34375,-0.53125
1664563052403,-0.009765625,-0.9380493,0.3781128,2.75,9.75,-0.984375
1664563052433,-0.07324219,-0.9026489,0.29486084,0.875,12.96875,-2.890625
1664563052463,-0.056152344,-0.84161377,0.28460693,2.03125,16.109375,-5.390625
1664563052493,-0.027832031,-0.847229,0.3727417,0.359375,18.921875,-8.828125
1664563052539,-0.057373047,-0.82647705,0.4142456,1.21875,20.6875,-10.875
1664563052584,0.006591797,-0.7888794,0.27166748,2.796875,16.8125,-0.171875
1664563052617,0.12792969,-0.77056885,0.2531128,-2.859375,12.328125,-3.6875
1664563052658,-0.011230469,-0.81744385,0.30462646,-2.265625,8.796875,-2.703125
1664563052704,0.044921875,-0.96173096,0.4088745,-2.5625,-7.75,-1.28125
1664563052733,-0.008056641,-0.960022,0.416687,2.875,-4.625,-0.546875
1664563052779,-0.14086914,-0.86187744,0.5282593,5.015625,0.5625,-3.140625
1664563052824,-0.111328125,-0.9678345,0.48187256,0.078125,-6.296875,-2.359375
1664563052853,-0.033203125,-0.9116821,0.4105835,-5.75,-3.5625,-2.1875
1664563052899,-0.0126953125,-1.03302,0.31488037,-12.203125,-14.09375,-3.0
1664563052944,0.05517578,-1.2971802,0.4574585,-13.859375,-18.359375,5.328125
1664563052974,0.064453125,-1.0256958,0.31829834,-1.578125,-10.71875,8.78125
1664563053018,-0.22070312,-1.140686,0.35906982,-30.453125,-3.984375,-2.140625
1664563053064,0.010253906,-1.052063,0.34246826,6.921875,-11.171875,14.59375
1664563053094,-0.037109375,-0.8682251,0.40472412,-6.0,5.265625,-6.09375
1664563053138,-0.1352539,-1.0662231,0.34906006,2.609375,-8.03125,4.6875
1664563053183,0.012207031,-0.92681885,0.3583374,6.109375,-2.875,-2.0
1664563053213,-0.11791992,-0.93927,0.36346436,6.46875,1.484375,-3.375
1664563053244,-0.13671875,-0.9168091,0.3319702,6.21875,2.203125,-1.59375
1664563053305,-0.08251953,-0.89312744,0.33343506,5.734375,2.28125,-1.625
1664563053334,-0.045166016,-0.91900635,0.3973999,2.859375,2.65625,0.34375
1664563053379,-0.02709961,-0.9109497,0.36102295,4.140625,-0.328125,1.171875
1664563053424,-0.092285156,-0.91851807,0.34222412,-4.53125,-2.5,-2.4375
1664563053454,-0.028564453,-0.9133911,0.3517456,3.65625,-3.96875,3.1875
1664563053486,-0.10986328,-0.8936157,0.34320068,-0.90625,-5.296875,1.15625
1664563053559,-0.07788086,-0.93048096,0.33294678,-1.65625,-4.09375,0.28125
1664563053561,-0.036865234,-0.86798096,0.32073975,-5.484375,-7.359375,-0.21875
1664563053605,-0.13012695,-0.8118286,0.26361084,-2.8125,-8.140625,0.78125
1664563053664,-0.14038086,-0.788147,0.3300171,3.296875,-4.859375,7.84375
1664563053679,-0.044189453,-0.8010864,0.34783936,-0.90625,-4.0625,6.359375
1664563053725,-0.22290039,-0.91973877,0.4154663,-6.3125,3.0625,2.546875
1664563053784,-0.20898438,-0.8657837,0.4977417,-6.453125,-2.390625,5.328125
1664563053799,-0.048828125,-0.88409424,0.40789795,-1.65625,-1.9375,4.4375
1664563053847,-0.0012207031,-0.83721924,0.4052124,-0.03125,-2.0625,6.625
1664563053904,-0.2548828,-0.80548096,0.44744873,-1.703125,0.25,1.375
1664563053919,-0.33422852,-0.75567627,0.4862671,4.109375,6.421875,4.734375
1664563053965,-0.2043457,-0.7971802,0.46380615,4.96875,19.921875,4.265625
1664563053994,0.28198242,-1.27594,0.30804443,6.484375,4.59375,-7.515625
1664563054039,0.17578125,-1.399231,0.5009155,5.3125,5.328125,-26.96875
1664563054099,-0.053466797,-1.4048462,0.37493896,9.671875,12.578125,-6.5625
1664563054113,0.1665039,-1.0327759,0.31365967,6.671875,3.796875,-0.890625
1664563054161,-0.009765625,-0.93951416,0.35125732,0.90625,7.609375,-5.0
1664563054205,0.0,-0.90753174,0.26654053,0.640625,-1.84375,1.15625
1664563054234,0.037109375,-0.8850708,0.28411865,-5.171875,9.1875,-1.140625
1664563054281,0.10180664,-0.93292236,0.29925537,2.46875,-0.3125,3.671875
1664563054324,0.06591797,-0.96343994,0.40130615,8.828125,-4.875,3.734375
1664563054355,-0.10668945,-0.93048096,0.3534546,17.765625,-9.34375,4.328125
1664563054400,-0.06225586,-0.9324341,0.2929077,6.125,-10.96875,8.015625
1664563054447,0.056152344,-0.92633057,0.27581787,2.765625,-2.203125,3.5
1664563054474,0.048095703,-0.95318604,0.25946045,6.4375,-2.96875,3.75
1664563054535,0.03125,-0.97906494,0.28070068,8.09375,-5.203125,3.453125
1664563054579,0.009033203,-0.96954346,0.30804443,3.09375,-8.796875,3.6875
1664563054594,-0.04711914,-0.9751587,0.34710693,6.75,-2.109375,1.671875
1664563054684,-0.12451172,-0.93218994,0.35565186,3.421875,0.03125,-0.9375
1664563054686,-0.10668945,-0.92144775,0.29632568,8.78125,3.21875,-1.390625
1664563054713,-0.09082031,-0.90997314,0.2753296,-0.546875,9.171875,-4.609375
1664563054744,-0.118896484,-0.88946533,0.31488037,4.09375,14.984375,-6.625
1664563054807,-0.03100586,-0.83966064,0.2633667,0.484375,16.1875,-5.578125
1664563054834,0.051757812,-0.77789307,0.17913818,-2.421875,18.203125,-3.3125
1664563054864,0.03540039,-0.7866821,0.19378662,3.328125,13.234375,-4.328125
1664563054924,0.036376953,-0.82891846,0.26922607,4.375,10.71875,-2.78125
1664563054954,-0.0075683594,-0.87213135,0.3209839,3.1875,1.125,-1.46875
1664563054984,-0.118896484,-0.92315674,0.4076538,4.078125,2.5,-5.359375
1664563055044,-0.0925293,-1.0303345,0.40618896,0.734375,0.46875,-4.59375
1664563055058,-0.052490234,-0.9924927,0.39520264,-1.03125,5.5,-6.3125
1664563055104,-0.1105957,-0.97662354,0.3632202,-6.171875,1.71875,-5.34375
1664563055164,-0.025390625,-1.1848755,0.29437256,-13.078125,-7.03125,2.28125
1664563055179,0.18432617,-1.454895,0.2921753,-21.5625,-19.71875,11.890625
1664563055225,0.16381836,-1.0349731,0.2909546,-23.09375,-10.0,8.71875
1664563055285,-0.28198242,-1.0823364,0.37860107,-21.71875,-5.453125,0.375
1664563055299,-2.4414062E-4,-0.9002075,0.27093506,-8.0625,-12.140625,17.640625
1664563055359,0.049316406,-0.8308716,0.4022827,-4.234375,-4.875,-4.359375
1664563055420,-0.14575195,-1.0825806,0.33465576,0.03125,-12.5,4.734375
1664563055422,-0.05102539,-0.93951416,0.30462646,3.953125,-8.859375,3.75
1664563055463,-0.059814453,-0.9312134,0.3324585,1.40625,2.578125,-1.1875
1664563055494,-0.076660156,-0.958313,0.3546753,4.5625,2.140625,0.890625
1664563055539,-0.053466797,-0.9351196,0.31121826,2.234375,-0.3125,-0.625
1664563055584,-0.068115234,-0.9182739,0.32659912,3.484375,3.828125,-1.828125
1664563055614,-0.040039062,-0.9085083,0.37371826,3.640625,4.265625,-0.078125
1664563055659,-0.05029297,-0.9578247,0.32440186,3.140625,2.859375,-0.03125
1664563055704,-0.084228516,-0.9602661,0.3024292,2.109375,6.78125,-1.484375
1664563055734,-0.016845703,-0.9155884,0.32318115,5.390625,6.5,-1.3125
1664563055779,-0.043701172,-0.93096924,0.25994873,-0.390625,5.34375,-2.15625
1664563055824,-0.057128906,-0.9356079,0.28753662,-1.078125,3.828125,-1.78125
1664563055855,-0.03466797,-0.84942627,0.2921753,3.265625,7.453125,-3.15625
1664563055899,-0.022216797,-0.82159424,0.28607178,3.515625,6.4375,-3.015625
1664563055944,0.004638672,-0.81695557,0.29779053,-1.8125,0.234375,-0.71875
1664563055974,-0.032958984,-0.8587036,0.31097412,2.703125,-5.53125,-0.96875
1664563056018,-0.087646484,-0.81329346,0.32196045,6.25,-8.078125,5.0
1664563056064,-0.047607422,-0.8328247,0.34466553,-7.328125,-11.015625,5.296875
1664563056124,-0.08276367,-0.89923096,0.27630615,-1.640625,-16.671875,3.734375
1664563056139,-0.010009766,-0.8591919,0.35321045,0.328125,-15.984375,5.5625
1664563056185,-0.13183594,-0.97125244,0.37908936,-1.421875,-13.03125,4.40625
1664563056213,-0.38256836,-0.98565674,0.55145264,-11.15625,-6.90625,0.265625
1664563056244,-0.36865234,-0.9439087,0.4923706,-1.421875,5.375,-1.28125
1664563056304,-0.053466797,-1.0449829,0.41766357,-9.03125,11.453125,-4.75
1664563056333,-0.123291016,-1.3792114,0.4467163,0.59375,15.3125,-12.203125
1664563056364,-0.040039062,-1.1050415,0.41741943,-7.0625,18.171875,-15.296875
1664563056424,0.08911133,-1.0432739,0.30926514,-1.203125,17.90625,-6.765625
1664563056454,0.15917969,-1.0115356,0.3480835,3.09375,1.0625,0.40625
1664563056484,0.16064453,-0.9990845,0.3895874,4.265625,0.40625,-2.296875
1664563056544,0.033935547,-0.9331665,0.3378296,4.609375,-2.8125,1.453125
1664563056559,-0.025146484,-0.8880005,0.31097412,6.0,-3.53125,8.671875
1664563056604,0.0041503906,-0.93927,0.31097412,11.4375,-7.453125,7.96875
1664563056664,0.076660156,-1.0108032,0.44036865,11.484375,-7.203125,9.015625
1664563056679,-0.030273438,-0.960022,0.32904053,5.1875,-5.234375,4.5
1664563056725,-0.06298828,-0.9246216,0.3012085,0.390625,-3.203125,5.359375
1664563056783,0.0034179688,-0.9026489,0.35369873,9.0,-4.140625,4.828125
1664563056799,0.03930664,-0.9627075,0.35980225,7.765625,-3.4375,1.96875
1664563056844,0.020019531,-0.94195557,0.3048706,10.8125,-2.28125,2.109375
1664563056904,0.015136719,-0.92974854,0.27801514,3.46875,-4.90625,2.125
1664563056918,-0.008300781,-0.9456177,0.30926514,7.09375,-3.46875,3.21875
1664563056965,-0.05493164,-0.96295166,0.36468506,4.71875,-1.109375,-0.40625
1664563056994,-0.10668945,-0.93927,0.34295654,6.875,-0.234375,-1.703125
1664563057039,-0.12524414,-0.8916626,0.3270874,5.265625,8.65625,-5.75
1664563057085,-0.08129883,-0.83966064,0.29534912,-1.0,15.453125,-6.78125
1664563057114,-0.009033203,-0.7437134,0.246521,-7.75,17.765625,-4.734375
1664563057159,0.034179688,-0.6643677,0.18133545,-6.453125,19.625,-4.0
1664563057207,0.0715332,-0.71417236,0.24554443,-0.03125,9.78125,-4.21875
1664563057233,0.07446289,-0.83966064,0.354187,0.1875,1.3125,-4.90625
1664563057280,-0.05859375,-0.92022705,0.2909546,-0.5625,4.875,-7.234375
1664563057324,-0.040771484,-0.9829712,0.44866943,2.359375,2.96875,-7.03125
1664563057354,-0.022460938,-1.0195923,0.47625732,1.046875,2.375,-4.8125
1664563057398,-0.055419922,-0.9517212,0.37982178,-5.578125,0.046875,-5.09375
1664563057444,-0.044433594,-1.0645142,0.29486084,-14.703125,-6.796875,-3.1875
1664563057476,0.08154297,-1.4163208,0.354187,-17.796875,-13.90625,3.703125
1664563057520,0.2980957,-1.2507935,0.26239014,-11.9375,-12.53125,14.09375
1664563057565,-0.19091797,-1.1343384,0.4064331,-13.578125,-5.390625,-2.125
1664563057594,-0.19482422,-0.90997314,0.44891357,-6.1875,-2.390625,8.078125
1664563057640,-0.09887695,-0.8545532,0.2999878,-3.359375,-7.140625,-3.40625
1664563057684,-0.032958984,-0.989563,0.25408936,-0.609375,-3.328125,0.796875
1664563057715,-0.111816406,-0.9180298,0.31781006,8.59375,-0.5,1.421875
1664563057744,-0.140625,-0.9221802,0.34979248,-0.25,1.140625,-0.015625
1664563057806,-0.1027832,-0.9937134,0.34979248,5.4375,6.9375,-0.484375
1664563057834,-0.045654297,-0.9710083,0.34197998,0.828125,7.6875,-1.59375
1664563057864,-0.045898438,-0.9434204,0.33563232,5.3125,6.265625,-3.15625
1664563057924,-0.036621094,-0.88946533,0.38006592,2.796875,4.875,-2.03125
1664563057953,-0.038085938,-0.8928833,0.3348999,2.125,3.015625,-0.21875
1664563057986,-0.10864258,-0.942688,0.3468628,-3.71875,0.828125,-1.9375
1664563058044,-0.09643555,-0.9312134,0.3522339,-0.03125,-0.359375,-0.28125
1664563058058,-0.052734375,-0.89263916,0.35614014,-3.765625,3.75,-1.46875
1664563058104,-0.107910156,-0.9463501,0.3847046,-7.640625,-0.625,-4.359375
1664563058164,-0.1159668,-0.88848877,0.34857178,-5.484375,-6.71875,0.9375
1664563058178,-0.08569336,-0.83258057,0.29022217,-1.890625,-5.046875,3.015625
1664563058225,-0.0107421875,-0.81622314,0.2633667,8.640625,-1.71875,4.703125
1664563058284,-0.072509766,-0.80841064,0.20648193,10.328125,-8.453125,5.609375
1664563058299,0.0043945312,-0.7984009,0.32440186,6.28125,-6.796875,7.78125
1664563058344,-0.13110352,-0.8296509,0.41082764,2.890625,-3.703125,1.03125
1664563058374,-0.17578125,-0.9126587,0.4459839,1.765625,-11.234375,0.96875
1664563058419,-0.09643555,-0.956604,0.44647217,-0.65625,-5.125,2.953125
1664563058464,-0.17089844,-0.9590454,0.43865967,-0.328125,-1.453125,0.328125
1664563058494,-0.3022461,-0.91363525,0.45721436,-2.84375,-1.34375,-1.265625
1664563058538,-0.2446289,-0.94903564,0.4689331,-8.171875,4.296875,-1.65625
1664563058583,-0.1027832,-0.8340454,0.32318115,-2.09375,5.953125,-0.890625
1664563058613,-0.067871094,-1.1594849,0.28240967,-12.90625,0.40625,-7.546875
1664563058659,0.06591797,-1.3045044,0.5109253,-12.171875,4.453125,-10.078125
1664563058704,-0.03466797,-1.0730591,0.32757568,15.71875,19.125,-8.09375
1664563058733,0.07104492,-1.2300415,0.38226318,-10.6875,-3.390625,0.1875
1664563058779,0.049804688,-0.98638916,0.42718506,7.890625,14.203125,-5.75
1664563058824,-0.051513672,-0.95196533,0.27850342,8.109375,2.890625,4.5
1664563058857,0.08544922,-0.9595337,0.36712646,-7.875,0.59375,5.34375
1664563058899,0.05102539,-0.9065552,0.33099365,5.890625,5.734375,3.359375
1664563058944,-0.0068359375,-0.84039307,0.31048584,-0.796875,0.984375,5.90625
1664563058977,0.0021972656,-0.88482666,0.34783936,-1.515625,-0.234375,3.65625
1664563059019,-0.040039062,-0.96295166,0.4244995,-1.390625,0.953125,3.28125
1664563059064,-0.103027344,-0.95977783,0.43475342,2.3125,7.9375,3.765625
1664563059094,-0.022216797,-0.9109497,0.42816162,-3.3125,8.078125,4.21875
1664563059126,-0.011962891,-0.9067993,0.43670654,-2.484375,9.71875,2.4375
1664563059184,-0.0053710938,-0.9026489,0.43328857,2.5625,12.3125,2.421875
1664563059214,0.02734375,-0.86309814,0.36517334,1.5625,7.8125,1.6875
1664563059244,0.061035156,-0.8640747,0.4105835,-2.75,5.515625,0.546875
1664563059304,0.00390625,-0.8657837,0.42132568,4.46875,3.46875,-0.796875
1664563059334,-0.013671875,-0.862854,0.39788818,4.140625,3.125,-3.125
1664563059366,-0.0036621094,-0.84625244,0.4454956,2.609375,3.265625,-4.9375
1664563059424,-0.0073242188,-0.8250122,0.38250732,3.90625,2.171875,-4.5625
1664563059454,0.0390625,-0.8257446,0.37078857,0.609375,0.3125,-5.46875
1664563059484,0.017822266,-0.83258057,0.34881592,0.203125,-3.421875,-2.875
1664563059544,2.4414062E-4,-0.73272705,0.32366943,3.546875,0.609375,-1.875
1664563059559,-0.009033203,-0.78204346,0.34344482,0.640625,-2.40625,-3.953125
1664563059604,-0.04296875,-0.8062134,0.4093628,3.796875,-1.515625,-2.453125
1664563059664,-0.078125,-0.9085083,0.4623413,4.921875,2.46875,-4.265625
1664563059679,-0.075927734,-0.9841919,0.56365967,2.3125,1.28125,-4.796875
1664563059727,-0.13110352,-0.9898071,0.4725952,-2.640625,3.03125,-2.96875
1664563059784,-0.04638672,-0.93096924,0.42791748,-8.671875,1.75,-2.34375
1664563059799,0.018310547,-0.95147705,0.49017334,-7.8125,-5.015625,-3.265625
1664563059844,0.039794922,-1.2786255,0.5631714,-14.75,-17.5625,8.421875
1664563059875,0.07495117,-1.0962524,0.41766357,-20.765625,-5.328125,9.5625
1664563059919,-0.09399414,-1.0491333,0.42791748,-17.125,-8.609375,-3.984375
1664563059965,0.046142578,-1.109436,0.4118042,-2.484375,-17.9375,10.890625
1664563059994,0.080322266,-0.81500244,0.3690796,3.28125,-7.796875,-2.296875
1664563060039,-0.15893555,-0.91778564,0.30877686,-0.015625,-6.28125,-1.5
1664563060087,-0.107421875,-0.94659424,0.33148193,5.96875,-6.3125,6.203125
1664563060114,0.06567383,-0.89630127,0.35028076,3.5,-0.21875,1.390625
1664563060159,-0.06225586,-0.97906494,0.38641357,1.421875,1.21875,0.421875
1664563060205,-0.013183594,-0.9378052,0.39642334,11.96875,-1.03125,3.296875
1664563060234,-0.072509766,-0.8814087,0.39300537,7.703125,4.515625,-2.125
1664563060280,-0.095458984,-0.9651489,0.35101318,6.78125,1.703125,2.203125
1664563060325,0.016357422,-0.9055786,0.35150146,11.546875,0.765625,3.328125
1664563060354,-0.07446289,-0.9307251,0.387146,9.34375,0.390625,-1.1875
1664563060399,-0.1027832,-0.92510986,0.3534546,11.71875,-2.875,1.328125
1664563060445,-0.07104492,-0.8887329,0.3583374,9.8125,1.875,-0.375
1664563060474,-0.080322266,-0.8423462,0.32122803,7.703125,0.90625,-1.234375
1664563060519,-0.064697266,-0.85479736,0.28778076,3.21875,-2.296875,1.40625
1664563060566,-0.056152344,-0.81427,0.29022217,6.78125,-0.75,1.109375
1664563060594,-0.111083984,-0.8189087,0.28289795,-0.59375,2.703125,0.015625
1664563060624,-0.079589844,-0.89312744,0.34295654,-2.6875,1.671875,1.25
1664563060684,-0.044433594,-0.8887329,0.38861084,3.71875,-1.078125,0.984375
1664563060714,-0.0637207,-0.8562622,0.40960693,0.515625,-4.09375,2.359375
1664563060760,-0.099853516,-0.90509033,0.46063232,-4.03125,-6.984375,2.671875
1664563060805,-0.1809082,-0.9468384,0.42010498,-2.828125,-5.75,0.40625
1664563060834,-0.24414062,-0.95562744,0.4118042,-1.375,1.015625,-1.5
1664563060863,-0.15185547,-0.92071533,0.34222412,-2.203125,4.96875,-1.203125
1664563060926,-0.17480469,-0.90045166,0.3883667,-2.609375,3.375,-3.21875
1664563060954,-0.18334961,-0.93951416,0.33148193,-6.40625,2.359375,-4.515625
1664563060984,-0.06225586,-1.2244263,0.40301514,-11.1875,-3.65625,-6.453125
1664563061044,0.024658203,-1.1785278,0.4459839,-5.46875,4.78125,-10.734375
1664563061059,0.13549805,-1.0982056,0.26483154,-9.984375,2.3125,-5.953125
1664563061104,0.12084961,-1.0132446,0.4784546,-1.828125,-0.890625,-1.84375
1664563061164,-0.08618164,-0.98394775,0.43182373,4.859375,6.6875,-0.609375
1664563061178,-0.043945312,-0.973938,0.3583374,-4.40625,3.578125,1.65625
1664563061225,0.083984375,-0.9326782,0.40057373,3.40625,4.546875,3.09375
1664563061314,0.04321289,-0.8687134,0.3283081,2.3125,1.234375,5.78125
1664563061315,-0.006591797,-0.89434814,0.34320068,3.8125,-4.25,7.515625
1664563061360,0.0034179688,-0.87628174,0.36395264,6.546875,-6.78125,7.375
1664563061374,-0.052734375,-0.92388916,0.42156982,-1.875,-9.671875,5.46875
1664563061418,-0.1015625,-0.9421997,0.44256592,2.1875,-7.421875,7.046875
1664563061464,-0.1003418,-0.93585205,0.40130615,-1.328125,-2.203125,1.640625
1664563061493,-0.08325195,-0.9109497,0.45428467,-0.546875,4.15625,-0.328125
1664563061539,-0.05444336,-0.8706665,0.42474365,3.25,4.40625,-0.640625
1664563061584,-0.052734375,-0.84332275,0.38006592,5.296875,7.28125,-2.0625
1664563061613,-0.064453125,-0.8687134,0.39276123,2.828125,10.296875,-3.125
1664563061658,-0.01928711,-0.89019775,0.37078857,6.21875,8.8125,-3.546875
1664563061705,-0.032470703,-0.79522705,0.3522339,3.234375,10.78125,-6.890625
1664563061734,-0.09716797,-0.76519775,0.25115967,-2.375,15.078125,-6.625
1664563061779,0.03881836,-0.7156372,0.2970581,1.515625,14.109375,-2.796875
1664563061824,0.078125,-0.80963135,0.39227295,-0.25,8.34375,-5.640625
1664563061853,-0.061035156,-0.8687134,0.4628296,6.484375,8.25,-5.84375
1664563061899,-0.024658203,-0.9717407,0.5661011,-3.640625,12.359375,-5.8125
1664563061944,0.016113281,-0.9529419,0.58221436,-5.84375,6.609375,-6.109375
1664563061974,0.012207031,-0.8484497,0.46331787,1.890625,13.578125,-3.828125
1664563062018,-0.10668945,-0.7859497,0.3756714,-8.03125,3.578125,-3.171875
1664563062065,-0.052001953,-0.9680786,0.35321045,-17.296875,-6.796875,4.8125
1664563062093,0.19873047,-1.4526978,0.34246826,-18.25,-14.484375,10.46875
1664563062125,0.28295898,-1.0923462,0.24578857,-8.703125,-10.3125,9.34375
1664563062183,-0.32861328,-1.1882935,0.51776123,-5.390625,-7.484375,-0.265625
1664563062213,0.055419922,-0.878479,0.4664917,11.40625,-10.15625,6.921875
1664563062244,-0.21777344,-0.8130493,0.43597412,5.265625,-6.234375,-3.875
1664563062304,-0.1496582,-1.1963501,0.38201904,2.703125,-8.515625,7.703125
1664563062334,0.018554688,-0.9468384,0.34954834,15.90625,5.859375,-5.59375
1664563062364,-0.050048828,-0.8809204,0.340271,2.578125,6.140625,-3.640625
1664563062424,-0.07373047,-0.94976807,0.37054443,6.328125,-0.890625,-0.109375
1664563062454,-0.06689453,-0.8892212,0.291687,6.59375,6.984375,0.046875
1664563062486,-0.068847656,-0.909729,0.34197998,3.421875,4.0,-2.671875
1664563062544,-0.05493164,-0.92681885,0.3756714,5.609375,1.625,-1.578125
1664563062559,-0.068115234,-0.8999634,0.39276123,4.640625,2.90625,-0.015625
1664563062604,-0.05102539,-0.9014282,0.36517334,0.375,6.90625,-1.046875
1664563062679,-0.092041016,-0.90216064,0.3690796,1.1875,0.6875,-2.9375
1664563062681,-0.07373047,-0.88946533,0.3444214,3.609375,-3.421875,1.671875
1664563062724,-0.026367188,-0.84503174,0.30389404,-2.734375,-6.359375,1.625
1664563062785,-0.12890625,-0.82598877,0.34710693,3.921875,-7.734375,1.625
1664563062799,-0.05029297,-0.80474854,0.28533936,3.984375,-8.703125,5.484375
1664563062845,-0.0146484375,-0.8237915,0.24798584,1.703125,-5.984375,2.625
1664563062874,-0.1015625,-0.86383057,0.32366943,-0.609375,-8.25,4.1875
1664563062919,-0.08911133,-0.9182739,0.36663818,2.5625,-7.875,5.203125
1664563062965,-0.103027344,-0.92755127,0.39666748,-3.375,-6.296875,3.484375
1664563062994,-0.13110352,-0.94781494,0.4562378,0.25,-9.3125,3.1875
1664563063039,-0.23632812,-0.9517212,0.48260498,-1.28125,-4.34375,-0.125
1664563063084,-0.24389648,-0.9734497,0.43499756,1.53125,-0.90625,-0.59375
1664563063114,-0.21264648,-0.8584595,0.42132568,3.15625,2.40625,-3.734375
1664563063159,-0.20263672,-0.9602661,0.355896,-4.65625,3.3125,-6.296875
1664563063205,-0.030029297,-1.1653442,0.29656982,-8.453125,-1.59375,-7.171875
1664563063234,0.07446289,-0.95098877,0.28631592,-2.953125,11.765625,-12.75
1664563063279,0.18530273,-1.2576294,0.32000732,-4.015625,0.9375,1.296875
1664563063324,0.053466797,-1.0935669,0.5194702,-1.84375,4.0,-9.234375
1664563063353,-0.16259766,-0.9458618,0.31878662,5.375,14.6875,-2.28125
1664563063399,0.061279297,-1.0164185,0.41986084,-13.3125,-7.1875,0.828125
1664563063447,0.052978516,-1.1026001,0.4928589,0.875,-4.453125,-0.359375
1664563063474,-0.087646484,-0.8921509,0.21990967,2.359375,8.234375,-1.109375
1664563063519,-0.05126953,-0.76763916,0.34173584,-6.453125,-3.4375,5.5
1664563063564,0.035888672,-0.8740845,0.32147217,-1.890625,-3.515625,5.984375
1664563063593,-0.025146484,-0.94000244,0.38983154,1.09375,-5.609375,3.109375
1664563063626,-0.14892578,-0.9116821,0.38641357,-2.953125,-0.140625,4.328125
1664563063684,-0.068847656,-0.92633057,0.43670654,-4.8125,-3.6875,3.21875
1664563063714,-0.07299805,-0.9378052,0.47479248,9.34375,0.21875,0.203125
1664563063744,-0.16625977,-0.89556885,0.44036865,7.484375,5.4375,-5.65625
1664563063804,-0.17504883,-0.85723877,0.4196167,4.34375,9.734375,-4.578125
1664563063834,-0.063964844,-0.80133057,0.3829956,2.296875,17.296875,-6.796875
1664563063864,-0.049316406,-0.85821533,0.35028076,-6.046875,19.125,-7.203125
1664563063924,0.030517578,-0.84747314,0.3475952,-2.3125,18.15625,-3.859375
1664563063939,0.103027344,-0.77911377,0.33587646,-3.703125,16.53125,-3.0
1664563063984,0.021240234,-0.80718994,0.45184326,1.125,9.421875,-3.359375
1664563064044,-0.11328125,-0.87042236,0.49969482,8.25,5.78125,-4.578125
1664563064058,-0.083740234,-0.831604,0.45599365,4.1875,9.21875,-3.3125
1664563064104,-0.03149414,-0.8010864,0.41033936,-1.96875,7.859375,-1.765625
1664563064164,-0.011474609,-0.798645,0.38690186,-0.53125,1.234375,-1.625
1664563064180,-0.045410156,-1.0266724,0.38739014,-11.875,-2.09375,1.890625
1664563064224,0.064941406,-1.4993286,0.49554443,-5.65625,-10.140625,9.3125
1664563064284,0.2709961,-1.111145,0.34490967,-3.671875,-6.96875,13.375
1664563064298,-0.23535156,-1.2693481,0.4232788,-9.3125,-5.53125,-2.125
1664563064344,-0.08154297,-0.9939575,0.4118042,1.453125,-7.59375,8.109375
1664563064374,-0.08325195,-0.77471924,0.38397217,0.21875,-4.6875,-5.640625
1664563064418,-0.15063477,-0.9187622,0.30511475,4.40625,-7.078125,3.4375
1664563064464,-0.092041016,-0.96588135,0.26605225,7.296875,-0.03125,1.984375
1664563064494,-0.068847656,-0.9378052,0.3163452,4.640625,-2.765625,-2.625
1664563064538,-0.044921875,-0.9854126,0.38031006,9.09375,0.390625,0.96875
1664563064584,-0.04663086,-0.94976807,0.36566162,12.203125,-0.625,-0.921875
1664563064615,-0.0546875,-0.9155884,0.33148193,2.25,-1.75,-0.46875
1664563064659,-0.079589844,-0.8882446,0.35638428,8.484375,-4.53125,1.359375
1664563064703,-0.072265625,-0.87091064,0.3156128,5.90625,-9.3125,2.0
1664563064734,-0.09838867,-0.9055786,0.34539795,6.453125,-8.484375,1.296875
1664563064779,-0.10107422,-0.8928833,0.28289795,7.078125,-7.953125,2.71875
1664563064825,-0.036376953,-0.82647705,0.2880249,4.640625,-8.953125,2.828125
1664563064854,-0.15673828,-0.88531494,0.29486084,5.53125,-8.421875,3.0
1664563064899,-0.11743164,-0.9116821,0.30560303,2.296875,-10.484375,4.765625
1664563064943,0.009277344,-0.83062744,0.26556396,-0.421875,-4.3125,4.515625
1664563064975,-0.16333008,-0.89068604,0.3078003,4.328125,0.0,0.109375
1664563065018,-0.07104492,-0.8916626,0.31365967,1.96875,-6.75,4.0625
1664563065064,-0.10424805,-0.8665161,0.32733154,3.9375,-2.15625,0.75
1664563065097,-0.26293945,-0.940979,0.36346436,-8.71875,-4.84375,-0.515625
1664563065124,-0.13964844,-0.94537354,0.40838623,-5.140625,-3.78125,-0.65625
1664563065184,-0.19824219,-0.9932251,0.42547607,-10.390625,3.390625,-2.203125
1664563065214,-0.27124023,-0.9678345,0.40350342,-2.75,-0.234375,-0.3125
1664563065246,-0.15014648,-0.89678955,0.3007202,-11.375,4.625,-3.0
1664563065305,-0.16455078,-1.15094,0.32562256,-15.328125,4.5625,-7.96875
1664563065333,0.067871094,-1.175354,0.43060303,-9.140625,7.78125,-9.78125
1664563065365,0.13769531,-1.1921997,0.27215576,-2.6875,5.03125,-4.0625
1664563065425,0.05834961,-1.0762329,0.41131592,2.375,2.09375,-3.515625
1664563065438,-0.041503906,-0.9834595,0.34417725,1.96875,4.859375,-0.078125
1664563065485,0.044433594,-0.940979,0.34222412,3.40625,-5.03125,7.484375
1664563065544,0.045898438,-0.98760986,0.4611206,-5.625,-4.015625,2.671875
1664563065559,-0.083984375,-0.9260864,0.2897339,2.84375,1.15625,3.59375
1664563065607,-0.08984375,-0.8711548,0.37127686,-6.5,3.21875,4.96875
1664563065664,0.049804688,-0.9385376,0.38323975,-1.28125,1.734375,4.453125
1664563065679,-0.005126953,-0.9019165,0.3866577,-0.21875,1.796875,0.5625
1664563065724,-0.08959961,-0.911438,0.40716553,-4.8125,-2.5,3.234375
1664563065784,-0.013427734,-0.90875244,0.40789795,-1.640625,-4.4375,5.703125
1664563065799,0.004638672,-0.9067993,0.43304443,5.609375,-0.078125,-0.21875
1664563065846,-0.08642578,-0.928772,0.42840576,1.328125,-0.34375,0.8125
1664563065873,-0.06689453,-0.8875122,0.42889404,2.9375,2.59375,-0.703125
1664563065920,-0.10473633,-0.85601807,0.43572998,2.421875,6.421875,-3.625
1664563065979,-0.10253906,-0.8184204,0.41815186,-2.0625,10.328125,-1.34375
1664563065994,-0.015625,-0.7510376,0.32440186,2.140625,12.859375,-2.640625
1664563066039,-0.021972656,-0.7053833,0.31732178,-3.609375,12.828125,-3.9375
1664563066085,0.048095703,-0.6765747,0.3390503,-0.828125,11.5625,0.453125
1664563066114,0.03125,-0.7764282,0.38641357,2.640625,7.4375,-3.625
1664563066159,-0.05444336,-0.91607666,0.49627686,-2.875,3.234375,-2.1875
1664563066205,-0.0043945312,-0.8921509,0.5180054,7.578125,1.515625,0.09375
1664563066234,-0.0234375,-0.9295044,0.5621948,2.734375,1.046875,-4.6875
1664563066280,-0.024169922,-0.8909302,0.49725342,-0.015625,-3.15625,-1.5625
1664563066324,-0.038330078,-0.9780884,0.40716553,-4.09375,-9.375,-0.828125
1664563066354,-0.0026855469,-1.2476196,0.41107178,-24.90625,-11.6875,6.234375
1664563066400,0.2668457,-1.1846313,0.36346436,-13.234375,-7.921875,9.953125
1664563066444,-0.10522461,-1.1838989,0.41253662,-15.75,-4.265625,-1.296875
1664563066474,-0.08911133,-0.86016846,0.5326538,1.578125,-0.5,2.71875
1664563066520,-0.21313477,-0.925354,0.49261475,-1.03125,-3.890625,-3.609375
1664563066565,-0.020507812,-1.1013794,0.36151123,5.390625,-6.890625,3.828125
1664563066595,0.051757812,-0.8652954,0.3991089,17.125,-4.21875,-3.34375
1664563066684,-0.0949707,-0.8406372,0.3571167,16.546875,-6.5,0.6875
1664563066686,-0.095947266,-0.90753174,0.31195068,12.21875,-5.1875,1.453125
1664563066716,-0.0847168,-0.96295166,0.32147217,7.5625,2.078125,-0.171875
1664563066744,-0.05883789,-0.9727173,0.3866577,10.828125,3.078125,0.34375
1664563066804,-0.052734375,-0.9631958,0.35272217,9.6875,1.203125,-0.265625
1664563066834,-0.076171875,-0.9348755,0.3619995,8.4375,0.609375,0.875
1664563066864,-0.064941406,-0.90997314,0.31097412,11.15625,-3.59375,1.78125
1664563066925,-0.02758789,-0.89434814,0.27947998,6.296875,-1.453125,1.375
1664563066939,-0.04638672,-0.85406494,0.28094482,1.328125,-3.140625,1.203125
1664563066985,-0.079589844,-0.817688,0.24725342,2.90625,-4.546875,1.828125
1664563067044,-0.1171875,-0.8057251,0.27630615,3.828125,-5.828125,4.828125
1664563067076,-0.05029297,-0.82110596,0.2518921,4.828125,-9.515625,6.359375
1664563067103,-0.051757812,-0.8374634,0.2506714,0.625,-6.203125,5.546875
1664563067164,-0.1352539,-0.95098877,0.33538818,1.09375,-4.0,2.765625
1664563067179,-0.052734375,-0.8945923,0.324646,6.03125,-5.390625,5.5
1664563067224,-0.10595703,-0.91534424,0.32513428,2.8125,-3.53125,0.859375
1664563067284,-0.2133789,-0.9824829,0.3866577,-5.046875,-4.703125,1.484375
1664563067299,-0.25048828,-1.0020142,0.387146,-2.609375,-1.59375,-2.59375
1664563067344,-0.2175293,-0.94537354,0.37591553,-9.6875,3.578125,-4.859375
1664563067374,-0.2163086,-0.87457275,0.37200928,-7.96875,7.234375,-7.5625
1664563067419,-0.06762695,-1.0615845,0.32806396,-15.734375,-1.75,-5.25
1664563067464,0.099609375,-1.2593384,0.3222046,-15.15625,3.21875,-8.109375
1664563067495,0.044433594,-1.2161255,0.3517456,5.5625,10.46875,-9.296875
1664563067539,0.084472656,-1.1655884,0.44989014,3.953125,9.140625,-4.34375
1664563067585,-0.007080078,-0.92071533,0.38201904,-4.84375,10.828125,-2.265625
1664563067614,0.06616211,-0.9002075,0.22503662,-2.015625,-1.3125,5.9375
1664563067659,0.048828125,-0.9326782,0.4147339,-4.65625,-4.46875,-0.84375
1664563067704,-0.051513672,-0.9636841,0.34197998,6.875,1.953125,4.65625
1664563067733,0.039794922,-0.86431885,0.32537842,-5.015625,-4.1875,7.125
1664563067778,-0.07055664,-0.92510986,0.4039917,4.890625,-4.296875,5.09375
1664563067824,-0.14746094,-0.96954346,0.4237671,0.171875,1.46875,0.015625
1664563067855,-0.026123047,-0.9331665,0.401062,-3.203125,1.53125,3.484375
1664563067899,-0.05126953,-0.878479,0.39593506,-2.4375,8.53125,-0.8125
1664563067944,-0.087890625,-0.91851807,0.39544678,-0.703125,8.859375,2.484375
1664563067974,0.024658203,-0.92926025,0.42669678,1.859375,10.140625,2.53125
1664563068004,-0.03100586,-0.8772583,0.42718506,2.3125,12.8125,-3.015625
1664563068064,-0.064208984,-0.8518677,0.37200928,6.484375,14.203125,-2.515625
1664563068096,0.0014648438,-0.8423462,0.38934326,1.84375,12.140625,-3.8125
1664563068124,0.018554688,-0.82281494,0.36273193,2.421875,12.109375,-4.5625
1664563068199,-0.02734375,-0.8130493,0.38128662,6.828125,9.125,-6.53125
1664563068213,-0.030517578,-0.7390747,0.29412842,-1.875,15.265625,-4.859375
1664563068245,0.008544922,-0.72052,0.324646,-0.59375,14.09375,-3.125
1664563068304,0.032958984,-0.86920166,0.40618896,-2.265625,8.5625,-3.75
1664563068334,-0.034423828,-0.8921509,0.4364624,-2.359375,12.75,-5.125
1664563068366,-0.005126953,-0.88165283,0.4804077,0.953125,11.515625,-5.8125
1664563068424,0.043945312,-0.93170166,0.5783081,2.59375,6.46875,-5.1875
1664563068439,0.02734375,-0.9500122,0.5778198,3.140625,2.921875,-3.421875
1664563068485,-0.0043945312,-0.9248657,0.46258545,-4.578125,-2.75,-2.453125
1664563068545,-0.08691406,-1.1350708,0.44110107,-13.59375,-3.265625,1.40625
1664563068559,0.21606445,-1.3491821,0.36224365,0.59375,-13.890625,12.359375
1664563068605,0.34960938,-1.1099243,0.23065186,-4.140625,-12.765625,9.328125
1664563068664,-0.24658203,-1.2102661,0.3571167,-22.53125,-16.765625,-5.703125
1664563068678,-0.10058594,-0.9780884,0.32611084,6.375,-14.140625,14.796875
1664563068727,-0.0034179688,-0.7871704,0.28778076,4.28125,-3.109375,-6.953125
1664563068784,-0.1015625,-0.87506104,0.26483154,1.34375,-9.6875,2.96875
1664563068799,0.035888672,-0.911438,0.2826538,2.453125,-7.8125,3.8125
1664563068845,-0.043701172,-0.87335205,0.3493042,7.546875,-6.09375,-1.390625
1664563068874,-0.16674805,-1.0115356,0.39422607,2.3125,-7.265625,-0.703125
1664563068919,-0.06665039,-0.99786377,0.40008545,7.65625,-5.296875,1.46875
1664563068964,-0.1953125,-0.97735596,0.45916748,13.96875,-3.109375,-5.0
1664563068995,-0.09448242,-0.9390259,0.38568115,16.671875,-0.421875,1.578125
1664563069039,-0.0048828125,-0.8909302,0.2772827,8.828125,-2.625,-1.84375
1664563069084,-0.1027832,-0.9175415,0.28533936,0.984375,-6.0625,-3.203125
1664563069114,-0.09765625,-0.87677,0.3139038,3.828125,-4.046875,0.25
1664563069159,-0.07910156,-0.84088135,0.2958374,2.15625,-4.625,-1.234375
1664563069204,-0.15307617,-0.84820557,0.29119873,-0.046875,-5.8125,-0.390625
1664563069234,-0.0690918,-0.7944946,0.28289795,1.71875,-4.125,3.84375
1664563069280,-0.010986328,-0.7505493,0.24310303,3.140625,-2.78125,2.390625
1664563069324,-0.05029297,-0.8064575,0.29779053,-4.6875,5.640625,2.0
1664563069354,-0.10083008,-0.8772583,0.23773193,-7.65625,12.78125,2.578125
1664563069399,-0.1784668,-0.9221802,0.41864014,-8.96875,-6.796875,4.8125
1664563069444,-0.1381836,-0.9585571,0.45111084,-2.296875,-0.421875,5.453125
1664563069474,-0.1184082,-1.0383911,0.4935913,-8.125,-4.140625,2.609375
1664563069504,-0.15039062,-0.98321533,0.46209717,4.0,-7.234375,1.359375
1664563069565,-0.1899414,-0.9038696,0.4310913,5.265625,-4.109375,0.203125
1664563069594,-0.28857422,-0.9656372,0.3944702,0.40625,-1.21875,-5.125
1664563069624,-0.111083984,-1.1865845,0.34661865,-10.671875,-4.6875,-6.390625
1664563069684,0.064941406,-1.0803833,0.36956787,0.75,5.0,-8.78125
1664563069714,0.31323242,-1.3308716,0.4154663,-2.796875,-6.78125,-0.3125
1664563069746,-0.011230469,-1.0076294,0.4105835,-8.3125,8.296875,-13.328125
1664563069805,-0.17016602,-0.9451294,0.29510498,15.640625,9.828125,1.5625
1664563069864,0.080078125,-0.8843384,0.34783936,-14.171875,-9.0,-1.15625
1664563069865,-0.014892578,-1.0159302,0.35980225,6.40625,-1.1875,-0.25
1664563069927,-0.057861328,-0.9734497,0.28167725,5.21875,-0.703125,0.265625
1664563069939,-0.016113281,-0.94195557,0.3685913,-2.5625,-5.578125,6.046875
1664563069985,-0.08496094,-0.89678955,0.2987671,1.96875,0.484375,3.4375
1664563070044,-0.17895508,-0.92315674,0.3522339,1.0625,5.046875,3.40625
1664563070059,0.007080078,-0.9534302,0.3944702,1.234375,5.0,4.796875
1664563070104,0.026123047,-0.878479,0.387146,4.546875,7.3125,1.375
1664563070164,-0.080322266,-0.90997314,0.3522339,3.265625,5.828125,2.3125
1664563070179,0.013671875,-0.94903564,0.39178467,3.6875,3.46875,3.703125
1664563070224,-0.040283203,-0.9312134,0.35394287,0.96875,3.296875,1.625
1664563070254,-0.047851562,-0.911438,0.30975342,0.015625,3.640625,3.421875
1664563070299,-0.053222656,-0.83062744,0.40081787,-0.453125,7.3125,0.015625
1664563070344,-0.08178711,-0.7854614,0.36468506,5.109375,10.234375,-2.078125
1664563070374,-0.095947266,-0.77667236,0.32806396,-0.25,16.84375,-2.15625
1664563070419,-0.033935547,-0.7366333,0.30877686,-2.453125,18.453125,-2.390625
1664563070464,-0.025390625,-0.7337036,0.34295654,-2.5625,18.1875,-3.8125
1664563070494,0.0390625,-0.84747314,0.35784912,1.40625,12.984375,-3.125
1664563070539,0.05126953,-0.94659424,0.496521,0.484375,7.6875,-6.5625
1664563070584,0.0036621094,-0.97125244,0.5036011,2.125,3.09375,-4.296875
1664563070613,-0.03466797,-0.9048462,0.496521,2.5625,2.0,-3.90625
1664563070674,-0.072265625,-0.9109497,0.4743042,-4.09375,1.140625,-4.796875
1664563070703,-0.056640625,-1.0032349,0.38519287,-8.078125,-3.859375,0.3125
1664563070734,0.08544922,-1.4378052,0.4052124,-21.390625,-13.390625,6.890625
1664563070779,0.38476562,-1.0281372,0.3522339,-13.078125,-9.265625,11.34375
1664563070824,-0.16601562,-0.93756104,0.43597412,-14.28125,-1.875,-6.03125
1664563070854,-0.28344727,-1.1873169,0.32757568,-3.796875,-17.890625,13.703125
1664563070898,0.15600586,-0.913147,0.35687256,-13.1875,2.96875,-2.625
1664563070943,-0.11621094,-1.0015259,0.44525146,5.0625,3.984375,-6.96875
1664563070974,-0.028564453,-0.94781494,0.3163452,0.984375,-7.796875,2.53125
1664563071005,0.022460938,-0.9319458,0.4081421,4.875,-1.703125,-6.0625
1664563071064,-0.11621094,-0.8933716,0.39666748,0.140625,-2.0625,-1.984375
1664563071124,-0.057861328,-0.8928833,0.35125732,1.046875,-3.03125,2.734375
1664563071126,-0.056152344,-0.9019165,0.3690796,5.125,0.859375,-1.28125
1664563071185,-0.14501953,-0.9500122,0.27166748,-5.65625,11.3125,-0.859375
1664563071215,-0.0017089844,-0.90948486,0.37249756,-11.328125,-0.0625,-0.515625
1664563071244,0.03173828,-0.84161377,0.46820068,2.671875,3.46875,2.65625
1664563071304,-0.12475586,-0.9439087,0.46746826,3.96875,1.453125,-0.59375
1664563071338,-0.06323242,-0.9949341,0.49725342,2.453125,-5.125,1.921875
1664563071364,-0.044433594,-0.940979,0.42938232,8.0,-2.40625,1.359375
1664563071425,-0.064941406,-0.85821533,0.4093628,11.03125,-5.671875,0.484375
1664563071485,-0.059570312,-0.82159424,0.34588623,12.578125,-7.453125,0.9375
1664563071487,-0.07763672,-0.8130493,0.3143921,9.71875,-10.765625,1.21875
1664563071544,-0.03149414,-0.7144165,0.26287842,8.203125,-10.421875,3.484375
1664563071560,-0.099121094,-0.7192993,0.29534912,4.0,-6.59375,2.3125
1664563071604,-0.21142578,-0.8682251,0.36444092,-0.296875,-3.28125,2.234375
1664563071664,-0.17578125,-0.93927,0.39691162,-2.53125,4.375,1.546875
1664563071679,-0.04321289,-0.9085083,0.4335327,-0.8125,4.046875,2.09375
1664563071725,-0.056396484,-0.8596802,0.41351318,1.234375,1.96875,3.6875
1664563071753,-0.21240234,-0.8999634,0.5092163,-9.5,-1.0625,-1.21875
1664563071800,-0.23095703,-0.9143677,0.51898193,8.390625,4.359375,0.546875
1664563071844,-0.13500977,-0.8567505,0.33465576,-2.625,7.390625,-0.765625
1664563071875,-0.15258789,-0.96661377,0.38372803,-3.5,4.75,-3.78125
1664563071920,0.107177734,-1.2232056,0.41156006,-4.59375,-5.84375,-2.296875
1664563071965,0.029296875,-1.2451782,0.3319702,17.375,-1.5625,-11.734375
1664563071995,0.09082031,-1.2210083,0.42474365,-0.453125,3.640625,-5.4375
1664563072039,0.059326172,-0.9458618,0.3319702,9.859375,7.5,-5.859375
1664563072087,0.02368164,-1.000061,0.32122803,-1.03125,-7.8125,3.671875
1664563072114,0.044189453,-1.0401001,0.3949585,8.40625,-8.84375,0.65625
1664563072204,-0.1328125,-0.956604,0.2514038,5.078125,6.515625,0.09375
1664563072208,-0.017578125,-0.8076782,0.28411865,-6.6875,0.953125,6.203125
1664563072234,0.07836914,-0.8831177,0.3151245,3.828125,1.09375,5.0625
1664563072279,-0.015380859,-0.96832275,0.32318115,10.59375,1.078125,2.0625
1664563072324,-0.02319336,-0.9612427,0.36029053,3.265625,-0.9375,3.578125
1664563072354,-0.036621094,-0.9038696,0.38079834,7.421875,1.234375,1.953125
1664563072400,-0.06298828,-0.9932251,0.33807373,6.25,-1.578125,1.984375
1664563072444,0.011230469,-0.98321533,0.38446045,2.09375,-4.140625,4.375
1664563072474,-0.037109375,-0.94903564,0.34588623,0.21875,0.734375,3.3125
1664563072504,-0.061767578,-0.9146118,0.29412842,-3.046875,-1.203125,3.03125
1664563072564,-0.014404297,-0.909729,0.36541748,-1.5,-2.09375,1.53125
1664563072623,-0.068847656,-0.8460083,0.38275146,4.59375,3.984375,-2.625
1664563072624,-0.1665039,-0.7625122,0.3546753,3.5,10.671875,-6.203125
1664563072684,-0.075683594,-0.7686157,0.31781006,0.140625,9.109375,-3.015625
1664563072715,0.05859375,-0.76226807,0.2579956,-2.34375,12.765625,-3.796875
1664563072745,-0.022216797,-0.79156494,0.28411865,1.359375,11.734375,-5.28125
1664563072804,0.04663086,-0.8479614,0.3366089,1.546875,6.3125,-2.28125
1664563072819,0.014404297,-0.8897095,0.39056396,0.796875,5.984375,-5.53125
1664563072864,-0.052978516,-0.88360596,0.40985107,-0.265625,4.34375,-3.203125
1664563072924,0.0048828125,-0.94317627,0.42181396,-1.984375,1.140625,-2.859375
1664563072939,-2.4414062E-4,-1.0393677,0.45233154,-5.578125,-4.453125,-1.28125
1664563072984,-0.007080078,-1.3015747,0.43670654,-8.78125,-10.6875,5.03125
1664563073044,0.17236328,-1.303772,0.42791748,-4.59375,-13.75,11.296875
1664563073059,-0.080078125,-1.2686157,0.38006592,-20.921875,-2.859375,-1.453125
1664563073104,-0.11743164,-1.102356,0.31195068,-6.375,-9.4375,6.375
1664563073180,-0.042236328,-0.8015747,0.28900146,-12.8125,6.34375,-3.25
1664563073182,-0.122558594,-0.92633057,0.33709717,0.953125,-1.28125,-5.40625
1664563073224,0.005859375,-1.0388794,0.31878662,0.984375,-4.4375,3.375
1664563073254,-0.036865234,-0.9302368,0.31170654,4.40625,0.78125,-6.34375
1664563073300,-0.11035156,-0.909729,0.33099365,-0.328125,2.140625,-3.59375
1664563073345,-0.04663086,-0.9558716,0.3451538,4.90625,3.796875,-2.109375
1664563073374,-0.059814453,-0.973938,0.30096436,5.515625,4.484375,-2.390625
1664563073419,-0.099853516,-0.97369385,0.35394287,1.5625,4.515625,-3.171875
1664563073465,-0.052734375,-0.9595337,0.33294678,4.578125,2.90625,-0.84375
1664563073495,-0.05053711,-0.93048096,0.322937,2.671875,3.75,-2.46875
1664563073539,-0.088134766,-0.9229126,0.32757568,3.265625,2.515625,-3.3125
1664563073584,-0.10498047,-0.89263916,0.30633545,5.796875,2.03125,-2.15625
1664563073646,-0.037109375,-0.85943604,0.2831421,-0.46875,0.078125,-1.9375
1664563073659,-0.106933594,-0.8718872,0.32366943,3.671875,-4.15625,-2.4375
1664563073705,-0.14916992,-0.90753174,0.34857178,2.828125,-2.890625,-0.015625
1664563073733,-0.05517578,-0.90509033,0.31951904,1.65625,-3.546875,2.5625
1664563073779,0.019042969,-0.78912354,0.28338623,4.25,-2.09375,1.484375
1664563073823,-0.045410156,-0.75079346,0.24310303,10.140625,-3.171875,2.78125
1664563073854,-0.12646484,-0.8381958,0.29925537,3.578125,-7.21875,2.125
1664563073900,-0.23144531,-0.8833618,0.35028076,3.671875,-4.125,1.15625
1664563073945,-0.20288086,-0.84991455,0.3788452,-7.296875,0.921875,-0.921875
1664563073974,-0.13208008,-0.9221802,0.41448975,-7.40625,4.53125,-1.046875
1664563074006,-0.12036133,-0.8804321,0.50579834,-3.34375,0.71875,0.59375
1664563074064,-0.15185547,-0.9927368,0.4171753,-3.125,1.9375,-0.84375
1664563074095,-0.14379883,-0.85528564,0.4208374,4.390625,2.390625,0.140625
1664563074124,-0.1616211,-0.99786377,0.28900146,1.21875,-2.375,-2.6875
1664563074184,-0.06713867,-1.3169556,0.3324585,-4.03125,-7.984375,-1.984375
1664563074214,-0.06201172,-1.1016235,0.3319702,15.890625,-6.34375,-2.96875
1664563074244,0.018066406,-1.4712524,0.41400146,-0.96875,-6.703125,-1.125
1664563074304,0.016357422,-1.022522,0.37249756,-4.453125,0.34375,-0.125
1664563074319,-0.092041016,-0.9282837,0.20574951,7.78125,4.140625,2.59375
1664563074365,-0.004638672,-0.9314575,0.34124756,-13.375,-4.453125,0.84375
1664563074425,0.047851562,-0.96881104,0.29388428,9.59375,3.875,4.765625
1664563074438,0.052978516,-0.9092407,0.27435303,4.796875,1.328125,5.0625
1664563074499,0.010986328,-0.9470825,0.30682373,-2.03125,-5.5625,9.390625
1664563074544,-0.10864258,-1.0061646,0.32489014,5.125,-7.890625,4.203125
1664563074559,-0.12207031,-0.98101807,0.31976318,-1.078125,-3.5625,4.03125
1664563074605,0.0024414062,-0.92803955,0.35247803,-6.421875,-3.59375,4.140625
1664563074664,-0.06298828,-0.9109497,0.33587646,-2.84375,-4.75,5.140625
1664563074679,-0.12817383,-0.9180298,0.35638428,-1.4375,-0.5,3.40625
1664563074725,-0.08618164,-0.9019165,0.30145264,-2.9375,2.078125,2.765625
1664563074754,-0.04711914,-0.87042236,0.3204956,-3.796875,6.796875,0.59375
1664563074799,-0.08886719,-0.83184814,0.38323975,7.109375,13.9375,-3.859375
1664563074845,-0.07788086,-0.8479614,0.36663818,0.75,12.15625,-2.453125
1664563074874,-0.0021972656,-0.86724854,0.3468628,5.75,10.90625,-4.34375
1664563074920,-0.006591797,-0.8760376,0.3036499,3.421875,13.40625,-4.171875
1664563074965,0.01928711,-0.8081665,0.32977295,3.25,14.03125,-3.5625
1664563074995,-0.045166016,-0.9024048,0.30096436,2.40625,7.90625,-5.4375
1664563075039,-0.052001953,-0.8882446,0.40325928,2.5,6.59375,-4.375
1664563075084,-0.030761719,-0.88238525,0.32635498,1.8125,8.765625,-4.953125
1664563075117,-0.044189453,-0.8677368,0.4142456,-1.234375,7.9375,-4.703125
1664563075160,-0.033691406,-0.9036255,0.42474365,0.421875,2.59375,-2.953125
1664563075204,-0.059570312,-0.9060669,0.40472412,-1.34375,0.984375,-3.65625
1664563075233,-0.083740234,-1.0054321,0.34539795,-8.171875,-6.5,-2.3125
1664563075279,0.0014648438,-1.4192505,0.3607788,-14.796875,-10.53125,3.140625
1664563075325,0.25634766,-1.111145,0.3366089,-5.21875,-7.375,11.15625
1664563075355,-0.09448242,-1.1184692,0.3632202,-5.9375,-4.125,-0.65625
1664563075399,-0.092285156,-0.9619751,0.3324585,2.125,-5.765625,7.046875
1664563075444,-0.10107422,-0.9199829,0.3036499,2.796875,-2.1875,-0.296875
1664563075474,-0.14770508,-1.0525513,0.2850952,6.65625,2.59375,-1.109375
1664563075503,0.05078125,-1.0112915,0.262146,12.171875,10.875,2.78125
1664563075564,0.014404297,-0.925354,0.29974365,4.640625,7.828125,-3.484375
1664563075594,-0.013671875,-0.91363525,0.26849365,11.65625,4.296875,-0.546875
1664563075625,-0.020263672,-0.9038696,0.25628662,9.09375,0.125,0.65625
1664563075699,-0.022705078,-0.9536743,0.2489624,11.6875,-2.265625,0.921875
1664563075714,-0.02734375,-0.9951782,0.29315186,10.09375,-3.265625,1.359375
1664563075744,-0.052978516,-1.000061,0.28216553,11.6875,-6.28125,1.15625
1664563075804,-0.10131836,-0.98638916,0.24945068,6.359375,-3.953125,-2.4375
1664563075818,-0.08325195,-0.9529419,0.24578857,8.546875,-1.734375,-2.828125
1664563075864,-0.064697266,-0.94122314,0.22894287,3.125,-0.8125,-2.015625
1664563075924,-0.068603516,-0.90289307,0.2098999,1.46875,-1.078125,-2.234375
1664563075939,-0.06225586,-0.88531494,0.19915771,-1.25,-3.234375,-0.84375
1664563075984,0.0048828125,-0.80303955,0.20941162,-0.1875,-2.59375,0.90625
1664563076044,-0.04736328,-0.8152466,0.19134521,-6.734375,-6.953125,0.578125
1664563076058,-0.09399414,-0.8657837,0.24603271,-4.328125,-7.421875,2.1875
1664563076104,-0.037109375,-0.7727661,0.2333374,-1.4375,-5.46875,2.921875
1664563076164,-0.06640625,-0.866272,0.215271,-4.703125,-12.453125,2.640625
1664563076179,-0.17651367,-0.92071533,0.3439331,-4.375,-12.15625,3.8125
1664563076227,-0.2265625,-0.9898071,0.37664795,-7.0,-9.15625,-0.046875
1664563076254,-0.2956543,-1.0149536,0.46502686,-10.59375,-2.734375,0.125
1664563076299,-0.22021484,-0.8899536,0.38812256,-6.546875,2.484375,0.25
1664563076344,-0.08862305,-1.013977,0.2555542,-13.46875,-2.15625,-0.09375
1664563076374,0.07348633,-1.3091431,0.30926514,-11.21875,-2.578125,-1.859375
1664563076418,-0.008056641,-1.1436157,0.3324585,0.546875,15.65625,-10.28125
1664563076465,0.06982422,-1.1629028,0.37542725,4.265625,8.25,0.828125
1664563076494,0.088378906,-1.0811157,0.3756714,-3.375,0.90625,-1.546875
1664563076539,-0.021972656,-1.0076294,0.32513428,5.125,4.515625,-1.765625
1664563076585,0.015380859,-0.97735596,0.30682373,2.015625,0.5625,-0.546875
1664563076613,-0.024169922,-0.9463501,0.3270874,-3.4375,2.8125,1.046875
1664563076673,-0.0146484375,-0.90582275,0.27386475,3.75,4.078125,2.53125
1664563076704,0.034179688,-0.91192627,0.322937,-6.546875,0.65625,3.515625
1664563076734,0.039794922,-0.92193604,0.2946167,8.015625,-3.578125,5.375
1664563076778,-0.009277344,-0.9209595,0.37127686,1.703125,-0.71875,4.265625
1664563076824,-0.041503906,-0.93218994,0.3468628,5.125,-2.8125,5.25
1664563076854,-0.12670898,-0.99542236,0.34661865,4.671875,-1.859375,0.984375
1664563076884,-0.0769043,-0.9907837,0.3895874,1.875,1.578125,0.4375
1664563076944,-0.08300781,-0.90289307,0.35980225,1.453125,5.09375,-1.765625
1664563076974,-0.17578125,-0.7842407,0.37713623,6.03125,13.390625,-4.890625
1664563077007,-0.18774414,-0.7737427,0.3270874,-0.5625,19.15625,-4.71875
1664563077064,0.024902344,-0.7671509,0.2843628,-6.953125,24.796875,-3.28125
1664563077094,0.104003906,-0.8123169,0.30096436,-1.234375,21.5,-4.328125
1664563077124,0.026367188,-0.88360596,0.40350342,3.078125,17.5625,-5.6875
1664563077184,0.06542969,-0.86846924,0.3776245,-2.15625,7.984375,-3.4375
1664563077214,-0.0034179688,-0.8648071,0.40594482,0.859375,5.203125,-4.296875
1664563077244,-0.044677734,-0.9043579,0.43670654,-0.34375,-1.90625,-2.796875
1664563077304,-0.033447266,-0.89727783,0.4743042,-0.546875,-3.796875,-1.890625
1664563077320,-0.043945312,-1.0149536,0.34613037,-10.078125,-10.828125,-2.3125
1664563077367,0.012451172,-1.263977,0.29388428,-22.65625,-14.6875,5.515625
1664563077424,0.23901367,-1.1377563,0.2411499,-9.640625,-12.71875,9.5
1664563077439,-0.12060547,-1.1624146,0.4147339,-12.34375,-1.9375,-0.078125
1664563077485,-0.06640625,-0.9558716,0.3612671,-3.15625,3.6875,7.109375
1664563077544,0.03564453,-0.817688,0.28826904,0.4375,-5.25,-1.375
1664563077558,-0.07006836,-0.9282837,0.29486084,5.078125,-2.1875,1.15625
1664563077607,-0.02734375,-1.0618286,0.34735107,6.84375,-8.046875,3.546875
1664563077634,-0.0703125,-0.9795532,0.3619995,6.796875,4.109375,-0.625
1664563077680,-0.03173828,-1.0291138,0.4039917,2.484375,-0.765625,-0.359375
1664563077724,-0.039794922,-0.9907837,0.36224365,0.53125,3.78125,-1.78125
1664563077755,-0.045898438,-0.9495239,0.3583374,4.34375,-1.921875,-2.078125
1664563077800,-0.035888672,-0.9373169,0.36053467,1.328125,-2.3125,-0.890625
1664563077845,-0.02319336,-0.8657837,0.35369873,-0.984375,-5.546875,-2.40625
1664563077875,-0.08300781,-0.80792236,0.34368896,0.421875,-6.65625,-1.375
1664563077920,-0.1171875,-0.8230591,0.33563232,-1.5625,-6.734375,1.15625
1664563077965,-0.13989258,-0.7883911,0.34832764,-1.296875,-7.90625,2.484375
1664563077994,-0.1472168,-0.8364868,0.37249756,-6.234375,-1.96875,2.53125
1664563078040,-0.060546875,-0.84454346,0.32733154,-3.828125,-4.8125,5.671875
1664563078084,-0.07421875,-0.817688,0.41033936,-7.0,-1.640625,2.234375
1664563078116,-0.26171875,-0.85040283,0.51434326,-0.59375,-0.65625,-0.515625
1664563078159,-0.19165039,-0.8171997,0.4611206,-6.359375,-3.40625,0.0
1664563078207,-0.18579102,-0.8623657,0.54193115,-5.671875,-4.578125,-5.4375
1664563078234,-0.22973633,-1.1904907,0.49920654,-3.171875,-2.53125,-7.234375
1664563078279,0.111328125,-1.3584595,0.56658936,-7.625,-2.109375,-12.75
1664563078325,-0.02319336,-0.9849243,0.47210693,13.828125,5.78125,-16.609375
1664563078353,-0.064208984,-0.91485596,0.4052124,8.453125,-4.125,-0.90625
1664563078387,0.08691406,-1.1253052,0.34320068,-7.4375,-10.71875,1.796875
1664563078445,0.06665039,-0.93414307,0.33026123,14.359375,-0.859375,-0.40625
1664563078474,-0.051513672,-0.9343872,0.35491943,-3.796875,-0.5,-0.046875
1664563078504,-0.07104492,-0.99346924,0.44256592,8.53125,-1.3125,7.0
1664563078564,-0.047607422,-0.89385986,0.39154053,9.109375,-3.609375,5.640625
1664563078595,-0.02319336,-0.8413696,0.3534546,0.296875,-2.8125,6.890625
1664563078624,-0.06567383,-0.8711548,0.43377686,11.21875,-0.03125,6.5625
1664563078684,-0.06640625,-0.9175415,0.39300537,10.109375,-4.84375,7.03125
1664563078744,-0.032470703,-0.8772583,0.39178467,5.671875,-2.71875,5.34375
1664563078746,-0.056640625,-0.769104,0.37176514,9.171875,2.0625,0.984375
1664563078806,-0.06958008,-0.74591064,0.36346436,-2.46875,8.9375,-2.828125
1664563078819,-0.04321289,-0.8491821,0.33563232,5.40625,9.125,-7.03125
1664563078865,-0.22241211,-1.8233032,0.4064331,-20.421875,-15.671875,-19.609375
1664563078925,0.1862793,-0.8989868,0.10882568,14.328125,38.78125,13.390625
1664563078939,-0.18481445,-0.7163696,0.15960693,-0.265625,23.515625,-10.453125
1664563078985,-0.079833984,-0.97320557,0.20013428,-0.296875,13.28125,-8.265625
1664563079044,0.22387695,-1.1890259,0.37982178,4.75,12.25,5.34375
1664563079058,-0.08935547,-0.9414673,0.19329834,14.25,6.28125,-8.140625
1664563079104,-0.13256836,-0.9085083,0.1852417,-0.671875,1.59375,4.078125
1664563079133,0.03881836,-0.93634033,0.23968506,11.84375,-1.65625,-0.890625
1664563079179,0.0048828125,-0.94488525,0.17108154,3.515625,-1.5,1.859375
1664563079225,-0.057861328,-1.017395,0.17840576,-8.234375,-7.609375,1.9375
1664563079254,-0.02758789,-1.1157837,0.3475952,5.234375,-4.796875,-0.96875
1664563079299,0.0390625,-0.99835205,0.29437256,7.203125,-7.3125,-1.46875
1664563079343,-0.08129883,-0.90582275,0.23431396,7.109375,-3.484375,0.125
