# Sensor type: Respeck
# Activity type: Descending stairs
# Activity code: 13
# Subject id: s1912558
# Notes: 
timestamp,accel_x,accel_y,accel_z,gyro_x,gyro_y,gyro_z
1664563315942,-0.05908203,-0.93096924,0.36053467,-3.15625,2.109375,-0.71875
1664563315988,-0.05444336,-0.93585205,0.39666748,-4.328125,4.171875,-0.390625
1664563316018,-0.05419922,-0.9290161,0.3756714,-0.890625,2.1875,-0.1875
1664563316066,-0.044189453,-0.9241333,0.39471436,-3.1875,1.96875,0.484375
1664563316108,-0.052734375,-0.9319458,0.39544678,-2.828125,1.546875,0.53125
1664563316139,-0.060302734,-0.92681885,0.39056396,-1.171875,0.9375,1.046875
1664563316184,-0.044677734,-0.9209595,0.40545654,-1.546875,0.90625,0.75
1664563316229,-0.04638672,-0.91778564,0.39569092,-0.15625,0.3125,0.734375
1664563316259,-0.041992188,-0.91900635,0.40203857,-0.125,-0.671875,0.921875
1664563316303,-0.0546875,-0.927063,0.41375732,-0.171875,0.1875,0.53125
1664563316348,-0.068603516,-0.9273071,0.40740967,0.171875,1.328125,0.203125
1664563316378,-0.07055664,-0.91729736,0.39154053,-1.734375,2.578125,1.046875
1664563316423,-0.07714844,-0.9121704,0.41107178,-1.21875,3.125,-0.078125
1664563316453,-0.083740234,-0.9282837,0.4232788,-0.421875,2.578125,0.40625
1664563316499,-0.07788086,-0.9121704,0.40985107,-0.078125,4.453125,-0.578125
1664563316544,-0.107421875,-0.9102173,0.40545654,-0.484375,7.0,-1.734375
1664563316574,-0.08105469,-0.8933716,0.41448975,-0.421875,6.25,-1.546875
1664563316618,-0.052490234,-0.8855591,0.38275146,1.890625,5.9375,-1.5
1664563316664,0.018066406,-0.85113525,0.32733154,3.671875,3.9375,-1.640625
1664563316693,0.043701172,-0.8467407,0.3842163,8.90625,0.21875,0.640625
1664563316739,-0.024658203,-0.9483032,0.43133545,7.359375,-4.75,1.453125
1664563316769,-0.029541016,-0.91192627,0.49456787,8.84375,-5.703125,4.203125
1664563316814,-0.21289062,-0.94854736,0.62371826,4.84375,-1.40625,0.03125
1664563316859,-0.21850586,-1.0059204,0.5812378,5.65625,-3.703125,-0.046875
1664563316889,0.025634766,-0.9351196,0.4640503,14.53125,0.34375,0.34375
1664563316934,0.055908203,-0.80352783,0.37249756,1.71875,9.328125,-1.578125
1664563316978,-0.057128906,-0.8262329,0.39007568,6.359375,3.546875,-0.390625
1664563317009,-0.020263672,-0.8496704,0.33758545,8.046875,0.421875,-0.28125
1664563317053,-0.05419922,-0.87628174,0.41522217,4.984375,-0.6875,-3.390625
1664563317129,-0.04296875,-0.9216919,0.40740967,1.15625,-7.9375,-1.140625
1664563317130,-0.028564453,-0.9326782,0.4232788,0.015625,-9.109375,-0.6875
1664563317174,-0.028564453,-0.9116821,0.43011475,-0.390625,-3.53125,1.390625
1664563317204,-0.06518555,-0.8850708,0.40985107,-1.5,-6.984375,1.71875
1664563317249,-0.1352539,-0.8635864,0.44158936,-2.6875,-3.59375,-0.1875
1664563317295,-0.22460938,-0.93829346,0.4147339,-11.78125,-2.296875,-2.046875
1664563317324,-0.08496094,-1.1172485,0.43719482,-15.53125,-8.984375,2.765625
1664563317369,-7.324219E-4,-1.1035767,0.47332764,-24.359375,-10.0625,3.609375
1664563317414,-0.029541016,-0.8508911,0.30438232,-9.265625,-0.828125,-0.328125
1664563317443,-0.2524414,-0.74835205,0.230896,-1.984375,24.34375,-2.421875
1664563317488,-0.040283203,-1.0020142,0.23406982,-3.828125,15.359375,2.421875
1664563317518,0.2397461,-1.1934204,0.43597412,12.71875,7.3125,1.15625
1664563317563,0.11743164,-0.9976196,0.36395264,11.53125,4.390625,-4.609375
1664563317623,-0.07714844,-0.92266846,0.324646,-2.484375,3.171875,-6.875
1664563317638,-0.11694336,-0.9475708,0.4237671,1.234375,-0.484375,-2.15625
1664563317684,-0.017089844,-0.878479,0.34417725,4.109375,-4.234375,-0.078125
1664563317729,0.021972656,-0.7476196,0.30096436,5.96875,-8.140625,-1.90625
1664563317759,-0.057373047,-0.6609497,0.32537842,6.15625,-10.734375,-0.78125
1664563317804,-0.15161133,-0.5923462,0.25823975,6.765625,-14.9375,5.40625
1664563317849,-0.1694336,-0.68096924,0.25115967,-6.265625,-6.046875,2.78125
1664563317878,-0.13964844,-0.79400635,0.32781982,-7.578125,-11.140625,1.890625
1664563317923,-0.24829102,-0.7984009,0.45794678,-8.34375,-1.109375,0.359375
1664563317954,-0.28344727,-0.9006958,0.4459839,-1.046875,2.3125,-0.015625
1664563317998,-0.17285156,-0.7769165,0.37322998,0.78125,2.921875,-1.5
1664563318044,-0.26635742,-0.7251587,0.39056396,-8.109375,-0.4375,-6.625
1664563318073,0.011962891,-0.8867798,0.21136475,-9.546875,-8.65625,2.953125
1664563318119,0.1862793,-1.4575806,0.35491943,-4.1875,-4.609375,-3.109375
1664563318164,0.14575195,-1.5066528,0.70111084,8.734375,-1.296875,-9.96875
1664563318193,-0.2121582,-1.0322876,0.6630249,10.265625,32.609375,-8.5625
1664563318239,-0.0146484375,-1.0984497,0.3053589,14.59375,-11.671875,21.5
1664563318268,0.38623047,-1.0957642,0.5778198,-21.28125,-0.484375,6.046875
1664563318313,-0.07739258,-0.8731079,0.3493042,12.46875,-1.625,-3.359375
1664563318359,-0.19750977,-0.61187744,0.19158936,-0.46875,-0.890625,8.578125
1664563318389,0.009277344,-0.5671997,0.2584839,-3.296875,-0.953125,4.53125
1664563318435,0.061767578,-0.6980591,0.41033936,6.609375,2.5,1.109375
1664563318479,-0.053710938,-0.6026001,0.30096436,11.109375,10.15625,-3.546875
1664563318509,-0.0847168,-0.58843994,0.41644287,1.171875,11.71875,-4.640625
1664563318554,0.080078125,-0.69244385,0.37225342,10.0,11.625,-1.6875
1664563318599,0.08642578,-0.9846802,0.42840576,-0.375,-1.40625,0.6875
1664563318629,0.0056152344,-0.913147,0.48284912,3.5625,-0.546875,2.234375
1664563318674,-0.13427734,-0.9212036,0.5170288,8.765625,-3.375,-2.03125
1664563318719,-0.12963867,-1.0261841,0.42718506,-6.828125,-6.90625,-0.28125
1664563318751,-0.08129883,-1.2210083,0.369812,-22.09375,-18.484375,-0.140625
1664563318794,0.18823242,-1.2913208,0.37005615,-13.390625,4.375,8.96875
1664563318824,0.24780273,-1.2637329,0.4069214,-0.703125,-0.875,10.046875
1664563318869,-0.20532227,-0.956604,0.39788818,-1.84375,12.625,-5.171875
1664563318914,-0.27978516,-1.1411743,0.6268921,-4.0,1.375,-5.0625
1664563318944,-0.0126953125,-1.1199341,0.3270874,8.21875,5.515625,-1.671875
1664563318989,0.08105469,-0.8147583,0.37786865,10.640625,7.5,-4.859375
1664563319035,-0.06567383,-0.73321533,0.35101318,2.703125,0.875,-6.1875
1664563319064,-0.09106445,-0.74542236,0.26409912,6.609375,-6.265625,-0.765625
1664563319110,-0.029541016,-0.66412354,0.26287842,8.796875,-4.640625,2.546875
1664563319139,-0.068603516,-0.6050415,0.28656006,-0.328125,-11.640625,1.015625
1664563319199,-0.099853516,-0.61505127,0.3036499,-4.546875,-19.96875,5.328125
1664563319229,-0.15771484,-0.78790283,0.35369873,-10.171875,-16.296875,5.28125
1664563319274,-0.22216797,-0.91290283,0.43988037,-7.28125,-6.0625,2.1875
1664563319304,-0.13134766,-0.87286377,0.42474365,6.890625,6.90625,2.953125
1664563319349,-0.27246094,-0.98638916,0.42840576,5.703125,12.265625,-5.78125
1664563319379,-0.30566406,-0.9990845,0.5175171,1.9375,1.734375,-2.453125
1664563319424,-0.005126953,-1.1951294,0.3078003,-1.15625,3.28125,-8.515625
1664563319455,0.4008789,-1.2234497,0.18695068,2.515625,-0.84375,-2.34375
1664563319499,0.18139648,-1.3045044,0.52142334,32.171875,0.3125,-14.15625
1664563319544,-0.24511719,-1.0664673,0.5675659,16.828125,-9.140625,2.8125
1664563319574,-0.10424805,-1.098938,0.18719482,9.25,-5.109375,8.921875
1664563319619,0.020263672,-1.0806274,0.50897217,-10.03125,5.0625,-0.71875
1664563319664,0.0126953125,-0.8694458,0.34246826,1.703125,-5.234375,5.234375
1664563319694,-0.12109375,-0.661438,0.22723389,-0.8125,8.40625,0.65625
1664563319739,-0.11328125,-0.67633057,0.30804443,0.125,6.1875,-2.265625
1664563319769,-0.087402344,-0.5808716,0.34954834,6.03125,16.234375,-5.5
1664563319815,-0.115722656,-0.5913696,0.3781128,10.71875,19.15625,-10.96875
1664563319859,0.07495117,-0.9649048,0.37298584,-4.09375,11.453125,-3.140625
1664563319904,0.12036133,-0.9290161,0.22943115,0.921875,12.609375,2.421875
1664563319934,0.056396484,-0.7671509,0.37542725,3.8125,4.1875,-1.75
1664563319979,0.059814453,-0.92633057,0.4303589,-1.703125,-6.90625,-0.03125
1664563320009,-0.044433594,-1.1983032,0.17767334,-15.046875,-17.015625,1.34375
1664563320054,-0.041259766,-1.2859497,0.18450928,-16.375,0.6875,10.421875
1664563320100,0.09765625,-1.27594,0.42913818,-5.484375,-2.703125,10.6875
1664563320129,-0.10058594,-1.1536255,0.49578857,3.359375,-8.140625,0.203125
1664563320174,-0.234375,-1.164856,0.6671753,-5.375,-23.9375,0.5625
1664563320204,-0.15454102,-1.086731,0.2748413,16.203125,-8.984375,4.25
1664563320249,-0.14477539,-0.8115845,0.2514038,4.1875,0.765625,-2.359375
1664563320294,-0.12670898,-0.64923096,0.22772217,-3.78125,-2.046875,-2.890625
1664563320339,-0.06542969,-0.5930786,0.21234131,-2.375,-1.765625,-3.15625
1664563320369,-0.046875,-0.6045532,0.25701904,-4.34375,-12.453125,-1.171875
1664563320414,-0.20922852,-0.71661377,0.34710693,-0.578125,-3.609375,-2.359375
1664563320459,-0.13745117,-0.85357666,0.32513428,-4.65625,-6.265625,-0.09375
1664563320491,-0.30786133,-0.92559814,0.30511475,4.421875,11.171875,-5.296875
1664563320519,-0.41625977,-0.91656494,0.43695068,-0.890625,15.78125,-4.609375
1664563320564,-0.20751953,-0.9282837,0.4376831,-4.609375,17.46875,-6.375
1664563320609,0.037597656,-1.0877075,0.19281006,-4.75,6.375,-5.46875
1664563320639,0.34423828,-1.1865845,0.20843506,-15.25,-5.421875,0.40625
1664563320684,-0.05859375,-1.0342407,0.29437256,11.671875,12.78125,-8.1875
1664563320729,-0.015625,-1.3794556,0.70843506,14.328125,2.078125,7.78125
1664563320759,0.10424805,-1.0869751,0.49993896,-0.5,9.6875,1.65625
1664563320804,-0.071777344,-1.0838013,0.33685303,5.390625,-0.0625,5.296875
1664563320849,0.011230469,-0.8970337,0.38641357,-4.21875,-5.15625,6.84375
1664563320894,-0.048583984,-0.6724243,0.37493896,3.0625,6.0625,6.46875
1664563320924,-0.068115234,-0.60284424,0.31951904,0.828125,2.15625,2.890625
1664563320954,-0.13574219,-0.5166626,0.37493896,10.5625,11.5,0.359375
1664563321014,-0.06689453,-0.63946533,0.3632202,12.28125,11.859375,-4.6875
1664563321059,0.037841797,-0.8897095,0.34661865,-9.484375,10.71875,-3.59375
1664563321073,0.07373047,-0.8748169,0.48065186,4.109375,15.171875,-3.8125
1664563321119,0.15454102,-0.82647705,0.38763428,-0.453125,3.296875,1.21875
1664563321164,0.15039062,-1.0818481,0.3060913,-19.890625,-8.0,3.328125
1664563321194,0.15600586,-1.2632446,0.1720581,-9.390625,-9.84375,13.5
1664563321254,-0.1977539,-1.303772,0.42156982,-1.09375,7.25,-1.59375
1664563321269,-0.2434082,-1.3045044,0.699646,4.109375,3.90625,5.625
1664563321314,0.11352539,-1.1541138,0.44232178,3.5,-6.078125,3.28125
1664563321374,-0.034179688,-1.0942993,0.4093628,-0.484375,1.484375,-4.40625
1664563321389,-0.14526367,-0.89630127,0.35003662,4.84375,-5.4375,-0.75
1664563321434,-0.09008789,-0.76763916,0.31121826,0.515625,-1.171875,-2.0
1664563321480,-0.033935547,-0.69903564,0.2741089,-1.125,-4.53125,-1.71875
1664563321509,-2.4414062E-4,-0.6008911,0.25335693,1.640625,-4.890625,2.8125
1664563321570,-0.042236328,-0.579895,0.20819092,0.71875,-13.59375,6.15625
1664563321584,-0.14013672,-0.7312622,0.34368896,-9.921875,-18.171875,3.46875
1664563321630,-0.19897461,-0.8147583,0.37469482,-0.34375,-11.6875,4.625
1664563321675,-0.12158203,-0.8440552,0.36590576,-5.875,-2.15625,1.40625
1664563321706,-0.30908203,-0.861145,0.5392456,-6.28125,3.6875,-5.09375
1664563321764,-0.13842773,-1.1326294,0.2897339,-7.234375,0.9375,-5.546875
1664563321794,0.40844727,-1.5073853,0.36688232,-1.1875,-7.84375,-3.09375
1664563321824,0.19189453,-1.038147,0.47454834,6.3125,4.953125,-15.40625
1664563321869,-0.22631836,-1.4277954,0.54022217,11.265625,5.40625,0.125
1664563321914,0.013427734,-1.0466919,0.43377686,11.546875,-9.234375,10.296875
1664563321944,0.0690918,-1.0579224,0.30389404,10.140625,-7.46875,5.984375
1664563321989,0.14550781,-0.99835205,0.39398193,4.09375,-2.796875,8.421875
1664563322035,0.020263672,-0.84625244,0.385437,9.75,-11.453125,8.234375
1664563322064,-0.0871582,-0.7124634,0.27044678,14.359375,-4.140625,8.59375
1664563322110,-0.08154297,-0.7349243,0.33319092,6.203125,-5.515625,5.9375
1664563322139,-0.1003418,-0.72320557,0.4237671,15.9375,2.28125,-0.671875
1664563322184,-0.15795898,-0.6646118,0.35491943,14.140625,10.765625,-5.328125
1664563322229,-0.039794922,-0.8189087,0.35687256,5.609375,9.15625,-5.3125
1664563322259,0.052490234,-0.80352783,0.25164795,2.75,5.4375,-3.0625
1664563322304,-0.08129883,-0.8267212,0.37176514,1.796875,4.75,-7.828125
1664563322334,-0.07397461,-0.9536743,0.47894287,-1.515625,0.328125,-5.484375
1664563322379,-0.05126953,-0.9998169,0.47088623,-0.15625,1.4375,-6.40625
1664563322424,-0.04272461,-1.0733032,0.41912842,-6.421875,-3.859375,-5.484375
1664563322453,-0.044433594,-1.3247681,0.1876831,-22.96875,-10.125,-0.734375
1664563322499,0.078125,-1.0178833,0.2086792,-19.28125,4.03125,6.578125
1664563322544,-0.15405273,-1.1367798,0.3522339,-5.390625,5.15625,-2.734375
1664563322574,-0.05517578,-0.99591064,0.3554077,1.625,14.3125,4.78125
1664563322619,-0.075927734,-1.1143188,0.48895264,-11.015625,3.21875,-1.578125
1664563322664,-0.063964844,-1.060852,0.3078003,6.5,3.625,1.5625
1664563322694,-0.03491211,-0.7974243,0.3295288,4.5625,6.109375,-3.359375
1664563322739,-0.057128906,-0.7485962,0.2970581,3.09375,-0.90625,-0.625
1664563322769,-0.099365234,-0.7620239,0.25701904,-0.484375,-3.15625,1.859375
1664563322814,-0.078125,-0.74346924,0.28411865,-1.171875,-6.03125,2.5
1664563322859,-0.091796875,-0.7073364,0.34832764,-1.921875,-14.28125,0.953125
1664563322889,-0.20727539,-0.73394775,0.34368896,4.140625,-10.671875,3.015625
1664563322934,-0.24584961,-0.8386841,0.39642334,-6.546875,-6.640625,1.859375
1664563322994,-0.28735352,-0.96343994,0.42181396,-8.5625,6.9375,-1.375
1664563323009,-0.296875,-0.9414673,0.42230225,-6.703125,14.46875,-6.90625
1664563323055,-0.18432617,-0.91290283,0.27044678,-4.375,12.5,-7.359375
1664563323084,0.28833008,-1.2769165,0.29510498,-16.21875,-5.265625,-4.1875
1664563323130,0.30078125,-1.0647583,0.53582764,0.640625,1.890625,-15.40625
1664563323174,-0.03881836,-1.503479,0.6141968,2.78125,7.921875,1.0
1664563323204,0.10131836,-1.1621704,0.54974365,-10.0,0.0625,4.203125
1664563323264,-0.016601562,-1.0906372,0.36468506,-2.390625,6.1875,1.09375
1664563323294,0.0925293,-1.00177,0.48114014,-2.390625,-1.953125,8.6875
1664563323324,0.01171875,-0.82818604,0.43426514,0.328125,1.53125,4.6875
1664563323369,-0.11035156,-0.614563,0.309021,5.75,8.234375,2.5
1664563323414,-0.04736328,-0.4817505,0.2670288,5.984375,1.453125,8.921875
1664563323447,0.020751953,-0.7168579,0.40008545,0.21875,5.34375,-1.84375
1664563323489,-0.10913086,-0.6436157,0.47210693,10.53125,11.640625,-7.046875
1664563323519,-0.12084961,-0.55841064,0.32904053,7.25,14.28125,-5.5625
1664563323564,0.06542969,-0.8826294,0.50164795,-7.90625,10.3125,-6.5625
1664563323609,0.08886719,-0.9639282,0.5790405,6.40625,-2.421875,-0.578125
1664563323639,-0.0043945312,-0.9578247,0.5338745,5.078125,-1.234375,-1.78125
1664563323684,0.0034179688,-1.3423462,0.2296753,-15.5625,-26.1875,5.59375
1664563323729,-0.0061035156,-1.2637329,0.26483154,-7.46875,3.578125,6.578125
1664563323759,0.01586914,-0.9939575,0.47357178,2.421875,8.21875,-1.921875
1664563323804,-0.2043457,-1.2617798,0.60272217,2.859375,7.484375,-0.578125
1664563323834,0.09301758,-1.1370239,0.40618896,9.671875,-7.125,3.1875
1664563323879,-0.08105469,-0.9751587,0.37322998,16.90625,0.984375,-7.640625
1664563323924,-0.15576172,-0.81207275,0.37127686,10.125,1.765625,-3.65625
1664563323954,-0.03540039,-0.7608032,0.29412842,11.015625,-0.09375,-1.21875
1664563323999,-0.029785156,-0.64801025,0.21478271,9.390625,0.046875,-0.5
1664563324047,-0.083984375,-0.58795166,0.23382568,1.5625,-1.9375,-0.078125
1664563324074,-0.17138672,-0.61724854,0.2423706,0.9375,-12.03125,-0.65625
1664563324119,-0.2055664,-0.7991333,0.35516357,-4.875,-5.265625,-1.34375
1664563324164,-0.22509766,-0.9348755,0.3925171,-6.8125,-0.390625,-2.9375
1664563324194,-0.2861328,-0.96661377,0.46063232,-5.015625,6.796875,-6.96875
1664563324239,-0.114746094,-1.0974731,0.2982788,-6.0625,-0.234375,-6.140625
1664563324269,0.24243164,-1.2874146,0.22161865,-7.75,-4.015625,-2.296875
1664563324315,0.22509766,-1.3215942,0.40203857,-5.0625,-6.359375,-4.890625
1664563324359,-0.08642578,-1.1843872,0.57318115,6.0,-4.1875,0.375
1664563324390,-0.18530273,-1.1360474,0.5709839,4.0,-0.046875,6.046875
1664563324434,0.056152344,-1.0237427,0.3949585,0.90625,-5.046875,3.578125
1664563324480,0.033447266,-0.85479736,0.3781128,-0.3125,-0.421875,2.21875
1664563324509,-0.11450195,-0.64141846,0.3209839,6.96875,-0.78125,4.3125
1664563324555,-0.08496094,-0.611145,0.27947998,-0.96875,-2.46875,5.0
1664563324584,-0.12426758,-0.5784302,0.41400146,11.390625,8.125,-1.984375
1664563324629,-0.08203125,-0.6560669,0.32806396,8.859375,10.640625,-3.359375
1664563324674,0.036376953,-0.85723877,0.33270264,-7.859375,3.03125,-2.5625
1664563324704,-0.0041503906,-0.8428345,0.4887085,1.625,0.578125,0.46875
1664563324749,-0.052978516,-0.93634033,0.38250732,1.8125,1.25,-0.5625
1664563324794,-0.01171875,-1.1609497,0.30267334,-17.5,-10.265625,4.296875
1664563324825,0.044677734,-1.3284302,0.30755615,-18.203125,-3.875,12.734375
1664563324870,0.16088867,-1.1697388,0.34906006,-3.8125,4.328125,12.71875
1664563324899,-0.24072266,-1.125061,0.6227417,0.984375,9.109375,-2.296875
1664563324944,-0.16748047,-1.2854614,0.5470581,2.5625,6.609375,0.9375
1664563324990,0.0390625,-1.1296997,0.4393921,10.8125,4.0625,-2.3125
1664563325018,0.0053710938,-0.82159424,0.369812,6.875,8.28125,-3.359375
1664563325065,0.0126953125,-0.6836548,0.28094482,7.75,0.375,-2.875
1664563325110,0.0031738281,-0.59454346,0.246521,9.453125,-0.71875,1.21875
1664563325170,-0.2241211,-0.552063,0.2633667,5.5,-7.296875,3.859375
1664563325201,-0.23144531,-0.6838989,0.21282959,-2.96875,-15.921875,5.265625
1664563325245,-0.13891602,-0.8076782,0.37860107,-1.703125,-6.75,0.03125
1664563325259,-0.26953125,-0.880188,0.3378296,-0.53125,0.484375,-3.84375
1664563325304,-0.19628906,-0.8838501,0.4376831,-6.890625,9.34375,-6.40625
1664563325334,-0.051757812,-1.0896606,0.29315186,-9.875,12.640625,-9.9375
1664563325379,0.31396484,-1.4129028,0.28240967,-4.046875,-0.53125,-10.171875
1664563325425,0.19042969,-1.2251587,0.5543823,0.390625,14.78125,-14.734375
1664563325500,-0.04296875,-1.1741333,0.60809326,4.9375,-2.46875,-1.46875
1664563325502,-0.15356445,-1.0418091,0.49993896,4.796875,-1.640625,10.3125
1664563325547,0.08081055,-0.98687744,0.39471436,-4.65625,-9.125,4.046875
1664563325574,0.020751953,-0.87579346,0.38153076,2.21875,2.734375,2.296875
1664563325619,-0.057373047,-0.6987915,0.3156128,13.15625,-1.375,5.078125
1664563325649,-0.09375,-0.64801025,0.33172607,2.125,-2.59375,-0.609375
1664563325694,-0.12451172,-0.6148071,0.4147339,7.4375,11.40625,-5.65625
1664563325739,-0.14526367,-0.56988525,0.30145264,0.609375,21.3125,-6.875
1664563325769,0.12182617,-0.84625244,0.37664795,-20.5,22.234375,-12.015625
1664563325814,0.1159668,-0.91070557,0.5009155,3.953125,10.46875,-7.25
1664563325859,0.009521484,-0.8711548,0.47210693,7.640625,0.6875,-1.125
1664563325889,0.07470703,-1.210022,0.3312378,-17.984375,-15.078125,7.9375
1664563325934,0.033935547,-1.3967896,0.29241943,-7.1875,-6.875,9.140625
1664563326011,0.07543945,-1.0569458,0.44207764,5.3125,-8.125,9.0625
1664563326013,-0.15356445,-1.052063,0.5236206,14.625,1.296875,2.359375
1664563326055,-0.19873047,-1.2837524,0.44696045,-2.796875,-4.546875,2.671875
1664563326084,0.013671875,-1.0674438,0.27947998,7.765625,-1.546875,1.671875
1664563326129,-0.14160156,-0.84161377,0.38275146,8.765625,9.125,-5.71875
1664563326174,-0.05102539,-0.7854614,0.35565186,2.328125,-1.703125,-0.875
1664563326204,-0.015136719,-0.7559204,0.28826904,8.1875,0.5,0.5625
1664563326249,-0.08569336,-0.6445923,0.23577881,8.640625,1.75,1.25
1664563326294,-0.08496094,-0.6087036,0.17913818,0.5,-2.140625,0.9375
1664563326326,-0.08520508,-0.74346924,0.2838745,-7.859375,-11.78125,3.53125
1664563326369,-0.18188477,-0.8821411,0.42523193,-6.359375,-8.875,1.375
1664563326401,-0.18969727,-0.8779907,0.3764038,-3.359375,-3.03125,3.984375
1664563326459,-0.16430664,-0.93463135,0.47625732,-9.28125,-1.46875,-3.75
1664563326489,-0.09106445,-1.1436157,0.41082764,-11.9375,-1.5625,-2.5625
1664563326519,0.28808594,-1.2979126,0.26654053,1.5625,-6.765625,3.609375
1664563326565,0.1862793,-1.1104126,0.42132568,3.5625,4.0,-18.21875
1664563326609,-0.27905273,-1.1946411,0.5536499,4.609375,-2.234375,4.734375
1664563326639,-0.031982422,-1.0696411,0.4718628,2.015625,-0.53125,11.09375
1664563326684,0.08666992,-0.9590454,0.49310303,0.859375,3.078125,-1.671875
1664563326729,-0.083740234,-0.89312744,0.42034912,2.96875,-3.5625,-0.015625
1664563326762,-0.07885742,-0.69317627,0.31707764,6.375,3.546875,6.53125
1664563326804,-0.020751953,-0.597229,0.3546753,1.234375,2.140625,-1.890625
1664563326836,-0.099609375,-0.63165283,0.41741943,15.4375,9.65625,-2.34375
1664563326879,-0.0078125,-0.7156372,0.30706787,8.640625,13.875,-2.75
1664563326925,0.0126953125,-0.88165283,0.4052124,-3.03125,11.1875,-5.703125
1664563326954,-0.024658203,-0.94122314,0.45770264,5.328125,4.796875,-3.1875
1664563326999,-0.087646484,-0.80548096,0.4537964,1.828125,11.703125,-8.203125
1664563327044,-0.032470703,-0.85479736,0.4467163,-1.53125,4.703125,-3.5
1664563327074,0.018310547,-0.9985962,0.22235107,-13.015625,-0.46875,-0.171875
1664563327119,0.04248047,-1.4387817,0.1786499,-18.875,-3.421875,5.6875
1664563327149,0.2175293,-1.3850708,0.39764404,2.359375,-13.28125,12.8125
1664563327195,-0.1105957,-1.1519165,0.5036011,3.03125,4.328125,-5.0625
1664563327239,-0.31835938,-1.0923462,0.5980835,6.265625,-3.4375,-3.25
1664563327269,0.05126953,-1.005188,0.2333374,17.5625,-11.65625,4.75
1664563327315,-0.044677734,-0.75128174,0.27044678,16.453125,1.625,-1.625
1664563327359,-0.118896484,-0.62457275,0.2164917,12.765625,-6.296875,1.4375
1664563327389,-0.07470703,-0.6511841,0.17352295,-0.8125,-0.953125,-0.234375
1664563327434,-0.032958984,-0.7349243,0.20135498,-12.90625,-9.46875,-0.140625
1664563327479,-0.09375,-0.6240845,0.3209839,0.828125,-16.609375,7.453125
1664563327509,-0.33789062,-0.786438,0.3944702,5.40625,-0.15625,-3.75
1664563327555,-0.19482422,-1.019104,0.4147339,-13.65625,2.0625,-2.390625
1664563327584,-0.23828125,-0.9470825,0.32659912,6.140625,10.5625,-5.46875
1664563327630,-0.095458984,-1.048645,0.27947998,-11.09375,3.984375,-8.8125
1664563327675,0.43579102,-1.33844,0.06341553,-4.84375,-15.875,2.359375
1664563327704,-0.06762695,-1.2637329,0.4401245,-3.78125,-0.96875,-16.59375
1664563327749,-0.20605469,-1.2149048,0.55877686,13.84375,4.390625,0.125
1664563327795,-0.044433594,-1.0974731,0.4171753,-4.671875,10.21875,-0.046875
1664563327824,0.061279297,-1.0759888,0.402771,-1.046875,-7.546875,3.921875
1664563327869,0.01586914,-0.90045166,0.3920288,0.96875,1.703125,2.5625
1664563327899,-0.14624023,-0.7312622,0.33026123,4.625,0.65625,2.265625
1664563327944,-0.05834961,-0.73638916,0.37908936,-1.953125,-5.546875,2.234375
1664563327989,-0.046142578,-0.6253052,0.44866943,10.515625,8.234375,-4.03125
1664563328019,-0.16992188,-0.58428955,0.2970581,10.90625,14.4375,-5.515625
1664563328110,-0.0014648438,-0.7901001,0.2255249,-17.21875,9.890625,2.125
1664563328114,0.123535156,-0.8201294,0.43011475,-4.984375,2.515625,0.171875
1664563328139,-0.0107421875,-0.77178955,0.41229248,3.359375,1.59375,1.359375
1664563328185,-0.119384766,-1.029602,0.24920654,-20.265625,-6.046875,5.203125
1664563328229,0.023925781,-1.383606,0.2501831,-24.84375,-7.125,11.109375
1664563328259,0.33447266,-1.3128052,0.3534546,0.5625,-5.890625,20.328125
1664563328320,-0.22583008,-1.1143188,0.56829834,-1.203125,7.640625,-4.03125
1664563328333,-0.34204102,-1.1831665,0.5741577,5.015625,-1.546875,1.03125
1664563328379,-0.0769043,-1.1016235,0.4586792,13.484375,0.5,1.75
1664563328424,-0.010986328,-0.8777466,0.31195068,6.328125,8.453125,-2.078125
1664563328454,-0.12402344,-0.7424927,0.3114624,3.578125,3.6875,-2.4375
1664563328499,-0.084472656,-0.6758423,0.28582764,3.9375,-5.328125,0.046875
1664563328544,-0.07519531,-0.6572876,0.31097412,1.921875,-2.8125,0.359375
1664563328574,-0.17529297,-0.6392212,0.2518921,1.5625,-8.265625,-0.515625
1664563328619,-0.1694336,-0.7859497,0.2946167,-6.90625,-2.109375,-0.53125
1664563328649,-0.1303711,-0.83062744,0.3678589,-5.234375,-3.234375,-2.0
1664563328694,-0.21166992,-0.81427,0.4310913,-3.734375,6.265625,-5.671875
1664563328739,-0.060791016,-1.1165161,0.3937378,-1.765625,-3.96875,-2.59375
1664563328769,0.34423828,-1.3674927,0.26483154,-1.375,-16.125,-0.3125
1664563328814,0.039794922,-1.3970337,0.6613159,-2.875,0.6875,-11.234375
1664563328859,-0.17456055,-1.0847778,0.6117554,1.078125,1.84375,-0.6875
1664563328889,-0.1430664,-1.046936,0.4796753,8.25,3.109375,6.515625
1664563328934,0.15600586,-1.0647583,0.48968506,-2.21875,-7.234375,0.765625
1664563328979,-0.03857422,-0.8753052,0.39788818,7.890625,2.828125,-0.921875
1664563329009,-0.12939453,-0.6560669,0.31781006,8.546875,-0.515625,3.90625
1664563329084,-0.072021484,-0.6543579,0.3307495,-2.546875,-3.734375,0.96875
1664563329086,-0.11206055,-0.60894775,0.38934326,17.0625,8.71875,-3.40625
1664563329130,-0.13745117,-0.6589966,0.41131592,3.265625,8.203125,-4.953125
1664563329175,0.080078125,-0.86065674,0.36761475,-3.5,7.46875,-1.9375
1664563329203,0.04736328,-0.8062134,0.39544678,4.328125,11.296875,-4.234375
1664563329249,-0.022705078,-0.8098755,0.3991089,3.03125,0.109375,0.546875
1664563329294,-0.06640625,-1.0449829,0.16229248,-17.78125,-5.03125,4.28125
1664563329324,-0.05029297,-1.1655884,0.14642334,-6.96875,11.640625,7.9375
1664563329369,0.18701172,-1.5911255,0.43988037,-1.671875,-9.875,14.75
1664563329399,-0.07055664,-1.2146606,0.6268921,8.296875,-3.5625,3.234375
1664563329444,-0.36547852,-1.133606,0.55682373,7.90625,-1.046875,-2.53125
1664563329489,-0.053222656,-1.1026001,0.2694702,8.421875,2.4375,2.25
1664563329519,0.009277344,-0.8858032,0.34954834,16.546875,1.140625,1.578125
1664563329564,-0.015380859,-0.68707275,0.20233154,15.546875,-2.828125,-0.6875
1664563329609,-0.1081543,-0.67315674,0.25872803,8.234375,-4.578125,0.1875
1664563329639,-0.046142578,-0.64019775,0.16644287,2.0,-14.59375,-0.53125
1664563329684,-0.17456055,-0.68536377,0.22869873,0.984375,-8.265625,1.03125
1664563329716,-0.3005371,-0.8267212,0.33807373,-6.859375,-7.296875,-3.5625
1664563329759,-0.29614258,-1.0025024,0.34490967,-4.796875,8.359375,-5.25
1664563329805,-0.2548828,-0.8911743,0.3805542,-7.71875,15.890625,-8.28125
1664563329834,-0.043945312,-1.1218872,0.26971436,-11.5625,10.15625,-5.796875
1664563329880,0.26049805,-1.1914673,0.22210693,-0.9375,-0.4375,-6.0625
1664563329924,0.20776367,-1.5125122,0.59954834,-2.84375,2.453125,-8.828125
1664563329954,0.006591797,-1.0896606,0.5578003,-1.578125,3.046875,-4.4375
1664563330000,-0.2692871,-1.1643677,0.32855225,3.5,4.546875,7.15625
1664563330089,0.06298828,-1.0515747,0.47601318,-4.609375,-6.0,3.953125
1664563330092,0.08691406,-0.861145,0.34710693,-1.59375,5.875,0.875
1664563330119,-0.107177734,-0.5960083,0.24334717,4.796875,11.0,5.421875
1664563330149,-0.051513672,-0.59991455,0.24359131,-8.546875,-0.59375,1.875
1664563330195,-0.053710938,-0.6567993,0.3312378,8.28125,8.1875,-1.359375
1664563330239,-0.14282227,-0.6502075,0.43011475,11.625,19.40625,-1.25
1664563330269,0.01171875,-0.8362427,0.3607788,-9.1875,16.453125,-3.8125
1664563330315,0.14111328,-0.8904419,0.46136475,-5.0,11.265625,0.578125
1664563330359,0.107177734,-0.8189087,0.46868896,2.234375,-5.5625,0.0
1664563330391,0.0087890625,-1.1096802,0.38641357,-11.09375,-10.4375,2.734375
1664563330434,0.056152344,-1.3633423,0.09051514,-26.78125,-19.828125,8.921875
1664563330464,0.21020508,-1.3233032,0.40325928,0.515625,-8.0,15.59375
1664563330509,-0.18798828,-1.1182251,0.43133545,-1.359375,7.125,-1.796875
1664563330555,-0.25561523,-1.1548462,0.53778076,1.265625,-2.296875,0.6875
1664563330584,0.040039062,-1.1065063,0.41278076,4.796875,-7.25,-0.921875
1664563330629,-0.04296875,-0.84942627,0.35028076,5.0625,4.78125,-6.453125
1664563330719,-0.1303711,-0.75128174,0.31121826,-0.109375,-1.921875,-0.6875
1664563330722,-0.048583984,-0.68292236,0.25775146,3.75,-3.25,1.109375
1664563330750,-0.080566406,-0.6592407,0.27020264,0.78125,-0.375,1.046875
1664563330811,-0.114990234,-0.61065674,0.2597046,0.546875,-10.0625,3.78125
1664563330825,-0.13061523,-0.75201416,0.33099365,-3.0,-8.484375,3.71875
1664563330869,-0.11791992,-0.8430786,0.3842163,-3.984375,-4.96875,0.296875
1664563330901,-0.25073242,-0.9002075,0.48406982,-8.8125,3.140625,-3.796875
1664563330945,-0.13134766,-0.97442627,0.30267334,2.109375,0.9375,-2.90625
1664563330989,0.2006836,-1.4597778,0.3060913,-1.40625,-3.75,-1.765625
1664563331019,0.28588867,-1.242981,0.38275146,4.25,-2.078125,-15.8125
1664563331065,-0.2680664,-1.2442017,0.5675659,6.53125,8.703125,-5.125
1664563331110,-0.11816406,-1.1116333,0.5795288,2.390625,-1.53125,5.890625
1664563331139,0.059570312,-1.1011353,0.46331787,7.15625,-2.171875,1.46875
1664563331200,0.021484375,-0.94195557,0.4274292,8.0625,-2.5625,3.234375
1664563331214,0.03881836,-0.73101807,0.26068115,10.84375,-1.40625,3.4375
1664563331260,-0.04711914,-0.6553345,0.2711792,2.515625,0.5625,0.984375
1664563331304,-0.060791016,-0.66363525,0.29315186,7.9375,3.890625,-0.296875
1664563331334,-0.110839844,-0.5984497,0.34954834,18.390625,16.265625,-3.828125
1664563331379,-0.15649414,-0.7000122,0.33563232,-2.078125,11.578125,-6.53125
1664563331424,0.1027832,-0.8989868,0.3554077,-5.9375,4.890625,0.234375
1664563331457,0.13745117,-0.803772,0.34588623,6.1875,6.140625,-1.59375
1664563331500,-0.017333984,-0.80181885,0.31756592,-1.375,-5.015625,-1.640625
1664563331545,-0.04663086,-1.2334595,0.09613037,-17.890625,-16.671875,1.9375
1664563331574,0.19140625,-1.4312134,0.4003296,-0.265625,-6.421875,11.90625
1664563331619,0.009521484,-1.335022,0.38446045,-2.03125,-3.3125,4.703125
1664563331649,-0.35009766,-1.2625122,0.4989624,0.71875,-5.078125,0.546875
1664563331695,-0.13085938,-1.1201782,0.41693115,8.75,-6.453125,1.890625
1664563331739,-0.092285156,-0.9751587,0.307312,10.15625,3.796875,-0.4375
1664563331769,-0.064208984,-0.80841064,0.21966553,3.71875,1.984375,0.875
1664563331815,-0.111083984,-0.6904907,0.22747803,4.453125,1.109375,0.1875
1664563331859,-0.072021484,-0.71466064,0.17718506,3.8125,-1.671875,0.515625
1664563331892,-0.08544922,-0.6921997,0.19500732,0.3125,-2.9375,0.453125
1664563331935,-0.18017578,-0.6675415,0.24676514,3.078125,-3.953125,2.03125
1664563331964,-0.17993164,-0.8237915,0.30950928,-8.890625,-2.796875,-2.203125
1664563332010,-0.13745117,-0.9258423,0.37493896,-2.6875,9.90625,1.9375
1664563332054,-0.29296875,-0.93878174,0.37957764,-3.40625,15.78125,-5.875
1664563332084,-0.08251953,-1.1445923,0.2579956,-13.3125,2.96875,-1.734375
1664563332129,0.43017578,-1.3596802,0.19647217,-3.515625,-9.09375,4.390625
1664563332174,0.17016602,-1.0420532,0.29022217,5.578125,0.953125,-13.703125
1664563332204,-0.19116211,-1.3887329,0.6207886,7.6875,0.515625,8.734375
1664563332250,0.006591797,-1.1157837,0.43206787,-2.15625,-5.390625,2.859375
1664563332310,-0.016357422,-0.9956665,0.3595581,-0.75,6.53125,-0.46875
1664563332324,0.064208984,-0.8706665,0.38494873,2.75,-2.828125,2.8125
1664563332369,0.05908203,-0.79888916,0.3427124,-1.3125,-2.984375,4.4375
1664563332400,-0.036132812,-0.7307739,0.2909546,-2.078125,0.109375,2.59375
1664563332444,-0.11010742,-0.67852783,0.35516357,2.046875,2.140625,0.359375
1664563332489,-0.06689453,-0.60479736,0.4022827,11.640625,9.171875,-4.265625
1664563332520,-0.03125,-0.74346924,0.33343506,-5.8125,10.640625,-7.625
1664563332565,0.010986328,-0.8792114,0.4064331,-1.796875,2.03125,-2.953125
1664563332610,-0.04296875,-0.84332275,0.5023804,7.0625,-0.53125,-6.140625
1664563332639,-0.075927734,-0.9414673,0.35394287,-8.6875,-1.625,-3.28125
1664563332685,-0.03149414,-1.2324829,0.13739014,-27.09375,-2.78125,3.03125
1664563332714,0.26171875,-1.3984985,0.26287842,-1.15625,4.21875,12.515625
1664563332759,0.055664062,-1.2210083,0.40960693,-5.03125,5.53125,1.6875
1664563332805,-0.28564453,-1.1607056,0.6625366,1.71875,6.5625,-2.609375
1664563332834,-0.048095703,-1.0947876,0.37542725,8.078125,-9.046875,5.171875
1664563332879,0.033447266,-0.9536743,0.25408936,7.390625,5.734375,-2.703125
1664563332940,-0.05078125,-0.78741455,0.2453003,13.078125,3.375,1.046875
1664563332954,-0.0036621094,-0.6873169,0.21917725,11.265625,-5.6875,1.65625
1664563333000,-0.059814453,-0.7583618,0.2321167,2.625,-4.234375,1.375
1664563333044,-0.03930664,-0.71466064,0.23968506,3.234375,-10.453125,2.671875
1664563333074,-0.10205078,-0.7053833,0.2140503,4.78125,-12.984375,3.421875
1664563333119,-0.1784668,-0.89019775,0.3949585,-2.796875,-8.78125,-0.40625
1664563333149,-0.2199707,-1.022522,0.3307495,-2.09375,0.28125,-0.828125
1664563333195,-0.32202148,-0.9507446,0.4381714,-7.953125,7.265625,-5.984375
1664563333240,-0.17919922,-0.9182739,0.41815186,-6.90625,6.515625,-5.71875
1664563333270,0.2993164,-1.0046997,0.11517334,-6.125,-6.53125,-0.34375
1664563333314,0.5234375,-1.1599731,0.11907959,-17.375,-24.171875,-0.15625
1664563333391,-0.2475586,-1.3687134,0.6520386,3.15625,3.109375,-8.1875
1664563333395,-0.21801758,-1.2105103,0.53338623,11.78125,5.859375,5.53125
1664563333435,0.15454102,-1.1348267,0.32611084,-2.078125,-1.171875,8.3125
1664563333465,0.08544922,-0.9487915,0.51434326,-7.265625,0.125,0.15625
1664563333511,-0.18847656,-0.8467407,0.36053467,11.015625,3.640625,-0.890625
1664563333555,-0.12011719,-0.70025635,0.25335693,-3.71875,9.625,3.109375
1664563333585,0.045654297,-0.61553955,0.30316162,-2.28125,11.6875,-3.171875
1664563333629,-0.025634766,-0.5581665,0.36273193,14.859375,17.9375,-9.109375
1664563333675,-0.11767578,-0.66778564,0.27679443,-2.59375,12.625,-3.015625
1664563333704,0.08178711,-0.7595825,0.31903076,0.84375,6.453125,-0.21875
1664563333749,0.11694336,-0.86431885,0.5282593,6.90625,1.15625,-0.75
1664563333795,-0.03881836,-0.9663696,0.49725342,1.078125,-2.671875,-4.359375
1664563333824,-0.10083008,-1.1570435,0.35858154,-7.3125,-15.09375,3.46875
1664563333870,0.0637207,-1.7200317,0.23822021,-24.453125,-8.515625,10.328125
1664563333900,0.44189453,-1.2229614,0.15301514,-0.984375,-7.640625,21.328125
1664563333945,-0.20898438,-0.9536743,0.53460693,15.203125,2.71875,-4.640625
1664563333989,-0.33666992,-1.2383423,0.65838623,3.6875,-5.921875,1.984375
1664563334020,0.17260742,-1.0901489,0.25042725,19.796875,-4.15625,8.296875
1664563334065,-0.08959961,-0.8245239,0.3619995,8.71875,8.390625,-8.09375
1664563334109,-0.111083984,-0.7461548,0.24554443,10.3125,-4.296875,1.421875
1664563334140,0.0012207031,-0.7337036,0.21136475,4.875,0.5,-0.4375
1664563334185,-0.088378906,-0.69537354,0.27435303,-0.484375,-2.453125,-0.28125
1664563334215,-0.14575195,-0.6470337,0.22650146,-1.78125,-2.046875,1.4375
1664563334259,-0.14697266,-0.7473755,0.23406982,2.125,0.921875,-1.71875
1664563334305,-0.14160156,-0.8291626,0.32122803,2.109375,5.421875,-1.28125
1664563334334,-0.21289062,-0.92315674,0.35614014,-5.28125,3.953125,-3.625
1664563334396,-0.12719727,-0.90826416,0.42230225,6.640625,2.484375,-3.953125
1664563334424,-0.041992188,-0.8587036,0.20355225,3.015625,-2.546875,-4.265625
1664563334455,0.28320312,-1.1130981,0.05316162,-11.84375,-21.390625,0.890625
1664563334499,0.2529297,-1.4060669,0.3480835,-0.484375,-14.453125,-10.109375
1664563334530,-0.0073242188,-1.4136353,0.7926636,0.828125,12.890625,-0.046875
1664563334576,-0.09838867,-1.1511841,0.4142456,9.578125,7.328125,6.109375
1664563334620,0.0053710938,-1.1218872,0.28363037,-0.375,-7.625,4.890625
1664563334649,0.0546875,-1.0171509,0.4352417,-6.828125,1.46875,1.5625
1664563334694,-0.10058594,-0.78375244,0.29022217,11.53125,13.3125,-2.0
1664563334740,-0.08129883,-0.5940552,0.21868896,-3.09375,3.484375,-0.125
1664563334770,-0.041992188,-0.583313,0.293396,3.8125,6.328125,-5.359375
1664563334830,-0.013671875,-0.61505127,0.40570068,20.21875,11.59375,-5.015625
1664563334860,-0.017578125,-0.7798462,0.27703857,2.15625,7.4375,-5.171875
1664563334890,0.07080078,-0.96759033,0.32025146,-4.078125,0.40625,-2.609375
1664563334935,0.013427734,-0.8887329,0.42108154,2.984375,-1.109375,-3.453125
1664563334965,-0.048339844,-1.0454712,0.26849365,-11.28125,-9.734375,0.125
1664563335009,0.02368164,-1.3591919,0.10076904,-33.21875,-19.640625,2.234375
1664563335070,0.19726562,-1.3452759,0.31121826,-7.234375,-5.046875,11.59375
1664563335085,-0.13476562,-1.1572876,0.38397217,-0.4375,12.234375,-0.75
1664563335130,-0.2890625,-1.177063,0.49554443,-6.8125,4.453125,3.609375
1664563335175,-0.014892578,-1.079895,0.27337646,4.671875,-5.15625,4.4375
1664563335205,-0.0390625,-0.93927,0.27825928,7.09375,9.03125,-0.84375
1664563335249,-0.1003418,-0.82598877,0.31072998,-0.453125,0.265625,-0.296875
1664563335282,-0.111816406,-0.7246704,0.2526245,4.984375,-2.984375,0.46875
1664563335325,-0.076660156,-0.6531372,0.19915771,2.515625,-0.421875,-0.015625
1664563335371,-0.106933594,-0.6670532,0.2753296,0.875,-1.109375,1.03125
1664563335400,-0.10620117,-0.7024536,0.20111084,1.4375,-7.171875,2.375
1664563335445,-0.18530273,-0.82281494,0.3151245,-11.5,-3.609375,-2.4375
1664563335490,-0.18066406,-0.9273071,0.4430542,-16.96875,0.171875,0.296875
1664563335520,-0.23803711,-0.8897095,0.41766357,-3.046875,7.953125,-5.390625
1664563335564,-0.08666992,-0.9920044,0.27679443,-3.59375,6.09375,-4.046875
1664563335610,0.25463867,-1.427063,0.2831421,-5.3125,-3.390625,-0.609375
1664563335640,0.11791992,-1.1519165,0.34588623,-1.03125,-0.984375,-16.484375
1664563335685,-0.068115234,-1.3086548,0.588562,-1.09375,8.0625,-0.671875
1664563335715,0.044677734,-1.0505981,0.49847412,-10.28125,-1.96875,6.390625
1664563335760,-0.0703125,-1.0906372,0.46258545,-5.34375,2.359375,-1.65625
1664563335805,0.029052734,-0.9397583,0.4616089,-1.4375,-2.0625,5.5
1664563335835,0.07299805,-0.7354126,0.32928467,5.953125,-0.625,5.375
1664563335880,-0.02319336,-0.6421509,0.28582764,2.921875,3.28125,3.890625
1664563335925,-0.095703125,-0.6109009,0.38226318,7.46875,6.34375,0.078125
1664563335955,-0.1743164,-0.5274048,0.3600464,8.203125,15.234375,-5.109375
1664563336031,-0.11035156,-0.64630127,0.39276123,4.625,15.265625,-8.25
1664563336035,0.15161133,-0.90948486,0.4472046,-3.515625,4.625,-2.796875
1664563336075,0.1303711,-0.82525635,0.48138428,13.765625,2.125,-1.875
1664563336120,-0.053955078,-1.1052856,0.38397217,-9.90625,-6.953125,0.03125
1664563336150,0.048828125,-1.6919556,0.28533936,-15.359375,-13.3125,12.328125
1664563336194,0.21264648,-1.1792603,0.3270874,4.5625,2.171875,13.515625
1664563336240,-0.14404297,-0.93707275,0.58148193,6.640625,19.921875,-8.25
1664563336270,-0.27612305,-1.2744751,0.4953003,7.21875,-7.65625,1.34375
1664563336315,0.03930664,-1.1099243,0.29901123,11.34375,-2.1875,1.296875
1664563336360,-0.103271484,-0.8858032,0.34661865,7.25,14.796875,-8.09375
1664563336390,-0.083984375,-0.770813,0.28094482,4.578125,2.84375,-1.96875
1664563336435,0.05517578,-0.65704346,0.18939209,7.421875,-3.5625,-0.15625
1664563336465,-0.026123047,-0.59210205,0.20135498,5.625,-1.75,0.828125
1664563336510,-0.123291016,-0.5696411,0.16986084,6.59375,-8.25,2.046875
1664563336555,-0.18261719,-0.73321533,0.20184326,-6.625,-12.609375,-0.46875
1664563336587,-0.15771484,-0.88897705,0.4303589,-9.328125,-10.15625,0.71875
1664563336630,-0.22387695,-0.913147,0.41351318,0.078125,-0.546875,-2.09375
1664563336675,-0.22924805,-1.0144653,0.3690796,-3.953125,3.578125,-5.671875
1664563336705,0.21264648,-1.5352173,0.3007202,-0.765625,-3.0,-0.703125
1664563336750,0.31152344,-1.1780396,0.31781006,0.875,-6.71875,-11.84375
1664563336780,-0.06591797,-1.2593384,0.5817261,14.515625,-0.625,-5.125
1664563336825,-0.2878418,-1.1755981,0.56707764,-0.328125,-6.9375,1.953125
1664563336870,-0.05444336,-1.0857544,0.33148193,-3.953125,2.328125,0.84375
1664563336915,0.027832031,-0.92388916,0.41204834,-9.046875,9.203125,-1.96875
1664563336945,-0.026855469,-0.7180786,0.33172607,2.390625,10.53125,2.1875
1664563336990,-0.07421875,-0.5733032,0.27874756,-1.859375,6.265625,2.78125
1664563337019,-0.041748047,-0.5610962,0.3817749,6.546875,7.875,0.21875
1664563337065,-0.064697266,-0.6226196,0.34954834,17.90625,12.65625,-3.421875
1664563337126,-0.045898438,-0.83599854,0.33807373,-5.859375,2.390625,-2.21875
1664563337140,0.020751953,-0.9002075,0.45062256,4.4375,1.1875,1.875
1664563337187,0.009277344,-0.92803955,0.49798584,4.171875,-1.515625,-0.140625
1664563337215,-0.0625,-0.9312134,0.539978,-2.046875,-3.453125,1.953125
1664563337275,-0.119384766,-1.1672974,0.449646,-14.859375,-9.28125,2.9375
1664563337305,0.045410156,-1.5032349,0.2555542,-32.90625,-18.96875,14.3125
1664563337335,0.20532227,-0.9343872,0.31536865,-10.546875,12.59375,8.03125
1664563337380,-0.33154297,-1.0776978,0.5482788,-8.375,21.328125,-10.34375
1664563337425,-0.055908203,-1.4517212,0.35736084,20.453125,-7.8125,17.875
1664563337455,0.2692871,-0.9234009,0.3222046,-1.25,6.796875,-3.0625
1664563337500,-0.103515625,-0.87579346,0.31878662,15.234375,10.109375,-4.953125
1664563337530,-0.03491211,-0.880188,0.2682495,4.140625,-14.15625,7.15625
1664563337575,-0.037841797,-0.8225708,0.28118896,7.0,-8.359375,6.65625
1664563337620,-0.15039062,-0.8093872,0.35125732,2.015625,-10.828125,6.65625
1664563337650,-0.09423828,-0.8118286,0.38031006,-3.40625,-11.734375,6.34375
1664563337694,-0.15795898,-0.81500244,0.40203857,-8.734375,-10.46875,6.953125
1664563337740,-0.14233398,-0.831604,0.4196167,-10.046875,-7.28125,7.484375
1664563337785,-0.2199707,-1.0278931,0.55584717,-3.1875,-0.265625,-0.90625
1664563337815,-0.2241211,-0.9915161,0.53704834,2.515625,-2.015625,-0.078125
1664563337860,-0.21508789,-0.9224243,0.55877686,-4.203125,-4.875,-5.875
1664563337890,0.040039062,-1.2683716,0.44329834,-14.484375,-12.421875,-6.140625
1664563337935,0.29956055,-0.83258057,0.09686279,-3.015625,-9.0,-4.890625
1664563337965,0.29296875,-1.1401978,0.3781128,15.9375,-6.84375,-17.75
1664563338010,0.011962891,-1.2007446,0.53411865,13.296875,-11.328125,-6.53125
1664563338055,0.072265625,-0.99591064,0.2592163,19.3125,-5.5,15.015625
1664563338084,-0.029541016,-0.76348877,0.4052124,-6.390625,9.765625,-2.75
1664563338129,-0.2084961,-0.8694458,0.37957764,12.78125,0.9375,4.53125
1664563338191,-0.06738281,-0.7932739,0.3131714,0.765625,22.453125,4.03125
1664563338205,0.07006836,-0.82696533,0.33563232,0.390625,17.296875,1.53125
1664563338250,0.060791016,-0.8831177,0.4442749,0.3125,16.859375,-2.15625
1664563338280,-0.0017089844,-0.8357544,0.40447998,-3.046875,13.71875,-3.15625
1664563338325,-0.046875,-0.8184204,0.47625732,6.203125,5.3125,-5.328125
1664563338386,-0.041259766,-0.8711548,0.5109253,-4.125,14.203125,-6.21875
1664563338400,0.036621094,-0.9627075,0.40789795,-4.90625,12.015625,-1.625
1664563338445,0.1237793,-1.0386353,0.57928467,-12.140625,8.078125,0.03125
1664563338490,-0.12207031,-0.82110596,0.61517334,0.265625,12.25,-8.34375
1664563338519,-0.13989258,-1.1338501,0.37445068,-12.140625,-1.71875,-9.640625
1664563338564,0.20019531,-1.0237427,0.3102417,-0.28125,-10.3125,-1.9375
1664563338594,-0.048828125,-1.0945435,0.117126465,-20.625,18.8125,-11.234375
1664563338640,-0.02368164,-0.9624634,0.09197998,0.625,32.296875,6.171875
1664563338685,0.15209961,-0.9468384,0.184021,13.4375,11.875,-5.84375
1664563338715,0.32617188,-1.1782837,0.41986084,5.125,1.0,-4.4375
1664563338762,0.12963867,-0.8521118,0.27020264,12.171875,0.5,2.5
1664563338805,-0.06542969,-0.70269775,0.19769287,12.125,-6.5625,3.234375
1664563338834,0.008544922,-0.77471924,0.28582764,-2.375,-15.015625,1.21875
1664563338880,0.057128906,-0.8101196,0.3024292,14.78125,-17.984375,8.3125
1664563338987,-0.040039062,-0.70025635,0.2567749,10.109375,-16.375,4.296875
1664563338991,-0.16918945,-0.73394775,0.26727295,0.96875,-21.15625,-1.390625
1664563339000,-0.17993164,-0.71099854,0.35003662,2.328125,-13.578125,2.078125
1664563339030,-0.26464844,-0.84454346,0.37493896,-5.4375,-8.25,-1.21875
1664563339075,-0.14160156,-0.99957275,0.44573975,-10.515625,-4.59375,2.125
1664563339120,-0.19750977,-0.89068604,0.40570068,-2.0625,10.203125,-6.109375
1664563339149,-0.20703125,-0.9168091,0.42791748,-5.578125,10.578125,-7.8125
1664563339195,-0.15771484,-0.95562744,0.29608154,-10.59375,10.453125,-7.921875
1664563339240,0.123291016,-1.366272,0.18035889,-19.046875,2.125,-6.96875
1664563339272,0.38891602,-1.3291626,0.4208374,-3.453125,-6.765625,-5.953125
1664563339315,0.114990234,-1.1521606,0.47894287,6.8125,7.15625,-4.046875
1664563339344,-0.05029297,-1.0352173,0.51898193,-1.015625,-11.765625,5.65625
1664563339390,-0.03930664,-1.0994263,0.47576904,0.375,-20.71875,5.75
1664563339436,-0.046142578,-0.97369385,0.418396,1.328125,-8.84375,6.0
1664563339464,-0.08276367,-0.65802,0.36688232,0.609375,4.984375,-0.140625
1664563339510,-0.15039062,-0.5095825,0.26654053,7.0625,2.5625,3.421875
1664563339555,-0.07910156,-0.5630493,0.32611084,0.484375,2.03125,-0.875
1664563339600,-0.0068359375,-0.6194458,0.46600342,11.21875,12.5,-4.640625
1664563339630,-0.15014648,-0.489563,0.38519287,19.21875,18.859375,-7.484375
1664563339675,0.064697266,-0.819397,0.27386475,-8.859375,14.28125,-0.59375
1664563339705,0.10253906,-0.87164307,0.47454834,-3.390625,2.875,-2.234375
1664563339750,-0.017089844,-0.9558716,0.39398193,2.5,1.921875,0.3125
1664563339780,0.044189453,-1.5159302,0.22869873,-28.40625,-17.15625,5.765625
1664563339825,-0.080078125,-1.5982056,0.46868896,1.78125,10.328125,6.15625
1664563339870,0.04321289,-0.8652954,0.70526123,-1.71875,32.59375,3.515625
1664563339902,-0.21240234,-1.1575317,0.57440186,0.984375,0.109375,-8.4375
1664563339945,0.079589844,-1.1851196,0.40081787,0.953125,-0.1875,5.21875
1664563339990,-0.11206055,-0.850647,0.4491577,14.546875,12.09375,-8.96875
1664563340019,-0.087890625,-0.6885376,0.31243896,9.640625,1.328125,-1.796875
1664563340065,0.059570312,-0.65411377,0.23944092,6.765625,0.546875,0.515625
1664563340095,-0.017578125,-0.6050415,0.21063232,8.25,-6.453125,1.765625
1664563340155,-0.12451172,-0.59454346,0.23236084,2.546875,-13.296875,2.3125
1664563340185,-0.106933594,-0.66241455,0.2579956,5.0,-16.1875,1.53125
1664563340232,-0.12451172,-0.7876587,0.2616577,1.359375,-11.09375,0.96875
1664563340259,-0.2998047,-0.85601807,0.48284912,-9.765625,-3.4375,-3.609375
1664563340305,-0.24731445,-0.99713135,0.42889404,0.625,5.296875,-3.25
1664563340335,0.025634766,-1.4990845,0.4454956,-9.609375,0.265625,-8.453125
1664563340380,0.43603516,-1.6167603,0.38250732,-3.546875,-16.15625,-4.765625
1664563340455,0.06665039,-1.147522,0.5192261,2.203125,8.296875,-14.140625
1664563340459,-0.43554688,-1.0896606,0.5939331,13.5,-1.6875,0.65625
1664563340502,2.4414062E-4,-1.1174927,0.37615967,-1.046875,-8.765625,6.78125
1664563340530,0.09057617,-1.0083618,0.39007568,-6.796875,3.0625,-2.578125
1664563340575,0.014892578,-0.7354126,0.30096436,7.625,4.625,3.15625
1664563340620,-0.064208984,-0.63848877,0.2994995,-1.125,-4.75,4.109375
1664563340650,-0.09472656,-0.5918579,0.26287842,6.5,-0.34375,4.03125
1664563340695,-0.075683594,-0.569397,0.39276123,17.84375,10.53125,-2.390625
1664563340742,-0.09716797,-0.7324829,0.34051514,0.453125,8.703125,-2.90625
1664563340770,-0.010986328,-0.8291626,0.36053467,-2.78125,4.28125,0.34375
1664563340815,0.061035156,-0.8687134,0.52215576,-4.15625,-4.109375,-2.0625
1664563340845,-0.04711914,-0.88604736,0.46624756,5.5,4.328125,-3.640625
1664563340890,-0.057373047,-1.130188,0.246521,-12.890625,-5.046875,1.15625
1664563340935,-7.324219E-4,-1.5505981,0.24969482,-33.734375,-6.21875,10.921875
1664563340965,0.24560547,-1.2085571,0.37371826,-11.0,2.671875,16.546875
1664563341009,-0.15332031,-0.97125244,0.6786499,0.203125,20.3125,-7.265625
1664563341054,-0.20874023,-1.211731,0.6022339,5.4375,-3.234375,2.984375
1664563341085,0.04321289,-1.013977,0.35491943,9.734375,3.203125,-0.453125
1664563341129,-0.20800781,-0.85528564,0.37982178,1.953125,15.0,-8.765625
1664563341175,-0.12988281,-0.7503052,0.3793335,6.734375,3.59375,-1.46875
1664563341207,0.03515625,-0.70928955,0.25872803,3.328125,5.984375,-0.0625
1664563341250,-0.057373047,-0.65948486,0.2526245,-0.21875,4.28125,0.40625
1664563341280,-0.0637207,-0.6404419,0.3126831,-2.875,-7.484375,0.71875
1664563341325,-0.080322266,-0.72052,0.29510498,-1.0,-9.5625,3.046875
1664563341370,-0.1772461,-0.83135986,0.46307373,-1.484375,-7.375,0.765625
1664563341403,-0.13427734,-0.9031372,0.38031006,-12.296875,-4.28125,2.625
1664563341445,-0.23486328,-0.90411377,0.5504761,-3.515625,1.40625,-6.421875
1664563341490,-0.20239258,-0.8772583,0.4249878,-3.0625,-0.890625,-4.390625
1664563341520,0.031982422,-1.2642212,0.3295288,-4.65625,-3.4375,-4.890625
1664563341565,0.2824707,-1.2993774,0.37982178,-10.3125,-11.578125,-6.875
1664563341610,0.07055664,-1.3030396,0.6869507,8.15625,1.734375,-13.796875
1664563341640,-0.23461914,-1.1277466,0.7069702,-8.484375,6.140625,-3.578125
1664563341685,-0.10644531,-1.0066528,0.44818115,-2.4375,3.28125,0.984375
1664563341715,0.04345703,-0.9221802,0.49139404,-4.03125,3.546875,-1.25
1664563341761,-0.0048828125,-0.72662354,0.38909912,7.265625,7.046875,1.15625
1664563341805,-0.060791016,-0.57354736,0.2855835,1.296875,6.9375,3.265625
1664563341834,-0.053955078,-0.56378174,0.4467163,6.046875,0.75,2.4375
1664563341880,-0.046142578,-0.60235596,0.4725952,16.8125,9.921875,-1.53125
1664563341925,-0.064941406,-0.7852173,0.38201904,-0.59375,5.71875,-1.671875
1664563341954,0.055908203,-0.8399048,0.4303589,6.21875,-0.8125,3.34375
1664563342000,0.028564453,-0.77056885,0.48724365,8.640625,-1.703125,-0.9375
1664563342030,-0.092041016,-0.7786255,0.47210693,5.953125,-3.734375,0.859375
1664563342077,-0.09863281,-0.9717407,0.41351318,-5.8125,-8.421875,3.828125
1664563342120,-0.0029296875,-1.4014282,0.31219482,-21.390625,-10.40625,10.1875
1664563342151,0.17626953,-1.4439087,0.34051514,-9.578125,-1.796875,13.875
1664563342195,-0.10131836,-1.1028442,0.45404053,0.234375,0.015625,0.078125
1664563342240,-0.24487305,-1.0713501,0.7201538,13.140625,-0.140625,0.484375
1664563342270,-0.048339844,-1.1035767,0.46258545,16.28125,-3.15625,2.6875
1664563342315,-0.044677734,-0.91290283,0.21453857,12.75,3.46875,-0.78125
1664563342345,-0.15722656,-0.7156372,0.29071045,4.078125,4.65625,-3.6875
1664563342390,-0.079833984,-0.677063,0.30218506,7.90625,-3.65625,1.109375
1664563342435,-0.042236328,-0.72857666,0.29412842,2.1875,-6.84375,2.28125
1664563342465,-0.14501953,-0.65948486,0.32122803,3.515625,-6.421875,3.109375
1664563342510,-0.20703125,-0.7385864,0.29193115,2.53125,-3.4375,0.28125
1664563342555,-0.15332031,-0.85357666,0.36590576,-3.515625,-1.90625,-0.34375
1664563342585,-0.2446289,-0.86065674,0.3842163,-6.5,0.359375,-3.703125
1664563342630,-0.29248047,-0.8826294,0.42132568,-1.46875,3.234375,-6.53125
1664563342659,0.11694336,-1.1941528,0.20721436,-11.828125,-6.0625,-1.546875
1664563342705,0.3203125,-1.361145,0.29022217,0.1875,-16.109375,-5.875
1664563342750,0.0,-1.3171997,0.6774292,3.140625,4.03125,-9.234375
1664563342780,-0.103759766,-1.0859985,0.5158081,0.0625,-3.515625,-1.53125
1664563342825,-0.083496094,-1.1155396,0.3847046,-3.15625,-10.484375,5.140625
1664563342870,-4.8828125E-4,-1.0308228,0.53656006,-9.40625,-1.96875,1.59375
1664563342900,-0.05834961,-0.8196411,0.33807373,2.84375,7.40625,1.125
1664563342945,-0.0871582,-0.66607666,0.29852295,2.90625,3.4375,4.140625
1664563342989,-0.052246094,-0.63726807,0.31097412,-2.390625,5.171875,4.203125
1664563343020,-0.08984375,-0.59503174,0.3866577,4.796875,15.484375,-1.5
1664563343065,-0.14819336,-0.5679321,0.38909912,12.765625,17.359375,-6.65625
1664563343095,-0.037597656,-0.85357666,0.42767334,-5.625,18.875,-6.734375
1664563343140,0.13330078,-0.9234009,0.4713745,-1.53125,10.09375,-2.71875
1664563343185,0.03564453,-0.88409424,0.524353,1.5,5.1875,-3.671875
1664563343215,-0.044677734,-1.041565,0.46063232,-6.578125,-2.703125,2.09375
1664563343260,-0.036132812,-1.2493286,0.1828003,-26.234375,-6.171875,6.953125
1664563343305,-0.0029296875,-1.3511353,0.35125732,-11.984375,12.5625,10.0
1664563343335,0.072021484,-0.99884033,0.4598999,-4.875,11.15625,3.09375
1664563343380,-0.25268555,-1.0906372,0.70892334,-3.796875,16.09375,-10.09375
1664563343410,-0.075927734,-1.1917114,0.4225464,6.09375,0.796875,2.828125
1664563343457,-0.05126953,-0.9143677,0.38031006,1.5625,14.671875,-7.703125
1664563343500,-0.09863281,-0.81744385,0.340271,3.015625,13.328125,-7.640625
1664563343529,-0.016357422,-0.71051025,0.35101318,9.53125,9.296875,-2.75
1664563343575,-0.014160156,-0.6416626,0.27557373,6.046875,6.171875,0.34375
1664563343621,-0.076660156,-0.60479736,0.3192749,0.125,-6.25,1.28125
1664563343649,-0.16674805,-0.71710205,0.31097412,-5.078125,-8.546875,4.0
1664563343696,-0.10424805,-0.78912354,0.41644287,-7.921875,-11.359375,5.140625
1664563343741,-0.17089844,-0.8677368,0.48846436,-15.359375,-6.3125,0.140625
1664563343770,-0.26513672,-0.8533325,0.54974365,-8.171875,0.515625,-5.140625
1664563343815,-0.14501953,-0.83428955,0.38690186,4.546875,-1.734375,-3.34375
1664563343845,0.32739258,-1.3340454,0.21722412,9.359375,-19.125,4.96875
1664563343890,0.30786133,-1.4675903,0.43450928,16.734375,-24.84375,-13.25
1664563343935,-0.15551758,-1.2232056,0.7872925,3.34375,3.234375,-1.765625
1664563343965,-0.23608398,-1.116272,0.44403076,8.296875,3.703125,6.5
1664563344010,0.10986328,-1.0501099,0.5939331,-2.484375,-6.28125,10.984375
1664563344056,0.16455078,-0.92633057,0.4701538,5.671875,-3.140625,0.828125
1664563344085,-0.111572266,-0.7124634,0.31903076,11.421875,6.0,3.265625
1664563344131,0.020996094,-0.61968994,0.3241577,2.546875,-3.5625,7.265625
1664563344160,0.015136719,-0.6812134,0.42059326,6.390625,3.03125,0.46875
1664563344205,-0.16235352,-0.6358032,0.3751831,13.8125,8.609375,-2.5
1664563344250,-0.061767578,-0.73760986,0.3554077,-4.53125,8.21875,-2.53125
1664563344280,0.064208984,-0.7764282,0.37591553,1.421875,6.390625,-2.890625
1664563344328,0.059814453,-0.80670166,0.47039795,2.671875,1.328125,-3.671875
1664563344370,0.05126953,-0.9036255,0.4989624,0.84375,-1.265625,-0.28125
1664563344400,-0.033935547,-0.7893677,0.49188232,7.203125,-0.03125,-1.203125
1664563344445,-0.14038086,-0.96099854,0.34710693,-5.109375,-6.390625,-1.1875
1664563344490,0.10058594,-1.2190552,0.17962646,-15.15625,-14.140625,9.25
1664563344520,0.14477539,-1.298645,0.2748413,-4.1875,-7.421875,9.71875
1664563344565,-0.055419922,-1.217102,0.3493042,3.9375,-6.203125,4.765625
1664563344595,-0.061035156,-0.90753174,0.6564331,6.953125,6.078125,0.296875
1664563344640,-0.19628906,-1.0825806,0.42181396,5.59375,-9.6875,0.890625
1664563344685,-0.03955078,-1.0005493,0.27459717,2.796875,-1.28125,4.59375
1664563344715,-0.08959961,-0.78448486,0.27288818,0.53125,8.5625,-4.3125
1664563344761,-0.10839844,-0.7136841,0.33319092,1.359375,-2.4375,-0.828125
1664563344807,2.4414062E-4,-0.70147705,0.3295288,0.859375,-7.859375,2.5625
1664563344834,-0.09423828,-0.6680298,0.24090576,3.171875,-10.265625,0.84375
1664563344880,-0.25073242,-0.66973877,0.33880615,2.34375,-1.5,-1.984375
1664563344910,-0.1628418,-0.829895,0.30926514,-5.0625,-5.203125,-0.796875
1664563344957,-0.28686523,-0.8772583,0.41278076,-12.265625,7.375,-6.09375
1664563345000,-0.22045898,-0.94317627,0.36444092,-2.28125,7.1875,-7.84375
1664563345029,0.2211914,-1.5125122,0.37176514,-3.578125,-2.40625,-2.53125
1664563345075,0.37182617,-1.2879028,0.3998413,2.59375,-3.703125,-8.734375
1664563345123,-0.05810547,-1.1687622,0.55633545,4.84375,5.90625,-9.671875
1664563345150,-0.22094727,-1.1734009,0.58514404,6.921875,-3.484375,1.984375
1664563345195,-0.05493164,-1.0891724,0.45843506,-8.53125,-1.078125,-0.34375
1664563345240,0.051513672,-0.93951416,0.3944702,-7.515625,4.578125,1.546875
1664563345269,0.037841797,-0.6814575,0.35076904,3.71875,5.234375,4.546875
1664563345315,-0.08276367,-0.663147,0.3456421,-4.5,1.046875,2.375
1664563345345,-0.08911133,-0.6802368,0.3866577,1.296875,3.890625,2.515625
1664563345390,-0.08081055,-0.56378174,0.49261475,10.328125,14.71875,-4.203125
1664563345436,-0.09765625,-0.7214966,0.2921753,9.078125,13.375,-7.0
1664563345465,0.12988281,-0.8479614,0.3866577,-10.625,-3.890625,4.4375
1664563345510,0.080078125,-0.76934814,0.49456787,-4.203125,-2.671875,-1.28125
1664563345557,-0.06567383,-0.8796997,0.5097046,2.546875,-3.640625,0.9375
1664563345585,-0.01977539,-1.2476196,0.40252686,-22.125,-17.15625,8.0625
1664563345632,0.17285156,-1.4224243,0.42156982,-14.703125,-5.453125,19.78125
1664563345660,0.06933594,-1.0037231,0.46258545,0.515625,3.234375,-1.5625
1664563345705,-0.4506836,-1.0901489,0.68743896,4.140625,5.296875,-3.984375
1664563345751,-0.13012695,-1.1589966,0.5001831,7.5,-12.59375,10.890625
1664563345780,0.07519531,-1.0110474,0.37127686,4.328125,5.453125,-1.609375
1664563345828,-0.20996094,-0.8875122,0.40618896,5.71875,5.734375,-3.65625
1664563345871,-0.10668945,-0.7383423,0.340271,9.484375,-0.109375,4.453125
1664563345900,0.034423828,-0.6917114,0.27069092,6.4375,-0.375,2.515625
1664563345945,-0.04345703,-0.67144775,0.3204956,2.5625,-6.3125,2.75
1664563345991,-0.12988281,-0.6026001,0.3139038,3.828125,-10.25,3.984375
1664563346020,-0.1315918,-0.6983032,0.29632568,4.453125,-5.828125,3.359375
1664563346066,-0.15917969,-0.78863525,0.40374756,0.25,-3.265625,0.734375
1664563346140,-0.24682617,-0.9229126,0.418396,-1.984375,3.640625,-4.421875
1664563346143,-0.20507812,-0.8845825,0.42303467,0.59375,7.015625,-4.8125
1664563346185,0.1706543,-1.291565,0.37225342,-3.46875,-6.3125,1.34375
1664563346215,0.34399414,-1.2251587,0.29925537,-2.609375,-10.796875,-7.3125
1664563346261,-0.04248047,-1.2678833,0.57318115,12.125,6.984375,-6.40625
1664563346306,0.0014648438,-1.144104,0.5548706,8.5625,-9.28125,5.015625
1664563346335,-0.0637207,-1.0796509,0.5006714,-0.703125,-1.265625,-1.265625
1664563346380,0.032958984,-1.0344849,0.4088745,1.359375,-5.09375,2.015625
1664563346410,-0.025878906,-0.81744385,0.39544678,-2.1875,6.96875,-0.84375
1664563346456,-0.06591797,-0.62286377,0.29315186,7.890625,4.71875,1.0
1664563346500,-0.038330078,-0.61260986,0.32781982,0.65625,5.578125,-1.046875
1664563346530,-0.052978516,-0.6157837,0.4364624,15.875,9.359375,-3.984375
1664563346576,-0.1262207,-0.70928955,0.34320068,-2.296875,9.359375,-6.515625
1664563346620,0.02368164,-0.8633423,0.3739624,-0.609375,5.90625,-3.984375
1664563346650,0.044677734,-0.82525635,0.4286499,-0.390625,8.515625,-5.90625
1664563346695,-0.010498047,-0.9248657,0.38885498,-1.1875,2.484375,-3.46875
1664563346740,0.026855469,-1.2581177,0.2616577,-18.734375,-7.890625,2.703125
1664563346769,0.12866211,-1.4275513,0.33587646,-13.890625,1.171875,10.71875
1664563346816,0.06665039,-1.1130981,0.401062,5.90625,8.453125,1.59375
1664563346844,-0.17163086,-1.015686,0.5372925,0.078125,2.546875,-4.390625
1664563346890,-0.21264648,-1.1738892,0.4833374,5.0625,-8.90625,1.984375
1664563346936,-0.053955078,-0.9746704,0.23162842,7.671875,11.109375,-0.953125
1664563346965,-0.13891602,-0.8154907,0.32318115,-1.234375,11.96875,-7.390625
1664563347010,-0.08227539,-0.7420044,0.31365967,3.25,6.046875,-0.03125
1664563347055,0.0029296875,-0.7620239,0.24627686,-4.1875,4.875,-0.125
1664563347086,-0.030761719,-0.6790161,0.32635498,-4.921875,6.390625,0.859375
1664563347130,-0.080322266,-0.6333618,0.26849365,-9.1875,4.109375,0.65625
1664563347160,-0.12084961,-0.81695557,0.3781128,-7.078125,-10.78125,3.796875
1664563347205,-0.14697266,-0.9143677,0.45281982,-2.546875,-9.96875,4.953125
1664563347266,-0.23413086,-0.89556885,0.4874878,-4.359375,-0.40625,-0.953125
1664563347280,-0.2446289,-0.83795166,0.48284912,-2.75,-4.140625,-4.296875
1664563347325,0.015380859,-1.1067505,0.37225342,11.546875,-9.984375,2.71875
1664563347370,0.36621094,-1.1487427,0.15008545,-1.015625,-25.828125,-1.40625
1664563347415,0.034179688,-1.5835571,0.72528076,6.6875,-11.921875,-6.046875
1664563347445,-0.14990234,-1.0361938,0.6913452,3.234375,13.484375,-7.796875
1664563347475,-0.37768555,-1.0840454,0.3114624,4.0,7.015625,2.84375
1664563347520,0.18652344,-1.0344849,0.59490967,-13.734375,1.75,5.5
1664563347581,0.14257812,-0.8982544,0.40570068,8.84375,9.484375,-4.265625
1664563347595,-0.17089844,-0.60723877,0.26312256,2.5625,20.171875,0.5625
1664563347643,-0.017822266,-0.6321411,0.40301514,-5.140625,0.328125,1.078125
1664563347686,-0.050048828,-0.6489868,0.41619873,8.703125,12.46875,-7.796875
1664563347715,-0.1352539,-0.53912354,0.3920288,19.1875,9.0,-7.78125
1664563347761,0.09741211,-0.8428345,0.39300537,-7.90625,2.453125,-0.40625
1664563347836,0.10961914,-0.8677368,0.4196167,7.875,2.796875,-2.921875
1664563347840,-0.04711914,-0.7893677,0.494812,9.015625,0.25,-4.25
1664563347880,-0.04248047,-0.894104,0.42669678,0.578125,-3.5625,0.5625
1664563347910,-0.05053711,-1.1692505,0.27679443,-12.140625,-12.015625,4.078125
1664563347956,0.08251953,-1.5115356,0.33465576,-20.765625,-10.46875,14.1875
1664563348001,0.14355469,-1.1531372,0.293396,1.59375,-5.390625,10.203125
1664563348030,-0.23925781,-1.003479,0.56829834,3.71875,11.171875,-4.3125
1664563348075,-0.17871094,-1.0774536,0.5668335,8.375,-1.828125,4.484375
1664563348121,0.0056152344,-1.0056763,0.3241577,8.234375,5.78125,0.546875
1664563348150,-0.115234375,-0.84332275,0.33465576,2.140625,7.609375,-3.046875
1664563348195,-0.10253906,-0.7698364,0.31365967,6.890625,5.25,-0.28125
1664563348225,-0.008300781,-0.7268677,0.23919678,5.375,1.15625,1.015625
1664563348271,-0.028808594,-0.69122314,0.29779053,4.546875,-4.796875,1.953125
1664563348316,-0.12451172,-0.6724243,0.2946167,5.046875,-11.09375,2.171875
1664563348345,-0.16088867,-0.7803345,0.30511475,0.578125,-7.890625,2.203125
1664563348391,-0.08251953,-0.80963135,0.33831787,-1.265625,-6.703125,2.015625
1664563348435,-0.18237305,-0.87945557,0.43670654,-2.828125,0.09375,-3.0
1664563348465,-0.23779297,-0.92852783,0.4730835,-2.828125,3.75,-2.453125
1664563348510,-0.13793945,-0.9644165,0.30999756,-2.546875,0.328125,-4.328125
1664563348556,0.18725586,-1.286438,0.20526123,-6.578125,-13.921875,-1.5
1664563348586,0.14404297,-1.0750122,0.38201904,1.015625,-8.15625,-12.375
1664563348630,-0.104003906,-1.4297485,0.7045288,1.28125,0.171875,1.8125
1664563348660,0.047607422,-1.15094,0.57489014,-9.71875,-5.375,3.375
1664563348705,-0.0847168,-1.0701294,0.4713745,-3.34375,4.6875,0.015625
1664563348751,0.0390625,-0.95098877,0.4159546,-3.921875,-7.40625,5.171875
1664563348780,-0.0087890625,-0.7559204,0.43133545,-4.53125,5.171875,4.46875
1664563348826,-0.1159668,-0.6326294,0.29681396,1.03125,6.453125,2.75
1664563348871,-0.17675781,-0.62579346,0.34710693,0.328125,4.28125,0.890625
1664563348900,-0.056640625,-0.62579346,0.38568115,19.046875,9.640625,-3.3125
1664563348946,0.020751953,-0.77545166,0.40081787,-6.796875,3.953125,-2.890625
1664563348975,7.324219E-4,-0.86846924,0.42889404,-2.65625,5.171875,-0.21875
1664563349021,0.010009766,-0.86260986,0.49310303,6.984375,1.5625,-3.703125
1664563349065,0.029785156,-0.85821533,0.58636475,-0.75,0.15625,0.5
1664563349095,-0.095947266,-0.9500122,0.31878662,-5.921875,-3.578125,0.703125
1664563349141,-0.0637207,-1.2476196,0.121520996,-26.1875,-0.609375,7.234375
1664563349185,0.28857422,-1.4932251,0.29852295,0.671875,-1.359375,14.25
1664563349214,0.18945312,-1.093811,0.46722412,-2.9375,10.046875,6.59375
1664563349276,-0.21875,-1.0012817,0.67840576,9.921875,12.265625,-6.109375
1664563349335,-0.21362305,-1.1431274,0.4611206,10.671875,-6.59375,5.90625
1664563349339,0.08886719,-0.89678955,0.3209839,5.4375,4.640625,-1.4375
1664563349381,-0.123535156,-0.74468994,0.3234253,7.125,7.09375,-8.09375
1664563349410,-0.08520508,-0.6721802,0.33538818,6.328125,-2.953125,1.171875
1664563349458,-0.03173828,-0.7114868,0.33807373,0.109375,-6.59375,1.4375
1664563349500,-0.13891602,-0.66363525,0.2868042,3.390625,-9.328125,2.78125
1664563349529,-0.13696289,-0.722229,0.3546753,8.015625,-6.421875,1.734375
1664563349575,-0.16186523,-0.86676025,0.36688232,2.703125,-4.546875,-0.65625
1664563349620,-0.15112305,-0.8538208,0.33880615,4.609375,4.265625,1.203125
1664563349650,-0.23608398,-0.8711548,0.385437,-3.734375,4.75,-9.515625
1664563349695,0.030761719,-1.3599243,0.291687,0.203125,-8.78125,-4.296875
1664563349725,0.39697266,-1.4431763,0.2645874,-5.234375,-14.75,-3.9375
1664563349770,0.1508789,-1.0488892,0.3143921,10.203125,2.734375,-8.359375
1664563349815,-0.14575195,-1.3120728,0.58636475,5.53125,-4.9375,6.21875
1664563349860,-0.17333984,-1.0081177,0.45599365,-5.65625,-1.984375,3.59375
1664563349892,0.099609375,-1.0083618,0.2501831,15.125,2.5,7.265625
1664563349935,0.10058594,-0.8994751,0.4303589,-1.03125,-3.0,2.984375
1664563349967,-0.02734375,-0.7354126,0.42303467,11.25,0.6875,5.3125
1664563350010,-0.13500977,-0.6375122,0.21380615,9.671875,5.03125,0.375
1664563350055,-0.114990234,-0.6897583,0.3727417,5.640625,14.078125,-5.796875
1664563350087,-0.052734375,-0.7942505,0.3517456,-7.625,19.4375,-9.734375
1664563350130,0.09838867,-0.8328247,0.30169678,-0.578125,12.40625,-3.1875
1664563350159,0.10229492,-0.8086548,0.38519287,0.015625,11.296875,-6.9375
1664563350205,0.088378906,-0.8555298,0.34735107,-3.34375,1.875,-5.84375
1664563350251,-0.032714844,-1.1411743,0.26287842,-18.609375,-11.515625,-2.546875
1664563350280,0.06518555,-1.4612427,0.29144287,-15.0625,-11.375,10.65625
1664563350326,0.045898438,-1.30719,0.32757568,-4.21875,4.078125,4.75
1664563350370,-0.103515625,-1.0098267,0.4850464,0.234375,0.90625,-0.75
1664563350400,-0.23071289,-1.1187134,0.5392456,-2.4375,2.796875,1.0
1664563350446,-0.122558594,-1.1253052,0.3756714,6.75,6.359375,2.375
1664563350475,-0.019042969,-0.80181885,0.23260498,-5.390625,11.4375,-5.296875
1664563350520,-0.084472656,-0.7695923,0.37835693,-3.703125,7.109375,-4.234375
1664563350566,0.024902344,-0.71881104,0.2789917,5.640625,2.40625,3.390625
1664563350594,0.0107421875,-0.69781494,0.28045654,-4.625,-1.203125,-1.140625
1664563350640,-0.1616211,-0.6265259,0.27215576,1.78125,-17.1875,2.53125
1664563350687,-0.13427734,-0.6682739,0.32611084,1.046875,-5.328125,3.6875
1664563350715,-0.0871582,-0.8110962,0.31414795,-5.765625,-4.6875,-2.953125
1664563350760,-0.1965332,-0.8994751,0.4303589,-6.046875,-0.265625,-2.9375
1664563350806,-0.28125,-0.84625244,0.48553467,-6.046875,4.3125,-6.265625
1664563350835,0.040039062,-1.024231,0.32757568,-9.203125,-5.921875,-2.453125
1664563350880,0.32763672,-1.3325806,0.38079834,-3.3125,-11.5,-1.484375
1664563350910,-0.043701172,-1.5857544,0.66326904,4.09375,3.078125,-11.015625
1664563350955,-0.012939453,-1.1043091,0.5973511,5.59375,-0.609375,-1.71875
1664563351000,-0.11352539,-1.0913696,0.40374756,3.171875,-3.3125,2.75
1664563351029,0.051513672,-1.0239868,0.51068115,-5.671875,-6.484375,3.359375
1664563351075,0.0073242188,-0.81500244,0.33636475,3.21875,-1.3125,0.796875
1664563351120,-0.12597656,-0.5820923,0.27947998,0.703125,10.21875,6.875
1664563351150,-0.09423828,-0.6182251,0.36810303,0.125,-1.921875,1.046875
1664563351195,-0.0021972656,-0.6878052,0.43450928,7.171875,7.34375,0.734375
1664563351225,-0.12402344,-0.62164307,0.42767334,14.65625,10.03125,-7.28125
1664563351270,-0.04248047,-0.7954712,0.371521,3.84375,16.546875,-2.296875
1664563351315,0.10229492,-0.8184204,0.3632202,4.453125,6.046875,-3.03125
1664563351345,-0.026123047,-0.81036377,0.42303467,2.34375,-2.09375,-0.890625
1664563351390,0.03173828,-0.9849243,0.3007202,-5.0625,-8.4375,4.375
1664563351436,9.765625E-4,-1.414856,0.14227295,-15.640625,-6.59375,8.59375
1664563351465,0.38208008,-1.2835083,0.18743896,7.0,-10.984375,28.140625
1664563351509,-0.12841797,-1.0725708,0.61053467,14.90625,-3.15625,-3.25
1664563351540,-0.46777344,-1.3450317,0.7614136,10.625,-0.53125,-0.015625
1664563351585,0.10473633,-1.1223755,0.2345581,12.0625,3.0625,4.484375
1664563351630,-0.1003418,-0.91070557,0.40740967,0.328125,15.125,-11.9375
1664563351660,-0.12133789,-0.8049927,0.25775146,8.625,4.53125,-2.484375
1664563351705,-0.01977539,-0.7178345,0.21331787,6.34375,3.453125,-2.421875
1664563351751,-0.09643555,-0.72052,0.28216553,-3.171875,0.875,-2.5
1664563351780,-0.1303711,-0.6548462,0.25408936,-1.25,-0.34375,-0.671875
1664563351825,-0.14697266,-0.71539307,0.26287842,1.234375,6.421875,-3.21875
1664563351870,-0.13916016,-0.8098755,0.28704834,-11.5,2.359375,-2.4375
1664563351900,-0.13476562,-0.80059814,0.32366943,-9.734375,1.96875,-1.96875
1664563351946,-0.18603516,-0.8648071,0.41204834,-0.34375,4.546875,-3.96875
1664563351975,-0.12011719,-0.9024048,0.28167725,-0.0625,-0.875,-3.609375
1664563352020,0.2253418,-1.3225708,0.19036865,-11.75,-16.21875,-1.953125
1664563352065,0.37304688,-1.3491821,0.32391357,1.875,-15.921875,-7.890625
1664563352095,-0.16577148,-1.218811,0.64715576,8.703125,11.0,-5.796875
1664563352140,-0.21362305,-1.2456665,0.46087646,11.78125,-8.5,9.53125
1664563352185,0.0024414062,-1.1377563,0.42181396,2.984375,-10.359375,4.234375
1664563352215,-0.014160156,-1.0164185,0.40179443,-4.953125,2.90625,0.140625
1664563352261,-0.06640625,-0.7498169,0.31072998,5.171875,3.171875,0.984375
1664563352290,-0.09106445,-0.6321411,0.3053589,-3.859375,3.265625,2.109375
1664563352335,-0.092041016,-0.6123657,0.33685303,8.484375,8.5625,0.640625
1664563352380,-0.084472656,-0.6123657,0.31781006,10.921875,15.53125,-4.265625
1664563352410,-0.07885742,-0.6572876,0.33929443,8.765625,19.453125,-6.171875
1664563352455,0.072753906,-0.8814087,0.38250732,-9.6875,9.734375,-4.140625
1664563352502,0.080322266,-0.9273071,0.40423584,-0.578125,6.09375,-2.140625
1664563352530,-9.765625E-4,-0.8765259,0.49041748,-1.9375,-2.828125,-1.171875
1664563352575,-0.028076172,-0.9258423,0.28070068,-7.03125,-7.09375,2.546875
1664563352620,-0.09448242,-1.0488892,0.1383667,-35.75,3.75,6.53125
1664563352650,0.08691406,-1.8877563,0.45159912,-12.40625,-6.3125,16.796875
1664563352695,0.2043457,-1.1365356,0.39105225,-18.109375,7.953125,11.140625
1664563352725,-0.4831543,-1.1426392,0.80999756,-0.46875,14.9375,-17.453125
1664563352770,-0.13549805,-1.2420044,0.34539795,11.09375,-7.6875,10.265625
1664563352830,0.18530273,-0.8401489,0.35980225,9.171875,9.609375,-8.671875
1664563352844,-0.100097656,-0.6848755,0.24261475,9.234375,10.1875,-4.75
1664563352890,0.057128906,-0.63067627,0.21014404,6.046875,-5.359375,5.03125
1664563352935,0.07421875,-0.6592407,0.3324585,-7.96875,-14.265625,3.734375
1664563352965,-0.28222656,-0.72198486,0.37835693,1.171875,-15.5,2.140625
1664563353010,-0.21704102,-0.81622314,0.34246826,-8.03125,-16.40625,4.234375
1664563353040,-0.072265625,-0.864563,0.4491577,-4.0625,-8.546875,0.1875
1664563353085,-0.24829102,-0.89190674,0.44354248,-4.171875,1.765625,-5.34375
1664563353130,-0.23242188,-0.88726807,0.38201904,-1.765625,0.53125,-2.4375
1664563353159,0.16186523,-1.2041626,0.19793701,-2.3125,-8.828125,-2.5625
1664563353205,0.4633789,-1.2896118,0.34344482,-5.375,-17.859375,-5.375
1664563353250,-0.0126953125,-1.1863403,0.607605,12.921875,11.125,-5.765625
1664563353280,-0.18798828,-0.93634033,0.47283936,4.390625,-0.1875,4.8125
1664563353326,-0.013916016,-1.1504517,0.47698975,-4.140625,-12.0625,7.46875
1664563353370,0.052978516,-1.2163696,0.496521,-2.21875,-12.734375,0.1875
1664563353400,-0.047607422,-0.87750244,0.3505249,10.265625,2.65625,-1.625
1664563353446,-0.080078125,-0.704895,0.3319702,0.203125,-2.296875,0.9375
1664563353475,-0.057861328,-0.66656494,0.28582764,2.390625,-1.484375,1.921875
1664563353520,-0.080322266,-0.5498657,0.31219482,5.65625,7.296875,-1.203125
1664563353565,-0.084228516,-0.472229,0.33538818,20.640625,9.546875,-4.65625
1664563353595,0.06274414,-0.8858032,0.41937256,-5.96875,7.65625,-2.0
1664563353641,0.15820312,-0.9348755,0.4352417,9.015625,0.828125,2.75
1664563353685,-0.059570312,-0.8255005,0.4640503,5.15625,2.15625,-3.484375
1664563353717,-0.06542969,-1.1826782,0.32000732,-3.421875,-15.203125,2.859375
1664563353760,0.018798828,-1.4876099,0.17376709,-24.578125,-8.828125,7.953125
1664563353789,0.16064453,-1.1133423,0.23602295,8.234375,5.640625,10.375
1664563353851,-0.2548828,-1.0689087,0.5634155,-1.296875,16.203125,-4.171875
1664563353880,-0.14282227,-1.2202759,0.4533081,13.265625,-4.921875,4.03125
1664563353910,0.095703125,-0.98809814,0.3012085,4.15625,7.921875,-2.890625
1664563353956,-0.1694336,-0.8718872,0.37005615,-1.109375,13.171875,-5.890625
1664563354000,-0.07495117,-0.78253174,0.29632568,5.875,1.984375,-1.171875
1664563354030,0.0146484375,-0.70098877,0.2584839,2.109375,4.765625,-1.953125
1664563354075,-0.067871094,-0.5828247,0.22161865,8.515625,2.03125,0.78125
1664563354120,-0.107177734,-0.5930786,0.19207764,-0.609375,-8.828125,-1.53125
1664563354152,-0.15234375,-0.7576294,0.32757568,-8.1875,-7.84375,-1.734375
1664563354196,-0.16064453,-0.881897,0.38568115,-7.671875,-2.046875,-0.96875
1664563354226,-0.24121094,-0.9483032,0.40057373,-8.71875,7.171875,-6.609375
1664563354271,-0.044921875,-1.067688,0.30047607,-1.890625,3.75,-1.375
1664563354316,0.13867188,-1.2061157,0.1071167,-9.421875,-5.640625,-4.296875
1664563354345,0.18579102,-1.517395,0.66937256,3.34375,-6.578125,-4.25
1664563354390,0.0546875,-1.1548462,0.70892334,-5.640625,2.078125,-5.46875
1664563354436,-0.12426758,-1.1848755,0.37322998,8.78125,-4.21875,8.859375
1664563354465,0.061767578,-1.076477,0.5700073,-12.15625,-9.53125,3.1875
1664563354511,0.022705078,-0.87506104,0.3949585,2.734375,-1.53125,4.234375
1664563354541,-0.020751953,-0.66900635,0.2597046,-0.421875,-0.6875,6.296875
1664563354585,-0.06518555,-0.55963135,0.28460693,-1.484375,-2.1875,4.71875
1664563354630,-0.16870117,-0.581604,0.3739624,8.765625,6.703125,-1.40625
1664563354660,-0.12451172,-0.6091919,0.43988037,8.890625,8.890625,-4.703125
1664563354705,0.016601562,-0.8230591,0.38983154,-3.21875,12.0625,-3.84375
1664563354751,0.10839844,-0.8555298,0.42108154,1.796875,4.984375,-0.65625
1664563354781,-0.00390625,-0.7842407,0.46063232,1.15625,0.640625,-2.4375
1664563354825,-0.08300781,-0.9834595,0.36834717,-5.09375,-2.21875,-0.03125
1664563354870,0.045898438,-1.4815063,0.27801514,-24.5625,-15.0625,7.53125
1664563354900,0.24487305,-1.4805298,0.37176514,-7.9375,5.578125,17.109375
1664563354945,-0.017578125,-0.84503174,0.5932007,2.578125,19.90625,-1.75
1664563355021,-0.4975586,-1.1726685,0.7094116,1.40625,3.9375,-6.796875
1664563355024,0.10522461,-1.2244263,0.29388428,7.40625,-8.5625,13.640625
1664563355065,0.019042969,-0.8399048,0.46575928,6.671875,16.125,-13.515625
1664563355095,-0.20263672,-0.74346924,0.32537842,3.78125,2.828125,-2.734375
1664563355140,0.022460938,-0.7305298,0.291687,-0.734375,-1.5625,3.59375
1664563355185,0.052490234,-0.73223877,0.31732178,-5.21875,-6.25,1.515625
1664563355215,-0.16772461,-0.65704346,0.3307495,-6.6875,-12.15625,1.9375
1664563355261,-0.23461914,-0.74346924,0.41351318,-10.046875,-10.640625,-0.59375
1664563355291,-0.22949219,-0.7803345,0.524353,-21.765625,-2.9375,-1.40625
1664563355335,-0.2626953,-0.7852173,0.49993896,-5.5,9.46875,-8.71875
1664563355381,-0.16088867,-0.75787354,0.33831787,3.34375,20.5,-14.765625
1664563355410,-0.076416016,-0.78692627,0.31121826,1.703125,18.671875,-13.03125
1664563355456,0.28735352,-1.4575806,0.30316162,10.640625,-6.015625,-5.828125
1664563355500,0.2709961,-1.3423462,0.45819092,10.0625,-11.390625,-9.421875
1664563355531,0.0146484375,-1.2388306,0.55755615,14.28125,-17.0625,-0.09375
1664563355575,-0.2644043,-1.1160278,0.60858154,10.640625,-5.78125,5.671875
1664563355605,-0.09472656,-1.0632935,0.42962646,3.09375,-12.453125,8.390625
1664563355650,0.055419922,-1.0003052,0.49334717,-9.171875,-2.203125,4.921875
1664563355695,-0.044921875,-0.7168579,0.41888428,5.0625,0.359375,5.46875
1664563355726,-0.05810547,-0.6499634,0.30877686,0.40625,2.1875,2.6875
1664563355770,-0.09301758,-0.60650635,0.3661499,13.5625,6.296875,1.5625
1664563355816,-0.053466797,-0.45489502,0.32537842,23.921875,9.140625,-1.15625
1664563355845,-0.041503906,-0.66485596,0.2597046,0.5,8.8125,-4.578125
1664563355891,0.05908203,-0.8694458,0.4093628,-5.71875,1.140625,-0.140625
1664563355936,0.09692383,-0.8057251,0.4586792,13.25,-0.203125,-1.53125
1664563355965,-0.03125,-0.9624634,0.32781982,-1.296875,-1.109375,-1.515625
1664563356010,-0.047607422,-1.4546509,0.15911865,-30.625,-14.40625,5.5
1664563356040,0.27929688,-1.3804321,0.25115967,0.640625,2.015625,17.671875
1664563356085,-0.049072266,-1.1531372,0.50335693,-8.421875,10.8125,-3.265625
1664563356130,-0.29785156,-1.1555786,0.5963745,8.046875,6.890625,0.9375
1664563356160,-0.022216797,-1.1633911,0.30511475,-1.484375,-1.703125,1.34375
1664563356205,-0.041015625,-0.95684814,0.30950928,7.5625,9.78125,-3.796875
1664563356251,-0.0925293,-0.80841064,0.35638428,1.21875,7.296875,-1.890625
1664563356281,-0.0546875,-0.6843872,0.262146,8.515625,4.484375,0.34375
1664563356325,-0.048339844,-0.69732666,0.2098999,0.84375,3.328125,-1.453125
1664563356356,-0.0703125,-0.65167236,0.2975464,5.734375,-1.078125,1.453125
1664563356401,-0.072753906,-0.6333618,0.24578857,-0.953125,-13.3125,2.84375
1664563356461,-0.1237793,-0.7942505,0.34173584,-6.984375,-9.28125,1.09375
1664563356476,-0.15917969,-0.8945923,0.40594482,-12.90625,-9.84375,1.234375
1664563356520,-0.2685547,-0.9031372,0.46380615,-5.453125,4.84375,-6.34375
1664563356566,-0.1081543,-1.0217896,0.35076904,-1.1875,-3.765625,-3.65625
1664563356596,0.36694336,-1.4832153,0.19525146,-1.71875,-20.0,2.828125
1664563356640,0.24682617,-1.1995239,0.36444092,-2.78125,-14.859375,-11.984375
1664563356715,-0.18261719,-1.1602173,0.55145264,2.703125,-3.375,-0.5625
1664563356719,-0.11230469,-1.0564575,0.49017334,-1.953125,-8.40625,7.34375
1664563356763,0.010986328,-1.0427856,0.4718628,-6.125,-8.25,4.015625
1664563356790,-0.037353516,-0.88409424,0.45794678,-0.921875,3.109375,1.859375
1664563356836,-0.06689453,-0.66900635,0.35662842,6.390625,6.203125,2.9375
1664563356880,-0.067871094,-0.56817627,0.354187,1.09375,5.234375,2.90625
1664563356910,-0.103515625,-0.6279907,0.44744873,6.15625,7.84375,-2.28125
1664563356955,-0.0769043,-0.6296997,0.4743042,11.21875,10.8125,-5.953125
1664563357001,-0.03466797,-0.80474854,0.3751831,-4.0625,8.8125,-6.34375
1664563357030,0.09472656,-0.85943604,0.4874878,-2.40625,-0.078125,0.765625
1664563357075,0.12915039,-0.7612915,0.46624756,4.34375,0.328125,1.28125
1664563357105,-0.079833984,-0.9871216,0.27557373,-20.328125,-5.609375,5.6875
1664563357150,-0.10083008,-1.4678345,0.33172607,-27.375,-7.796875,7.078125
1664563357195,0.17333984,-1.4175415,0.5101929,-8.90625,6.140625,11.890625
1664563357225,-0.055419922,-1.1726685,0.60565186,-7.359375,5.90625,-1.78125
1664563357271,-0.26708984,-1.0300903,0.6000366,6.28125,-3.90625,-0.828125
1664563357316,-0.06567383,-1.0615845,0.41033936,9.46875,-3.734375,0.125
1664563357345,-0.043945312,-0.84869385,0.3703003,4.71875,3.015625,-4.6875
1664563357391,-0.10668945,-0.659729,0.33148193,12.921875,-1.484375,-1.984375
1664563357435,-0.099609375,-0.642395,0.30413818,10.09375,-7.65625,0.234375
1664563357466,-0.17578125,-0.6873169,0.32904053,9.65625,-4.203125,3.0
1664563357510,-0.14550781,-0.6460571,0.29022217,13.53125,-3.75,4.90625
1664563357540,-0.072753906,-0.78741455,0.36639404,1.640625,-1.75,0.78125
1664563357585,-0.1899414,-0.90338135,0.44403076,-0.453125,-4.765625,0.71875
1664563357631,-0.33642578,-0.95758057,0.54315186,2.890625,0.15625,-2.078125
1664563357660,-0.37231445,-0.9524536,0.67059326,-1.03125,4.078125,-4.09375
1664563357706,-0.35620117,-0.9133911,0.6317749,5.140625,8.140625,-8.28125
1664563357751,-0.33789062,-0.79888916,0.5265503,-3.453125,6.671875,-11.671875
1664563357781,0.1430664,-1.0144653,0.07293701,-10.6875,-0.3125,-8.640625
1664563357826,0.5234375,-1.4644165,-0.0029907227,-12.125,-21.890625,-7.59375
1664563357855,0.16430664,-1.3687134,0.5687866,32.421875,-11.484375,-13.6875
1664563357901,-0.2836914,-1.2644653,0.78533936,7.234375,7.234375,-5.734375
1664563357946,-0.13598633,-1.1399536,0.29779053,19.78125,0.71875,8.671875
1664563357976,-0.119384766,-1.0100708,0.41082764,-5.140625,16.125,0.671875
1664563358020,-0.12646484,-0.76763916,0.32318115,0.265625,19.203125,3.453125
1664563358066,-0.11376953,-0.66070557,0.34368896,-8.828125,15.671875,4.09375
1664563358096,-0.18530273,-0.58184814,0.36834717,5.046875,23.0,2.03125
1664563358140,-0.15820312,-0.60772705,0.35858154,-9.015625,27.375,-1.09375
1664563358215,-0.1381836,-0.67803955,0.51898193,-17.078125,32.3125,-7.71875
1664563358219,-0.12866211,-0.8213501,0.5385132,-3.15625,38.625,-13.09375
1664563358260,0.1928711,-1.0742798,0.53900146,-11.9375,31.0625,-1.671875
1664563358290,0.2548828,-0.9175415,0.8361206,-9.203125,20.015625,0.46875
1664563358336,-0.08496094,-0.86798096,0.7333374,-0.625,13.015625,-7.65625
1664563358380,-0.084228516,-0.6868286,0.7074585,-5.890625,1.625,-7.375
1664563358413,-0.2019043,-0.9771118,0.16497803,-14.78125,-19.09375,-14.140625
1664563358456,-0.09277344,-1.425354,-0.07525635,11.0,28.09375,-3.375
1664563358500,0.4724121,-1.2810669,0.120788574,7.390625,22.65625,15.65625
1664563358530,0.4790039,-1.015686,0.2489624,10.65625,-25.8125,-11.0625
1664563358577,-0.41479492,-1.5120239,0.21429443,5.984375,5.046875,-11.796875
1664563358606,-0.13745117,-1.1372681,0.22625732,3.25,-0.109375,16.484375
1664563358651,0.1850586,-0.8994751,0.3427124,6.828125,-0.0625,5.234375
1664563358695,0.171875,-0.92437744,0.29315186,10.90625,-12.453125,4.109375
1664563358724,0.075683594,-0.7415161,0.22161865,10.578125,-19.609375,6.890625
1664563358770,-0.040039062,-0.6983032,0.23626709,6.703125,-33.515625,4.65625
1664563358815,-0.106933594,-0.74005127,0.19476318,-6.0,-26.53125,5.578125
1664563358860,-0.1105957,-0.6646118,0.2892456,-5.71875,-30.109375,6.9375
1664563358890,-0.2512207,-0.49176025,0.28485107,15.90625,-26.234375,8.4375
1664563358935,-0.13916016,-0.60723877,0.14349365,5.65625,-21.46875,16.296875
1664563358965,-0.037353516,-0.79766846,0.3131714,-5.25,-17.421875,13.96875
1664563359010,-0.2722168,-0.9981079,0.524353,-18.984375,-8.234375,7.625
1664563359040,-0.17529297,-0.98638916,0.5231323,-4.3125,-16.671875,9.53125
1664563359085,-0.1003418,-0.91778564,0.53656006,4.796875,-12.390625,3.09375
1664563359130,-0.36083984,-0.9734497,0.39154053,-3.734375,-7.484375,-4.40625
1664563359161,-0.10498047,-1.3508911,0.06536865,-14.515625,7.65625,-2.3125
1664563359205,0.7961426,-1.9744263,0.71746826,-4.0625,1.078125,-11.78125
1664563359251,0.33129883,-1.0430298,0.3727417,19.203125,15.203125,-22.546875
1664563359281,-0.16113281,-1.1641235,0.37054443,-4.125,5.453125,10.578125
1664563359326,0.14794922,-0.98638916,0.50701904,-4.078125,-3.203125,1.125
1664563359356,-0.09814453,-0.96710205,0.31878662,3.703125,-1.3125,1.78125
1664563359401,0.048095703,-0.848938,0.30145264,-12.78125,-11.4375,6.546875
1664563359446,0.0793457,-0.84332275,0.3444214,3.796875,-10.28125,10.109375
1664563359476,-0.1459961,-0.8633423,0.33392334,5.921875,-0.59375,2.71875
1664563359520,0.05126953,-0.80133057,0.3024292,-6.3125,-0.78125,7.265625
1664563359565,2.4414062E-4,-0.7197876,0.3793335,1.5625,11.15625,2.703125
1664563359596,-0.13110352,-0.6387329,0.27313232,10.75,11.0,-0.140625
1664563359641,0.040039062,-0.74053955,0.41229248,8.921875,13.328125,-6.078125
1664563359686,-0.09472656,-0.6140747,0.44476318,15.859375,18.265625,-12.4375
1664563359715,-0.10839844,-0.62335205,0.17059326,8.75,23.578125,-8.578125
1664563359760,0.07421875,-0.84210205,0.35394287,7.484375,13.171875,-5.296875
1664563359791,0.15209961,-1.0803833,0.56658936,2.40625,-0.03125,-2.578125
1664563359835,0.020507812,-1.0613403,0.46087646,8.0,6.140625,-7.03125
1664563359881,-0.03149414,-1.0791626,0.35687256,-4.140625,-17.296875,-2.046875
1664563359911,0.044921875,-1.2622681,0.12054443,-24.859375,-12.765625,6.0625
1664563359956,-0.0043945312,-1.2427368,0.1281128,0.375,18.09375,13.375
1664563360000,-0.047851562,-1.0325317,0.53045654,20.59375,25.109375,8.4375
1664563360030,-0.21899414,-1.2666626,0.60198975,2.265625,-15.59375,-2.53125
1664563360075,0.21679688,-1.1536255,0.1593628,8.765625,8.21875,8.3125
1664563360106,-0.064453125,-0.9421997,0.35906982,2.3125,3.796875,-10.53125
1664563360150,-0.1809082,-0.8862915,0.31732178,5.5625,-2.5,-2.375
1664563360211,0.009765625,-0.77056885,0.2345581,4.328125,-4.609375,-1.296875
1664563360225,-0.06298828,-0.6904907,0.1774292,1.609375,-3.6875,-0.9375
1664563360271,-0.020019531,-0.6526489,0.15960693,5.515625,-8.859375,1.453125
1664563360331,0.042236328,-0.690979,0.20794678,1.375,-23.546875,-0.3125
1664563360344,-0.17480469,-0.77178955,0.1930542,-18.640625,-20.25,3.609375
1664563360391,-0.2680664,-0.8687134,0.3427124,-1.140625,-13.0,4.546875
1664563360420,-0.13549805,-0.972229,0.40863037,-16.109375,-2.796875,3.890625
1664563360465,-0.16357422,-0.9968872,0.5060425,-2.0625,4.578125,-1.046875
1664563360511,-0.19360352,-0.91070557,0.35125732,-6.71875,3.84375,-3.421875
1664563360540,-0.004638672,-1.326477,0.2526245,-10.140625,-4.0,-4.890625
1664563360586,0.44262695,-1.3667603,0.20941162,6.1875,-14.484375,-12.34375
1664563360631,0.18481445,-1.0960083,0.55218506,1.640625,-5.359375,-16.890625
1664563360662,-0.3605957,-0.97369385,0.41278076,10.25,-8.90625,3.578125
1664563360706,-0.14575195,-1.0437622,0.37249756,-0.421875,-11.4375,7.046875
1664563360751,0.10473633,-1.1399536,0.4286499,-7.265625,-6.84375,2.203125
1664563360780,-0.064453125,-1.024231,0.33319092,-3.796875,-1.3125,-0.546875
1664563360825,-0.118896484,-0.87677,0.36639404,-8.578125,4.515625,5.875
1664563360858,-0.11621094,-0.7605591,0.45037842,-5.75,4.53125,6.0
1664563360901,-0.0847168,-0.60357666,0.39105225,0.359375,12.328125,4.21875
1664563360946,-0.018798828,-0.58673096,0.3444214,2.546875,15.0625,-5.40625
1664563360976,-0.16845703,-0.53009033,0.3937378,1.25,16.359375,-12.140625
1664563361021,-0.18554688,-0.6548462,0.5241089,7.546875,7.65625,-15.109375
1664563361066,0.1977539,-1.0220337,0.3348999,-8.6875,1.609375,1.46875
1664563361096,0.052978516,-0.8892212,0.5578003,1.578125,6.03125,-3.296875
1664563361140,-0.11645508,-0.8591919,0.38397217,0.09375,-4.25,2.1875
1664563361170,-0.022949219,-1.2107544,0.2255249,-34.546875,-4.796875,7.625
1664563361216,0.27001953,-1.6311646,0.28826904,-7.671875,-3.78125,14.84375
1664563361260,-0.04296875,-1.006897,0.5392456,0.21875,12.296875,-0.515625
1664563361290,-0.5144043,-1.1533813,0.58636475,15.53125,6.875,-5.96875
1664563361336,0.045410156,-1.163147,0.35247803,16.40625,1.421875,12.109375
1664563361381,-0.0073242188,-0.96466064,0.41741943,19.578125,9.15625,-8.140625
1664563361410,-0.2277832,-0.8135376,0.31585693,6.28125,12.09375,-3.375
1664563361455,-0.056396484,-0.76568604,0.2658081,6.671875,4.171875,0.625
1664563361501,-0.021728516,-0.7007446,0.2526245,5.9375,3.625,0.125
1664563361531,-0.072265625,-0.6963501,0.309021,2.96875,0.296875,0.484375
1664563361575,-0.0871582,-0.6748657,0.26776123,5.546875,-7.125,0.9375
1664563361605,-0.079833984,-0.68707275,0.2662964,1.40625,-3.0,0.484375
1664563361651,-0.1586914,-0.7888794,0.2994995,0.65625,-8.765625,-2.21875
1664563361696,-0.18579102,-0.89508057,0.37420654,0.046875,-2.59375,-2.5
1664563361726,-0.21923828,-0.91363525,0.37713623,-3.640625,-2.09375,-9.0625
1664563361770,-0.056640625,-1.0769653,0.27313232,-0.625,-10.15625,-6.75
1664563361816,0.23583984,-1.4087524,0.1281128,-11.1875,-10.59375,-6.203125
1664563361846,-0.0061035156,-1.3213501,0.40423584,7.03125,4.984375,-8.03125
1664563361890,-0.03173828,-1.2471313,0.5050659,10.25,-1.546875,-0.828125
1664563361920,-0.056152344,-1.2190552,0.46795654,-2.046875,-5.46875,3.15625
1664563361966,-0.063964844,-1.159729,0.434021,-8.78125,-5.21875,-0.453125
1664563362011,-0.010498047,-0.90167236,0.36419678,-1.96875,3.953125,1.15625
1664563362040,-0.095458984,-0.69732666,0.36663818,1.5625,1.1875,1.375
1664563362086,-0.12109375,-0.63409424,0.2958374,1.265625,3.078125,3.6875
1664563362130,-0.075927734,-0.58428955,0.30218506,1.828125,8.9375,0.828125
1664563362162,-0.11621094,-0.5791626,0.39398193,13.921875,14.234375,-4.0625
1664563362206,0.014892578,-0.7901001,0.38739014,-3.578125,12.15625,-2.0
1664563362251,-0.01928711,-0.8411255,0.37493896,-0.25,8.546875,-0.21875
1664563362281,-0.07519531,-0.77838135,0.41864014,-0.703125,9.03125,-1.84375
1664563362326,-0.005126953,-0.8899536,0.4882202,-5.046875,5.390625,-0.21875
1664563362355,0.017333984,-1.0828247,0.48187256,-10.59375,0.1875,2.375
1664563362400,0.05810547,-1.4614868,0.12005615,-28.21875,-5.71875,9.65625
1664563362446,0.1809082,-1.2808228,0.19451904,-8.515625,5.09375,14.140625
1664563362475,-0.0625,-0.9956665,0.49993896,1.421875,13.3125,-3.796875
1664563362520,-0.26708984,-1.1865845,0.6593628,1.953125,1.8125,0.296875
1664563362566,0.03466797,-1.1643677,0.3817749,7.359375,-4.5625,8.46875
1664563362597,-0.091308594,-0.90802,0.29193115,-1.875,10.078125,-6.875
1664563362640,-0.17016602,-0.72442627,0.34295654,7.390625,3.640625,-3.671875
1664563362670,-0.005126953,-0.6585083,0.29486084,0.71875,2.765625,1.546875
1664563362715,0.005126953,-0.76397705,0.34124756,0.453125,-1.609375,0.328125
1664563362760,-0.0925293,-0.72320557,0.31365967,-6.5,-14.375,3.5
1664563362790,-0.40478516,-0.7346802,0.42596436,1.03125,-8.71875,1.5625
1664563362836,-0.14208984,-0.76519775,0.3805542,-12.96875,4.890625,5.65625
1664563362881,-0.13671875,-0.8911743,0.4611206,-4.40625,12.734375,-11.734375
1664563362910,-0.24145508,-0.878479,0.4491577,3.5625,10.625,-5.0
1664563362955,-0.040527344,-0.9126587,0.2958374,1.546875,7.671875,-7.3125
1664563363016,0.33544922,-1.2698364,0.1864624,-1.953125,-9.390625,-5.671875
1664563363030,0.28735352,-1.3403931,0.45306396,7.75,-4.65625,-13.453125
1664563363076,-0.12573242,-1.1548462,0.62249756,11.75,1.859375,-2.25
1664563363106,-0.10131836,-1.1536255,0.45355225,3.484375,-5.4375,7.671875
1664563363150,0.09790039,-1.0772095,0.572937,-3.40625,-8.53125,4.125
1664563363196,0.016357422,-0.9378052,0.387146,4.921875,-4.046875,4.46875
1664563363225,-0.030029297,-0.7366333,0.3053589,12.09375,-5.421875,6.546875
1664563363271,0.025146484,-0.6975708,0.32855225,1.078125,-9.375,7.703125
1664563363315,-0.017333984,-0.7654419,0.36151123,7.15625,-5.296875,3.171875
1664563363346,-0.08129883,-0.7124634,0.39715576,5.15625,-3.890625,0.875
1664563363392,-0.13330078,-0.70928955,0.4647827,8.078125,5.703125,-5.40625
1664563363421,0.0036621094,-0.76519775,0.42108154,7.21875,1.15625,-0.671875
1664563363466,0.083740234,-0.83917236,0.31121826,-0.0625,8.296875,-3.578125
1664563363511,0.028808594,-0.861145,0.44940186,6.40625,-6.234375,-2.390625
1664563363541,-0.017578125,-0.8904419,0.39813232,4.109375,-9.78125,-0.59375
1664563363586,-0.037597656,-1.0767212,0.24432373,-7.328125,-15.828125,1.578125
1664563363631,-0.009033203,-1.4085083,0.16986084,-28.390625,-13.71875,9.46875
1664563363661,0.15429688,-1.1362915,0.2802124,-1.328125,5.03125,10.09375
1664563363706,-0.12109375,-0.99786377,0.51312256,6.984375,10.921875,1.140625
1664563363750,-0.21972656,-1.2642212,0.5824585,1.765625,-5.5,3.65625
1664563363781,0.03857422,-1.1240845,0.3300171,5.53125,0.015625,3.15625
1664563363825,-0.1418457,-0.9031372,0.3624878,2.0625,10.6875,-4.640625
1664563363901,-0.09423828,-0.8501587,0.31341553,2.71875,0.609375,-1.484375
1664563363904,-0.0017089844,-0.7346802,0.32562256,3.734375,1.703125,0.90625
1664563363945,-0.08862305,-0.69976807,0.25335693,2.578125,2.59375,2.453125
1664563363976,-0.061767578,-0.70318604,0.24578857,-5.0,-10.703125,1.109375
1664563364021,-0.16430664,-0.81817627,0.33587646,-10.640625,-15.171875,0.90625
1664563364066,-0.110839844,-0.71295166,0.33319092,-3.546875,-0.46875,5.4375
1664563364095,-0.095703125,-0.7461548,0.26922607,-8.421875,-2.71875,-0.390625
1664563364141,-0.33544922,-0.9277954,0.48162842,-5.25,-0.109375,-2.59375
1664563364170,-0.22460938,-0.88848877,0.40911865,-5.8125,6.125,-1.0
1664563364216,-0.17260742,-0.9402466,0.3973999,-4.453125,11.1875,-9.25
1664563364261,0.12133789,-1.4922485,0.1876831,-7.3125,2.015625,-4.796875
1664563364292,0.46069336,-1.2334595,0.45013428,6.265625,1.75,-8.125
1664563364336,0.13085938,-1.081604,0.47088623,17.546875,10.03125,-8.390625
1664563364381,-0.13012695,-1.1089478,0.47161865,-1.828125,-9.625,5.09375
1664563364411,-0.0087890625,-1.1511841,0.45599365,1.640625,-3.921875,4.734375
1664563364456,0.030273438,-0.9573364,0.4586792,2.625,3.84375,3.421875
1664563364501,0.040527344,-0.75201416,0.3583374,1.171875,-1.6875,6.78125
1664563364530,-0.055908203,-0.7649536,0.43963623,3.5,-3.5,3.734375
1664563364576,-0.12597656,-0.79156494,0.40081787,10.46875,0.296875,2.953125
1664563364605,-0.060302734,-0.803772,0.38934326,5.34375,4.75,-0.75
1664563364651,-0.076171875,-0.7522583,0.4142456,4.609375,10.203125,-5.90625
1664563364696,-0.09716797,-0.69854736,0.40057373,9.75,9.53125,-7.0
1664563364725,0.040039062,-0.76934814,0.3756714,-1.015625,8.375,-4.671875
1664563364771,0.061035156,-0.8452759,0.38446045,-1.578125,4.828125,-4.296875
1664563364816,-0.034423828,-0.8735962,0.4779663,-1.875,2.65625,-5.46875
1664563364846,-0.063964844,-0.79815674,0.463562,4.046875,5.859375,-3.421875
1664563364891,-0.068115234,-0.8574829,0.38446045,4.765625,1.671875,-5.265625
1664563364920,-0.051757812,-1.1550903,0.24700928,-16.296875,-4.703125,0.796875
1664563364965,0.14575195,-1.2097778,0.085632324,-9.609375,3.828125,4.9375
1664563365011,0.32543945,-1.3169556,0.27557373,0.546875,2.0,8.75
1664563365040,-0.13183594,-0.9800415,0.5824585,8.03125,9.59375,1.34375
1664563365086,-0.32055664,-1.0808716,0.65374756,-3.953125,-2.359375,1.578125
1664563365131,0.118896484,-1.1272583,0.30291748,4.25,-4.6875,11.296875
1664563365161,0.015625,-0.88067627,0.41033936,11.859375,7.546875,-10.25
1664563365206,-0.20019531,-0.85479736,0.36151123,10.96875,-6.34375,1.984375
1664563365266,-0.020507812,-0.82891846,0.27020264,16.078125,-11.34375,5.09375
1664563365280,-0.05517578,-0.78253174,0.2506714,4.140625,-4.484375,-1.421875
1664563365325,-0.06689453,-0.7359009,0.307312,6.953125,-9.828125,-0.625
1664563365356,-0.09667969,-0.7979126,0.24188232,4.109375,-8.0625,0.734375
1664563365400,-0.1730957,-0.8460083,0.27947998,-5.3125,-2.171875,-0.671875
1664563365446,-0.09692383,-0.8635864,0.35662842,-4.671875,2.0,0.375
1664563365476,-0.09472656,-0.9011841,0.33172607,-7.625,6.671875,0.171875
1664563365522,-0.1940918,-0.86260986,0.45013428,-3.90625,-1.484375,-1.53125
1664563365596,-0.07495117,-0.94195557,0.26605225,0.96875,-6.328125,-1.953125
1664563365599,0.25805664,-1.2979126,-0.05206299,-3.390625,-25.140625,-3.046875
1664563365642,0.14624023,-1.3291626,0.43597412,1.53125,-7.0625,-9.9375
1664563365670,-0.041259766,-1.2693481,0.5770874,16.484375,5.53125,2.515625
1664563365716,-0.088134766,-1.0054321,0.33148193,-2.796875,-7.4375,8.828125
1664563365761,0.011962891,-1.0515747,0.39007568,-2.046875,-12.796875,4.484375
1664563365791,0.018066406,-0.96710205,0.41912842,6.46875,-9.046875,5.53125
1664563365836,-0.045898438,-0.85894775,0.2682495,-0.140625,1.109375,5.890625
1664563365881,-0.13183594,-0.7334595,0.31756592,4.78125,-2.40625,4.6875
1664563365911,-0.10083008,-0.77056885,0.28240967,4.484375,-1.4375,2.328125
1664563365955,-0.07836914,-0.74176025,0.33441162,5.03125,11.078125,-0.859375
1664563365988,-0.13549805,-0.690979,0.3241577,5.25,11.296875,-6.359375
1664563366031,-0.1105957,-0.73394775,0.3241577,5.5,15.59375,-8.53125
1664563366076,0.15625,-0.91900635,0.31048584,-2.875,7.265625,-5.09375
1664563366106,0.033203125,-0.97662354,0.38861084,-3.1875,3.15625,-3.375
1664563366151,-0.072509766,-0.89849854,0.43133545,0.84375,4.34375,-4.109375
1664563366196,-0.07324219,-0.9663696,0.38616943,-4.671875,5.3125,-3.203125
1664563366225,-0.07080078,-1.2581177,0.3283081,-22.453125,-3.9375,-1.09375
1664563366271,0.21191406,-1.7266235,0.3600464,-22.390625,-9.90625,15.78125
1664563366316,0.072509766,-0.97906494,0.37176514,-20.5625,13.6875,2.1875
1664563366346,-0.45117188,-0.90582275,0.49798584,2.875,14.546875,-7.421875
1664563366391,-0.052978516,-1.2022095,0.31610107,7.0625,3.859375,7.421875
1664563366421,0.19213867,-1.0098267,0.31097412,-1.984375,6.90625,-1.125
1664563366467,-0.08935547,-0.8596802,0.3078003,3.03125,9.0,-3.671875
1664563366511,-0.071777344,-0.7739868,0.30950928,5.125,-3.65625,-1.171875
1664563366540,-0.032226562,-0.77056885,0.27459717,0.84375,-2.265625,0.09375
1664563366586,-0.080078125,-0.71881104,0.26263428,5.296875,-3.1875,1.640625
1664563366631,-0.0859375,-0.74713135,0.3036499,0.40625,-6.78125,0.578125
1664563366661,-0.053222656,-0.71417236,0.2741089,-4.46875,-8.65625,3.625
1664563366706,-0.16333008,-0.8128052,0.402771,-2.109375,-2.875,3.390625
1664563366737,-0.0625,-0.9126587,0.29534912,-6.703125,-0.890625,4.546875
1664563366781,-0.15332031,-0.87335205,0.46063232,-8.359375,-0.546875,0.0625
1664563366826,-0.1652832,-0.85601807,0.4401245,1.734375,3.46875,0.328125
1664563366855,-0.2565918,-0.93048096,0.45428467,-0.3125,5.265625,-7.484375
1664563366901,-0.19555664,-1.2561646,0.42913818,-0.34375,5.421875,-11.03125
1664563366945,0.20678711,-1.2424927,0.17889404,-3.90625,2.078125,-12.953125
1664563366976,0.35131836,-1.2752075,0.5375366,13.4375,7.03125,-15.671875
1664563367021,0.049072266,-0.9116821,0.41815186,4.875,0.1875,-4.34375
1664563367066,-0.22680664,-1.050354,0.45233154,2.40625,-3.921875,2.46875
1664563367095,-0.037597656,-1.092102,0.4550171,-6.84375,-9.953125,2.984375
1664563367140,0.05029297,-0.940979,0.35272217,8.546875,1.640625,2.140625
1664563367170,-0.13305664,-0.7827759,0.3703003,4.671875,1.828125,3.40625
1664563367216,-0.09472656,-0.7012329,0.37493896,7.296875,-2.703125,5.90625
1664563367261,-0.07299805,-0.76031494,0.33880615,-3.921875,4.15625,-3.0
1664563367290,-0.14233398,-0.69854736,0.44989014,7.765625,12.234375,-5.921875
1664563367336,-0.15991211,-0.6121216,0.3685913,25.5625,14.25,-8.015625
1664563367381,0.020996094,-0.84698486,0.31463623,-2.109375,8.703125,-8.453125
1664563367410,0.08544922,-0.9175415,0.39422607,6.734375,4.359375,-3.703125
1664563367456,0.08544922,-0.90631104,0.40545654,5.234375,-2.984375,-0.4375
1664563367485,0.04296875,-1.180481,0.24749756,-4.5625,-15.0625,1.234375
1664563367531,-0.052246094,-1.4341431,0.14715576,-22.734375,-8.578125,7.203125
1664563367576,0.017822266,-1.1790161,0.21502686,-8.875,7.078125,11.484375
1664563367605,-0.24926758,-0.9326782,0.5614624,8.71875,18.140625,5.59375
1664563367651,-0.11425781,-1.0723267,0.49676514,-1.578125,-1.1875,3.75
1664563367696,0.095947266,-1.0564575,0.23602295,11.1875,3.109375,8.328125
1664563367726,-0.083496094,-0.7803345,0.31243896,5.96875,6.90625,-2.09375
1664563367770,-0.2084961,-0.8411255,0.27557373,-7.0,-1.640625,-0.46875
1664563367816,-0.0390625,-0.72247314,0.21795654,3.171875,3.546875,0.015625
1664563367846,-0.075683594,-0.7234497,0.23699951,3.5,2.234375,-1.671875
1664563367891,-0.13916016,-0.6687622,0.2255249,6.75,1.75,1.640625
1664563367920,-0.13134766,-0.7815552,0.30340576,-5.5,5.1875,-1.640625
1664563367965,-0.080078125,-0.8887329,0.32806396,-1.0,0.859375,-1.0
1664563368010,-0.15820312,-0.97540283,0.40374756,-4.234375,3.21875,-3.53125
1664563368042,-0.18579102,-0.9602661,0.385437,-3.734375,2.8125,-4.015625
1664563368085,0.10058594,-1.3276978,0.20135498,-5.25,-3.8125,-3.765625
1664563368131,0.2836914,-1.2249146,0.2518921,-5.546875,-7.140625,-4.53125
1664563368160,-0.010009766,-1.1133423,0.50115967,7.84375,14.375,-3.1875
1664563368207,-0.06958008,-1.0996704,0.45111084,-3.640625,-8.015625,9.203125
1664563368235,0.09838867,-1.1690063,0.4335327,-3.953125,-10.9375,8.109375
1664563368280,0.0126953125,-1.0210571,0.43426514,-0.578125,-7.046875,3.328125
1664563368325,-0.049072266,-0.8755493,0.30633545,3.46875,-6.46875,7.21875
1664563368356,-0.036376953,-0.7402954,0.3468628,1.328125,-7.234375,5.578125
1664563368401,-0.10986328,-0.78375244,0.4179077,-0.6875,1.171875,-1.46875
1664563368446,-0.18286133,-0.6782837,0.432312,5.5625,15.515625,-4.65625
1664563368476,-0.061523438,-0.7005005,0.3673706,3.125,13.0,-8.53125
1664563368521,0.048339844,-0.861145,0.39691162,3.125,11.953125,-7.546875
1664563368566,0.07128906,-0.866272,0.34417725,-1.796875,7.953125,-4.0
1664563368596,0.068359375,-0.86016846,0.43548584,-2.59375,2.859375,-1.734375
1664563368640,0.048828125,-0.9092407,0.3949585,-0.515625,-5.53125,-0.171875
1664563368672,0.046142578,-1.2234497,0.26239014,-19.6875,-16.96875,3.359375
1664563368716,0.068359375,-1.5359497,0.21868896,-23.765625,-11.84375,16.109375
1664563368761,0.063964844,-1.0149536,0.29852295,-4.640625,9.859375,6.84375
1664563368791,-0.17260742,-0.8621216,0.58343506,5.359375,10.484375,-3.15625
1664563368837,-0.11645508,-1.154602,0.5014038,0.8125,-9.953125,6.125
1664563368881,0.02319336,-1.1133423,0.29779053,2.3125,-0.40625,3.53125
1664563368911,-0.10668945,-0.81451416,0.33538818,4.1875,11.28125,-7.828125
1664563368956,-0.09082031,-0.78082275,0.3324585,3.609375,-0.859375,-1.25
1664563368985,-0.013916016,-0.7595825,0.28948975,4.140625,3.578125,-1.4375
1664563369031,-0.06665039,-0.75323486,0.30267334,10.21875,-2.609375,-1.296875
1664563369076,-0.06762695,-0.6777954,0.32122803,13.03125,-6.5,0.015625
1664563369106,-0.06347656,-0.76348877,0.26922607,6.03125,-1.828125,0.953125
1664563369150,-0.16894531,-0.8609009,0.2802124,3.09375,-1.828125,-0.953125
1664563369196,-0.22583008,-0.95318604,0.4430542,-7.453125,-1.640625,-1.421875
1664563369225,-0.17675781,-0.9663696,0.43865967,1.3125,6.25,-3.546875
1664563369273,-0.2109375,-0.9558716,0.44891357,0.328125,11.90625,-5.8125
1664563369301,0.0024414062,-1.0982056,0.16815186,-8.03125,2.6875,-6.453125
1664563369346,0.31103516,-1.3765259,0.22406006,-13.875,-10.140625,-4.8125
1664563369391,0.19140625,-1.1531372,0.401062,16.453125,10.078125,-6.0625
1664563369421,0.00390625,-1.1265259,0.37005615,-0.8125,-4.078125,7.0625
1664563369466,-0.08129883,-1.08844,0.48846436,7.640625,-8.109375,5.140625
1664563369512,-0.10083008,-1.0488892,0.39959717,4.71875,0.984375,1.21875
1664563369540,0.092285156,-0.9463501,0.33026123,0.0,-2.78125,1.484375
1664563369586,0.0087890625,-0.7893677,0.38519287,2.59375,2.890625,1.828125
1664563369631,-0.048828125,-0.7034302,0.2633667,3.75,-4.9375,4.09375
1664563369661,-0.042236328,-0.69659424,0.36419678,0.0625,-1.671875,0.140625
1664563369705,-0.12084961,-0.7271118,0.37957764,6.078125,4.5,-5.09375
1664563369736,-0.09033203,-0.75494385,0.3768921,6.734375,2.578125,-6.59375
1664563369781,0.012939453,-0.7449341,0.31903076,-1.78125,13.375,-2.96875
1664563369826,0.06274414,-0.9053345,0.3078003,-6.859375,-4.15625,0.78125
1664563369856,0.016601562,-0.95269775,0.6010132,-1.3125,-4.25,0.125
1664563369901,-0.10595703,-0.9194946,0.4545288,0.421875,-1.21875,-3.65625
1664563369946,-0.009521484,-1.0264282,0.37469482,-6.421875,-9.796875,3.859375
1664563369978,0.1303711,-1.4021606,0.31878662,-14.609375,-7.75,9.71875
1664563370021,0.23852539,-1.1746216,0.17938232,9.25,-2.96875,13.1875
1664563370051,-0.36108398,-0.8723755,0.48675537,12.734375,11.25,-4.9375
1664563370096,-0.3388672,-1.1809692,0.41571045,-3.28125,-12.78125,3.6875
1664563370141,0.08886719,-1.1489868,0.2098999,-1.578125,14.96875,7.53125
1664563370171,-0.053466797,-0.87628174,0.35028076,0.390625,15.453125,-6.390625
1664563370216,-0.0859375,-0.80303955,0.32855225,-0.296875,3.828125,-0.71875
1664563370261,0.013916016,-0.7866821,0.19525146,-0.1875,3.03125,-1.09375
1664563370290,-0.0024414062,-0.736145,0.33587646,2.390625,-1.078125,-2.625
1664563370336,-0.15039062,-0.7070923,0.31097412,6.5625,-6.71875,-2.6875
1664563370413,-0.1616211,-0.7678833,0.23968506,-5.875,-6.546875,1.625
1664563370416,-0.10205078,-0.861145,0.39471436,-5.84375,-1.484375,2.46875
1664563370456,-0.10522461,-0.8838501,0.31878662,-5.296875,2.296875,-1.171875
1664563370486,-0.122802734,-0.92510986,0.48773193,-0.140625,2.703125,-1.34375
1664563370531,-0.17602539,-0.9133911,0.3944702,1.328125,4.703125,-4.546875
1664563370576,-0.045166016,-1.0464478,0.21453857,-6.625,-1.828125,-5.1875
1664563370605,0.36865234,-1.3233032,0.19866943,-9.109375,-15.359375,-2.3125
1664563370651,0.15234375,-1.0906372,0.42791748,17.59375,12.65625,-10.234375
1664563370696,-0.19042969,-1.0708618,0.44281006,13.984375,-2.984375,0.375
1664563370726,0.0021972656,-1.1629028,0.50286865,2.15625,-19.78125,4.734375
1664563370771,-0.02319336,-1.1216431,0.4220581,9.109375,-6.78125,0.984375
1664563370800,-0.060546875,-0.8831177,0.2970581,2.140625,3.84375,1.75
1664563370846,-0.05102539,-0.76812744,0.32073975,-1.734375,0.15625,1.890625
1664563370891,-0.040039062,-0.79229736,0.32073975,5.28125,0.21875,0.984375
1664563370921,-0.15234375,-0.6980591,0.36151123,10.703125,9.75,-1.171875
1664563370966,-0.1784668,-0.6338501,0.3703003,13.21875,10.390625,-6.390625
1664563371011,0.021972656,-0.8423462,0.31292725,0.078125,8.375,-6.703125
1664563371041,-0.027832031,-0.9182739,0.4335327,-6.5625,11.921875,-6.875
1664563371086,-0.061035156,-0.90802,0.46746826,-0.140625,4.421875,-3.65625
1664563371131,0.007080078,-0.927063,0.38519287,-4.796875,4.453125,-2.828125
1664563371161,-0.014160156,-1.0344849,0.09954834,-20.109375,1.109375,2.828125
1664563371206,0.10498047,-1.206604,0.04095459,-24.484375,-0.40625,14.5625
1664563371235,0.26220703,-1.2046509,0.28948975,-1.328125,1.90625,15.890625
1664563371280,-0.29101562,-1.0056763,0.62786865,12.890625,16.578125,-4.0
1664563371325,-0.21289062,-1.279602,0.42303467,-5.203125,-8.265625,2.484375
1664563371357,0.061035156,-1.1016235,0.369812,7.359375,6.0,2.765625
1664563371401,-0.13989258,-0.9192505,0.31072998,-1.40625,14.125,-10.265625
1664563371446,-0.08081055,-0.76690674,0.30194092,3.484375,2.234375,-1.15625
1664563371476,0.05126953,-0.65631104,0.23944092,5.578125,-0.796875,-3.125
1664563371521,-0.03857422,-0.62750244,0.2267456,1.40625,-3.34375,-1.328125
1664563371551,-0.13867188,-0.663147,0.24603271,-4.0625,-13.765625,0.15625
1664563371596,-0.1821289,-0.7984009,0.37469482,-7.65625,-7.890625,-0.90625
1664563371641,-0.20507812,-0.89678955,0.39471436,-4.234375,0.25,-1.390625
1664563371671,-0.1394043,-0.97613525,0.4220581,-6.984375,7.265625,-1.296875
1664563371716,-0.15356445,-0.86383057,0.38787842,-7.203125,6.578125,-2.265625
1664563371761,0.010498047,-1.2080688,0.2567749,-2.703125,3.78125,-1.953125
1664563371791,0.33813477,-1.3574829,0.3102417,-10.640625,-10.34375,-2.40625
1664563371836,0.020751953,-1.1155396,0.59295654,20.96875,10.328125,-7.3125
1664563371881,-0.19873047,-1.0493774,0.46380615,0.515625,-1.5625,5.0
1664563371911,0.060058594,-1.1333618,0.5309448,-2.390625,-18.671875,9.40625
1664563371956,4.8828125E-4,-1.0476685,0.45550537,-1.96875,-3.9375,-0.0625
1664563371986,-0.03857422,-0.7937622,0.32781982,7.515625,-2.453125,2.15625
1664563372031,-0.041748047,-0.7017212,0.39788818,-0.453125,-8.921875,4.03125
1664563372075,-0.07885742,-0.72784424,0.33343506,1.984375,0.421875,2.375
1664563372106,-0.09838867,-0.65802,0.2897339,5.484375,11.96875,1.28125
1664563372150,-0.15136719,-0.659729,0.4484253,2.578125,13.171875,-5.921875
1664563372195,-0.0107421875,-0.7546997,0.41033936,7.0,15.609375,-3.859375
1664563372227,0.10498047,-0.79644775,0.34881592,-8.375,8.34375,-0.75
1664563372271,0.06274414,-0.9234009,0.49066162,1.21875,-0.96875,-1.09375
1664563372301,0.016357422,-0.89923096,0.5219116,7.625,-4.15625,-0.34375
1664563372346,-0.017578125,-1.0618286,0.36663818,-10.171875,-11.953125,3.328125
1664563372391,0.12841797,-1.3010864,0.28582764,-19.953125,-11.46875,11.171875
1664563372425,0.20898438,-1.2839966,0.26654053,0.53125,-9.578125,11.703125
1664563372466,-0.16625977,-0.913147,0.52874756,14.34375,11.21875,-3.1875
1664563372511,-0.38891602,-1.2175903,0.52215576,-7.609375,-6.03125,-2.015625
1664563372541,0.115722656,-1.128479,0.2850952,5.859375,0.921875,6.84375
1664563372586,-0.04321289,-0.8135376,0.34002686,7.328125,12.40625,-14.140625
1664563372631,-0.13330078,-0.7505493,0.3143921,2.765625,-3.375,0.265625
1664563372663,0.004638672,-0.7581177,0.3078003,3.296875,-0.46875,1.109375
1664563372706,-0.02368164,-0.71343994,0.31097412,2.5,-5.40625,0.0
1664563372781,-0.09301758,-0.6223755,0.24969482,2.4375,-11.78125,6.078125
1664563372785,-0.107666016,-0.73028564,0.3258667,3.125,-14.328125,3.34375
1664563372826,-0.20629883,-0.862854,0.37738037,7.09375,-5.515625,-1.1875
1664563372856,-0.30688477,-0.95269775,0.42718506,2.921875,1.484375,-0.90625
1664563372901,-0.20898438,-0.90582275,0.41497803,-6.703125,8.515625,-0.171875
1664563372945,-0.0146484375,-0.9788208,0.28875732,-4.25,6.4375,-3.21875
1664563372976,0.2800293,-1.3589478,0.22528076,1.46875,-6.125,0.328125
1664563373021,0.39892578,-1.5056763,0.49920654,-1.390625,-3.53125,-6.765625
1664563373051,0.02758789,-1.0252075,0.57025146,16.40625,3.359375,-5.9375
1664563373096,-0.19360352,-1.1970825,0.33050537,13.96875,-11.59375,11.546875
1664563373141,0.09667969,-1.0344849,0.508728,-1.3125,-8.96875,2.75
1664563373171,-0.053710938,-0.9126587,0.3065796,2.78125,1.234375,0.40625
1664563373216,-0.115722656,-0.7451782,0.29388428,6.359375,5.421875,2.34375
1664563373261,-0.019042969,-0.7373657,0.33026123,-1.75,-0.1875,1.40625
1664563373290,-0.080078125,-0.7842407,0.3390503,6.859375,8.25,-2.515625
1664563373336,-0.12939453,-0.73565674,0.36688232,6.046875,10.609375,-4.84375
1664563373381,-0.078125,-0.7720337,0.44891357,2.625,13.953125,-9.984375
1664563373411,-0.06298828,-0.77423096,0.3234253,-0.78125,19.28125,-7.5625
1664563373456,0.029785156,-0.7605591,0.28875732,-3.34375,12.0,-5.390625
1664563373486,0.053466797,-0.87384033,0.42718506,-4.015625,-1.328125,-2.3125
1664563373531,0.0068359375,-0.909729,0.43206787,-0.96875,-1.609375,-3.765625
1664563373576,-0.014160156,-0.94317627,0.34906006,-5.421875,-10.265625,0.25
1664563373606,-0.060791016,-1.0740356,0.17474365,-24.296875,-9.546875,5.515625
1664563373651,0.016357422,-1.3560181,0.18206787,-10.734375,1.46875,9.8125
1664563373696,0.08520508,-1.2149048,0.2838745,-5.90625,5.75,6.09375
1664563373726,-0.24243164,-1.0974731,0.67108154,2.703125,9.453125,-0.640625
1664563373771,-0.072509766,-1.190979,0.4081421,4.390625,-2.59375,3.9375
1664563373801,0.1003418,-0.9295044,0.2567749,3.828125,8.34375,-1.453125
1664563373846,-0.09863281,-0.81451416,0.3336792,-2.46875,2.53125,-3.875
1664563373891,-0.123291016,-0.76812744,0.25872803,9.59375,-1.796875,3.796875
1664563373920,0.016113281,-0.74835205,0.2506714,-8.90625,-0.453125,0.203125
1664563373966,-0.056884766,-0.7334595,0.2970581,1.59375,0.015625,1.6875
1664563374011,-0.032958984,-0.6358032,0.2970581,5.28125,-12.765625,2.890625
1664563374041,-0.08911133,-0.7666626,0.36810303,1.703125,-14.40625,3.40625
1664563374086,-0.18701172,-0.8687134,0.40325928,4.75,-6.53125,2.828125
1664563374116,-0.31323242,-0.9710083,0.43841553,-6.0,-4.703125,-2.46875
1664563374161,-0.3684082,-0.98638916,0.5404663,-10.171875,3.546875,-2.828125
1664563374208,-0.23486328,-0.9636841,0.34197998,-9.703125,12.75,-10.1875
1664563374235,0.05419922,-1.3357544,0.22332764,-21.734375,11.15625,-10.65625
1664563374281,0.39208984,-1.3711548,0.40789795,-0.109375,8.25,-14.09375
1664563374326,0.1628418,-1.0232544,0.4772339,18.453125,13.4375,-10.375
1664563374356,-0.11328125,-0.9678345,0.49993896,-9.28125,0.96875,2.640625
1664563374401,0.03466797,-1.0601196,0.44769287,0.03125,-15.140625,8.109375
1664563374446,-0.025878906,-1.0217896,0.44940186,-4.875,-1.609375,2.703125
1664563374478,-0.05126953,-0.7593384,0.4069214,-0.140625,-2.65625,5.859375
1664563374521,-0.14038086,-0.6663208,0.4232788,2.4375,-5.875,4.40625
1664563374550,-0.14038086,-0.7024536,0.36541748,9.390625,5.578125,1.484375
1664563374596,-0.02758789,-0.6851196,0.29534912,7.890625,3.859375,-0.703125
1664563374641,-0.12451172,-0.58721924,0.49041748,14.59375,13.671875,-6.15625
1664563374670,-0.15258789,-0.6956177,0.37371826,15.78125,14.734375,-10.59375
1664563374716,0.046875,-0.831604,0.45892334,-1.828125,16.21875,-7.921875
1664563374761,0.12548828,-0.95269775,0.46795654,3.890625,7.296875,-2.765625
1664563374791,0.083740234,-0.86065674,0.3312378,5.296875,2.203125,-0.8125
1664563374838,-0.028564453,-1.1846313,0.2687378,-25.4375,-12.171875,1.515625
1664563374866,0.100097656,-1.5813599,0.3114624,-2.015625,-9.90625,13.671875
1664563374911,0.044921875,-1.0237427,0.50213623,1.125,13.515625,3.546875
1664563374956,-0.611084,-1.2246704,0.66033936,1.359375,6.0625,-5.0625
1664563374986,0.13891602,-1.3145142,0.26605225,3.21875,-5.75,15.828125
1664563375031,-0.051513672,-0.97784424,0.44647217,13.359375,14.234375,-10.46875
1664563375076,-0.21411133,-0.84381104,0.21917725,2.078125,4.78125,-0.234375
1664563375106,-4.8828125E-4,-0.70806885,0.19598389,2.921875,1.890625,-0.546875
1664563375151,0.001953125,-0.663147,0.21575928,4.0,2.0,-0.546875
1664563375195,-0.037353516,-0.5840454,0.20697021,8.4375,-3.296875,2.6875
1664563375226,-0.041503906,-0.5610962,0.16522217,3.65625,-12.453125,3.109375
1664563375273,-0.1574707,-0.6902466,0.30438232,-3.375,-13.625,1.6875
1664563375301,-0.23095703,-0.925354,0.41156006,-7.1875,-12.90625,0.90625
1664563375346,-0.23364258,-1.0081177,0.50775146,-4.484375,3.5,0.765625
1664563375391,-0.22338867,-0.9265747,0.402771,-3.03125,6.171875,-2.0625
1664563375421,0.018310547,-1.3499146,0.385437,-12.625,2.453125,-3.5625
1664563375466,0.2685547,-1.3831177,0.3764038,-3.484375,-3.84375,-5.03125
1664563375511,0.061279297,-1.2439575,0.5397339,9.0625,16.578125,-8.453125
1664563375540,-0.016113281,-1.1348267,0.5512085,-1.796875,-2.3125,2.828125
1664563375601,-0.055908203,-1.1104126,0.43621826,-4.234375,-1.21875,2.390625
1664563375615,-0.00390625,-1.0574341,0.4454956,-6.8125,1.859375,0.578125
1664563375661,0.08178711,-0.7996216,0.35760498,-1.09375,4.4375,2.8125
1664563375706,-0.036621094,-0.6140747,0.3373413,-0.859375,3.625,1.734375
1664563375736,-0.04272461,-0.6760864,0.32659912,0.421875,1.078125,2.328125
1664563375781,-0.017089844,-0.72003174,0.35931396,2.109375,3.296875,1.765625
1664563375826,-0.060058594,-0.5823364,0.4533081,13.984375,8.28125,-2.609375
1664563375855,-0.16015625,-0.65875244,0.4130249,8.046875,9.609375,-8.015625
1664563375901,-0.056152344,-0.78326416,0.39837646,-5.375,8.71875,-4.0625
1664563375946,0.111816406,-0.8311157,0.43328857,1.796875,2.9375,-2.90625
1664563375976,0.02758789,-0.8352661,0.47113037,-0.9375,1.9375,-3.65625
1664563376023,-0.022949219,-0.99224854,0.43060303,-11.984375,-7.921875,0.6875
1664563376050,0.17041016,-1.3609009,0.45721436,-27.015625,-23.609375,9.640625
1664563376096,0.028320312,-1.4014282,0.34783936,-10.109375,-12.640625,10.25
1664563376141,-0.110839844,-1.112854,0.43450928,-8.484375,4.84375,5.859375
1664563376171,-0.11376953,-0.99102783,0.60076904,3.375,5.09375,0.671875
1664563376216,-0.115722656,-1.1677856,0.385437,3.625,-3.515625,0.25
1664563376261,-0.013916016,-1.0171509,0.34588623,8.234375,3.671875,-1.6875
1664563376291,-0.053466797,-0.77838135,0.37982178,11.890625,7.0625,-5.28125
1664563376336,-0.059814453,-0.7124634,0.27288818,17.609375,-4.75,-0.375
1664563376366,0.014892578,-0.70318604,0.2687378,7.03125,-8.796875,2.140625
1664563376410,0.0041503906,-0.6157837,0.25335693,11.59375,-7.984375,4.796875
1664563376456,-0.111083984,-0.54034424,0.19232178,6.203125,-18.359375,3.53125
1664563376486,-0.18041992,-0.6980591,0.33172607,-7.515625,-12.25,-0.25
1664563376531,-0.22485352,-0.85601807,0.42791748,-10.796875,-1.046875,-1.640625
1664563376576,-0.29101562,-0.89630127,0.53118896,-0.765625,6.484375,0.3125
1664563376606,0.0041503906,-1.0496216,0.3397827,-19.421875,0.765625,3.109375
1664563376651,0.41748047,-1.6746216,0.46380615,4.84375,-17.625,4.328125
1664563376696,-0.12011719,-1.2991333,0.5961304,13.421875,3.46875,-14.8125
1664563376726,-0.18457031,-1.2354126,0.46722412,1.5,-6.453125,4.375
1664563376771,0.0234375,-1.0630493,0.52923584,7.53125,-13.921875,6.328125
1664563376801,4.8828125E-4,-1.0496216,0.39935303,8.171875,-11.765625,1.953125
1664563376846,-0.014892578,-0.8845825,0.36517334,7.25,-3.59375,3.3125
1664563376891,-0.09716797,-0.677063,0.27264404,12.875,-2.671875,5.25
1664563376921,-0.049560547,-0.6506958,0.2741089,0.609375,-3.625,1.765625
1664563376966,-0.044433594,-0.61798096,0.33343506,4.828125,7.765625,-0.5625
1664563377011,-0.15161133,-0.5117798,0.31610107,1.796875,10.828125,-5.21875
1664563377040,-0.048828125,-0.80059814,0.3768921,-17.859375,8.640625,-4.828125
1664563377086,0.087646484,-0.8652954,0.40789795,-1.640625,-1.6875,1.265625
1664563377115,-0.07788086,-0.85601807,0.41619873,5.28125,-7.78125,-0.171875
1664563377161,0.046875,-1.6135864,0.43426514,-27.984375,-25.859375,9.15625
1664563377206,0.24804688,-1.4502563,0.2543335,2.71875,-21.515625,11.78125
1664563377236,-0.22631836,-0.76934814,0.6901245,1.71875,22.953125,-1.484375
1664563377281,-0.39282227,-1.0269165,0.4315796,-1.625,5.984375,-4.796875
1664563377326,0.2524414,-1.2537231,0.1071167,-6.828125,5.671875,14.859375
1664563377356,-0.08227539,-0.769104,0.38128662,16.34375,15.09375,-3.84375
1664563377401,-0.14208984,-0.8496704,0.21722412,-8.515625,3.84375,-1.46875
1664563377446,0.084472656,-0.880188,0.37249756,2.28125,-0.671875,0.4375
1664563377476,0.012939453,-0.82403564,0.34344482,13.96875,-8.140625,1.359375
1664563377521,-0.14379883,-0.87042236,0.31195068,5.15625,-9.09375,3.265625
