# Sensor type: Thingy
# Activity type: Running
# Activity code: 11
# Subject id: s1912558
# Notes: 
timestamp,accel_x,accel_y,accel_z,gyro_x,gyro_y,gyro_z,mag_x,mag_y,mag_z
1664566129595,-0.9277344,0.0078125,-0.2734375,-3.96875,5.28125,5.28125,0.0,0.0,0.0
1664566129636,-0.93359375,0.0029296875,-0.26464844,-0.125,3.03125,7.5625,0.0,0.0,0.0
1664566129675,-0.9042969,-0.033203125,-0.27539062,-2.46875,-2.40625,6.5,0.0,0.0,0.0
1664566129715,-0.90527344,-0.018554688,-0.22363281,3.15625,-2.40625,8.03125,0.0,0.0,0.0
1664566129754,-0.9199219,-0.04296875,-0.19824219,0.0,4.375,7.6875,0.0,0.0,0.0
1664566129797,-0.921875,-0.047851562,-0.20019531,-3.25,11.9375,6.875,0.0,0.0,0.0
1664566129835,-0.9277344,-0.02734375,-0.20117188,-4.78125,23.125,8.34375,0.0,0.0,0.0
1664566129874,-0.90527344,-0.0234375,-0.21679688,-8.625,25.625,8.90625,0.0,0.0,0.0
1664566129914,-0.875,-0.07128906,-0.23242188,-6.4375,23.90625,7.25,0.0,0.0,0.0
1664566129954,-0.85546875,-0.032226562,-0.28027344,4.875,29.40625,9.625,0.0,0.0,0.0
1664566129994,-0.81347656,0.052734375,-0.35351562,13.28125,35.1875,11.53125,-57.625,-9.6875,-155.3125
1664566130034,-0.67285156,0.17382812,-0.27148438,3.34375,20.90625,1.5,0.0,0.0,0.0
1664566130074,-0.82910156,0.16992188,-0.09277344,-6.375,-13.875,-20.71875,0.0,0.0,0.0
1664566130114,-1.3388672,-0.11425781,-0.16601562,-23.15625,-14.71875,-10.5,0.0,0.0,0.0
1664566130154,-1.1142578,-0.11328125,-0.20996094,-7.03125,7.3125,28.0625,0.0,0.0,0.0
1664566130214,-0.94628906,0.041992188,-0.16113281,-6.3125,26.0,23.3125,0.0,0.0,0.0
1664566130234,-0.9316406,0.11230469,-0.24609375,-40.0625,-3.6875,23.0625,0.0,0.0,0.0
1664566130275,-1.0126953,-0.026367188,-0.22265625,-16.1875,11.34375,57.78125,0.0,0.0,0.0
1664566130315,-0.9277344,-0.053710938,-0.20605469,48.8125,43.9375,91.28125,0.0,0.0,0.0
1664566130355,-0.9453125,0.20410156,-0.18457031,19.03125,58.875,86.15625,0.0,0.0,0.0
1664566130395,-1.3066406,0.33496094,-0.2998047,-17.59375,24.875,30.4375,0.0,0.0,0.0
1664566130435,-0.89453125,0.21191406,0.056640625,-40.71875,-2.53125,-55.375,0.0,0.0,0.0
1664566130474,-0.3671875,0.046875,-0.2841797,-13.0625,25.25,-86.625,0.0,0.0,0.0
1664566130515,-0.10644531,-0.016601562,-0.53027344,2.71875,102.40625,-31.6875,-54.75,-4.4375,-165.625
1664566130555,-1.0449219,-0.06933594,-1.2744141,-9.46875,36.96875,37.75,0.0,0.0,0.0
1664566130595,-1.2167969,0.50683594,-0.06933594,59.5,-17.71875,34.21875,0.0,0.0,0.0
1664566130635,-1.75,-0.32128906,-0.6484375,21.59375,113.625,-142.34375,0.0,0.0,0.0
1664566130675,-1.8125,-0.8232422,-0.11328125,-72.90625,-15.46875,-84.1875,0.0,0.0,0.0
1664566130715,-1.0595703,0.119140625,-0.49902344,36.0,17.1875,21.53125,0.0,0.0,0.0
1664566130755,-0.296875,0.025390625,-0.029296875,30.4375,-54.34375,42.78125,0.0,0.0,0.0
1664566130795,-0.1953125,0.23242188,-0.546875,68.78125,1.625,44.78125,0.0,0.0,0.0
1664566130834,0.0126953125,0.1953125,-0.22753906,42.34375,-58.5,-0.875,0.0,0.0,0.0
1664566130874,0.23730469,0.23535156,-0.7089844,53.6875,17.875,-41.875,0.0,0.0,0.0
1664566130915,-1.09375,0.3857422,-0.953125,60.90625,-90.71875,14.875,0.0,0.0,0.0
1664566130975,-1.9414062,0.22167969,-1.0527344,-29.4375,-12.40625,55.15625,0.0,0.0,0.0
1664566130994,-1.8535156,-0.21289062,-0.6699219,-118.84375,-62.21875,-3.6875,-59.375,-9.4375,-163.875
1664566131034,-1.5800781,-0.021484375,0.009765625,-98.84375,-66.78125,67.625,0.0,0.0,0.0
1664566131074,-0.73828125,-0.34375,-0.13964844,-82.84375,3.40625,22.125,0.0,0.0,0.0
1664566131115,0.50390625,0.076171875,0.115234375,-58.4375,36.0625,-42.8125,0.0,0.0,0.0
1664566131155,0.099609375,-0.07421875,0.040039062,-66.0625,-88.9375,-156.5,0.0,0.0,0.0
1664566131195,0.15429688,-0.24121094,0.0126953125,13.84375,-108.28125,-86.875,0.0,0.0,0.0
1664566131235,0.08203125,-0.16113281,-0.40527344,115.46875,39.96875,23.90625,0.0,0.0,0.0
1664566131275,-1.9414062,0.21289062,-1.1083984,168.875,137.8125,151.59375,0.0,0.0,0.0
1664566131315,-1.8769531,0.09765625,-0.98046875,-12.03125,-43.40625,-50.1875,0.0,0.0,0.0
1664566131355,-1.9414062,-0.56640625,-0.23046875,103.0,101.96875,-87.125,0.0,0.0,0.0
1664566131395,-1.4951172,-0.35742188,-0.2578125,-13.125,30.625,-16.5625,0.0,0.0,0.0
1664566131435,-0.42285156,-0.032226562,-0.3310547,70.1875,-56.90625,47.40625,0.0,0.0,0.0
1664566131474,-0.053710938,0.45214844,-0.4638672,115.15625,17.25,80.84375,0.0,0.0,0.0
1664566131515,0.2919922,0.3232422,-0.2548828,6.8125,-46.15625,30.5,-58.0625,-13.1875,-156.0625
1664566131555,0.2998047,0.359375,-0.17089844,31.28125,-10.09375,-15.21875,0.0,0.0,0.0
1664566131596,-0.06933594,-0.05078125,-1.2714844,-31.625,-48.0,-20.40625,0.0,0.0,0.0
1664566131635,-1.9414062,0.61328125,-0.2890625,-85.15625,-228.46875,43.5625,0.0,0.0,0.0
1664566131674,-1.6679688,0.015625,-0.41210938,-94.5,8.71875,-8.125,0.0,0.0,0.0
1664566131735,-1.9414062,-0.095703125,-0.32714844,-97.3125,-74.125,9.125,0.0,0.0,0.0
1664566131755,-1.2539062,-0.2783203,-0.0029296875,-173.34375,-83.4375,29.78125,0.0,0.0,0.0
1664566131794,0.16210938,-0.12792969,0.02734375,-68.4375,-13.4375,-38.53125,0.0,0.0,0.0
1664566131834,0.7988281,-0.057617188,0.12597656,-10.21875,-44.15625,-46.34375,0.0,0.0,0.0
1664566131875,0.23925781,-0.2841797,-0.21484375,-19.1875,15.65625,-88.15625,0.0,0.0,0.0
1664566131914,-0.3935547,0.31152344,-0.15820312,57.46875,23.71875,24.875,0.0,0.0,0.0
1664566131954,-1.9414062,0.59375,-0.3935547,181.4375,116.625,138.71875,0.0,0.0,0.0
1664566131995,-1.9414062,-0.3408203,-1.0712891,-57.875,0.65625,-20.84375,-60.3125,-8.5,-152.625
1664566132035,-1.6757812,-0.75683594,0.36035156,130.59375,172.21875,-113.53125,0.0,0.0,0.0
1664566132075,-1.7753906,-0.13085938,-0.37695312,43.6875,65.15625,-12.40625,0.0,0.0,0.0
1664566132115,-0.5576172,-0.0390625,-0.49609375,-4.65625,-45.1875,38.875,0.0,0.0,0.0
1664566132155,0.029296875,0.4033203,-0.6455078,163.625,30.125,87.6875,0.0,0.0,0.0
1664566132195,0.30273438,0.3173828,-0.23535156,27.34375,-3.4375,32.6875,0.0,0.0,0.0
1664566132235,0.09765625,0.2578125,-0.11621094,28.96875,-23.34375,-30.90625,0.0,0.0,0.0
1664566132275,-0.08691406,-0.07910156,-0.6064453,-22.0625,-70.28125,-21.4375,0.0,0.0,0.0
1664566132315,-1.9414062,0.8798828,-0.88964844,-29.5625,-148.875,35.5,0.0,0.0,0.0
1664566132355,-1.875,0.15625,-0.58984375,-102.3125,-11.90625,-9.71875,0.0,0.0,0.0
1664566132395,-1.9414062,0.041992188,-0.20996094,-249.03125,-239.15625,-36.34375,0.0,0.0,0.0
1664566132435,-0.91015625,-0.25390625,0.1953125,-121.71875,3.90625,43.4375,0.0,0.0,0.0
1664566132495,0.14550781,0.0625,-0.2685547,-59.84375,65.46875,1.21875,0.0,0.0,0.0
1664566132515,0.79589844,-0.25,-0.02734375,-54.09375,-42.1875,-72.53125,-58.8125,-8.5,-154.6875
1664566132555,0.33984375,-0.37890625,-0.16015625,-7.53125,-45.125,-73.25,0.0,0.0,0.0
1664566132594,-0.36914062,0.32421875,-0.13769531,41.71875,0.03125,21.59375,0.0,0.0,0.0
1664566132634,-1.9414062,0.44921875,-0.34765625,173.9375,99.90625,142.75,0.0,0.0,0.0
1664566132675,-1.9414062,-0.52441406,-0.99609375,-51.09375,7.96875,-24.0625,0.0,0.0,0.0
1664566132715,-1.5986328,-0.4609375,0.18457031,165.375,198.46875,-85.65625,0.0,0.0,0.0
1664566132755,-1.9414062,-0.103515625,-0.6875,-9.90625,77.875,-58.5,0.0,0.0,0.0
1664566132795,-0.7089844,-0.21679688,-0.36328125,17.4375,-52.625,35.09375,0.0,0.0,0.0
1664566132834,0.23925781,0.2734375,-0.25,142.25,1.5,74.5,0.0,0.0,0.0
1664566132875,0.48632812,0.26953125,-0.21386719,63.34375,7.0625,53.4375,0.0,0.0,0.0
1664566132915,0.36621094,0.40820312,-0.203125,44.90625,5.125,4.625,0.0,0.0,0.0
1664566132955,-0.078125,0.056640625,-0.9589844,16.28125,-15.09375,-22.46875,0.0,0.0,0.0
1664566132995,-1.9414062,0.5859375,-0.7080078,-51.59375,-134.96875,9.1875,-58.625,-14.8125,-153.5
1664566133034,-1.6484375,-0.02734375,-0.4345703,-121.96875,-28.28125,0.46875,0.0,0.0,0.0
1664566133075,-1.9414062,-0.50097656,-0.087890625,-106.59375,-91.09375,23.3125,0.0,0.0,0.0
1664566133115,-1.4902344,-0.5527344,0.20800781,-153.65625,-56.59375,28.375,0.0,0.0,0.0
1664566133155,0.3017578,-0.13476562,-0.11328125,-70.03125,24.71875,-7.15625,0.0,0.0,0.0
1664566133194,0.77734375,-0.14941406,-0.0048828125,-11.5625,-14.125,-35.40625,0.0,0.0,0.0
1664566133256,0.26660156,-0.5126953,-0.15039062,-31.4375,-41.03125,-75.21875,0.0,0.0,0.0
1664566133274,-0.11328125,0.53027344,-0.24511719,67.90625,44.65625,-6.25,0.0,0.0,0.0
1664566133315,-1.609375,0.6113281,-0.5917969,81.03125,151.21875,97.6875,0.0,0.0,0.0
1664566133355,-1.9414062,-1.0976562,-1.4501953,-54.34375,-84.25,10.84375,0.0,0.0,0.0
1664566133395,-1.9150391,-0.41503906,0.4814453,103.375,137.5,-100.28125,0.0,0.0,0.0
1664566133435,-1.9414062,-0.4970703,-0.15429688,34.53125,107.03125,-22.65625,0.0,0.0,0.0
1664566133475,-0.57714844,0.057617188,-0.66796875,26.65625,-30.46875,44.84375,0.0,0.0,0.0
1664566133515,0.4453125,0.47558594,-0.40722656,124.6875,-4.03125,77.5625,-57.875,-14.375,-156.375
1664566133556,-0.02734375,0.53222656,-0.3232422,49.0625,-0.6875,28.5625,0.0,0.0,0.0
1664566133594,0.4140625,0.2421875,-0.060546875,-21.625,-52.1875,-7.875,0.0,0.0,0.0
1664566133635,0.0146484375,-0.0107421875,-0.6113281,-5.625,-45.1875,-26.75,0.0,0.0,0.0
1664566133675,-1.9414062,0.119140625,-1.2304688,58.09375,-60.6875,7.6875,0.0,0.0,0.0
1664566133715,-1.8134766,0.38378906,-0.49804688,-111.34375,12.75,18.59375,0.0,0.0,0.0
1664566133755,-1.8974609,-0.38671875,-0.06347656,-102.1875,-97.5,22.125,0.0,0.0,0.0
1664566133795,-1.5234375,0.14453125,-0.22070312,-135.28125,-45.5,57.34375,0.0,0.0,0.0
1664566133836,0.24414062,0.044921875,0.0625,-69.09375,23.0,-0.875,0.0,0.0,0.0
1664566133875,0.71972656,-0.13476562,-0.030273438,-21.1875,-7.28125,-29.5,0.0,0.0,0.0
1664566133915,0.57910156,-0.49804688,-0.16113281,-35.90625,-49.8125,-84.625,0.0,0.0,0.0
1664566133955,-0.15820312,0.38964844,-0.24707031,66.03125,75.4375,-13.0625,0.0,0.0,0.0
1664566134016,-0.9628906,0.63183594,-0.82421875,108.1875,202.0,76.28125,-61.9375,-10.9375,-150.8125
1664566134035,-1.8291016,-0.9042969,-1.2998047,-69.90625,-33.9375,6.75,0.0,0.0,0.0
1664566134077,-1.9414062,-1.0654297,0.8964844,37.34375,-1.0,-120.75,0.0,0.0,0.0
1664566134115,-1.9414062,-0.25,-0.61328125,128.71875,136.15625,-11.5,0.0,0.0,0.0
1664566134156,-0.86816406,0.038085938,-0.63964844,5.46875,-55.6875,23.25,0.0,0.0,0.0
1664566134195,0.12988281,0.15136719,-0.54785156,124.1875,-18.75,77.4375,0.0,0.0,0.0
1664566134235,0.171875,0.3857422,-0.4482422,75.1875,36.65625,62.125,0.0,0.0,0.0
1664566134275,0.35351562,0.5019531,-0.06933594,9.9375,-10.21875,-3.4375,0.0,0.0,0.0
1664566134315,-0.14648438,0.16699219,-0.421875,-21.875,-55.0,-22.65625,0.0,0.0,0.0
1664566134356,-1.6103516,-0.25878906,-1.5019531,44.71875,-18.03125,-36.03125,0.0,0.0,0.0
1664566134395,-1.9414062,0.49316406,-0.703125,-95.59375,71.53125,39.96875,0.0,0.0,0.0
1664566134435,-1.9414062,-0.17382812,-0.08984375,-120.0625,-59.28125,11.53125,0.0,0.0,0.0
1664566134476,-1.5283203,0.060546875,-0.24511719,-204.71875,-66.65625,33.625,0.0,0.0,0.0
1664566134515,0.15917969,0.00390625,0.037109375,-104.6875,8.21875,-23.875,-60.875,-8.6875,-150.8125
1664566134555,0.6923828,-0.36035156,0.013671875,-47.125,-16.0625,-30.09375,0.0,0.0,0.0
1664566134595,0.55566406,-0.57421875,-0.13867188,-18.5,-46.59375,-56.78125,0.0,0.0,0.0
1664566134635,-0.10546875,0.4423828,-0.359375,106.75,50.21875,-7.40625,0.0,0.0,0.0
1664566134676,0.13476562,0.31152344,-0.6796875,92.09375,110.9375,20.0,0.0,0.0,0.0
1664566134715,-1.9414062,-0.53027344,-1.9482422,-51.09375,-79.3125,54.96875,0.0,0.0,0.0
1664566134776,-1.9414062,-1.0341797,0.7597656,-31.875,-42.5,-137.34375,0.0,0.0,0.0
1664566134795,-1.9414062,-0.62109375,-0.43652344,114.65625,182.46875,-25.34375,0.0,0.0,0.0
1664566134835,-1.2851562,-0.09472656,-0.56640625,30.75,28.78125,17.125,0.0,0.0,0.0
1664566134875,-0.029296875,0.4716797,-0.29296875,91.78125,-50.5625,73.40625,0.0,0.0,0.0
1664566134915,0.06933594,0.3955078,-0.5908203,93.6875,17.375,77.25,0.0,0.0,0.0
1664566134957,0.5488281,0.4921875,-0.10839844,-4.46875,-44.9375,15.71875,0.0,0.0,0.0
1664566134995,0.0703125,0.21679688,-0.24609375,1.4375,-24.125,-21.875,-58.8125,-13.1875,-153.625
1664566135035,-1.1347656,-0.22851562,-1.4951172,62.125,40.9375,-35.78125,0.0,0.0,0.0
1664566135076,-1.9414062,0.14648438,-1.0830078,-72.59375,36.96875,54.90625,0.0,0.0,0.0
1664566135114,-1.7910156,-0.15136719,-0.20996094,-124.53125,-72.09375,-23.875,0.0,0.0,0.0
1664566135155,-1.5986328,-0.06933594,-0.16894531,-165.65625,-62.625,53.5625,0.0,0.0,0.0
1664566135195,-0.0859375,-0.14160156,-0.12890625,-88.875,-8.0625,13.09375,0.0,0.0,0.0
1664566135235,0.8671875,-0.19140625,0.1953125,-63.5625,-10.5625,-26.0625,0.0,0.0,0.0
1664566135276,0.62402344,-0.3935547,-0.14453125,-29.875,-73.25,-70.8125,0.0,0.0,0.0
1664566135316,-0.09375,0.26953125,-0.19433594,87.21875,42.15625,-45.78125,0.0,0.0,0.0
1664566135355,0.07128906,0.09472656,-0.48339844,80.25,15.5,44.96875,0.0,0.0,0.0
1664566135396,-1.9414062,0.034179688,-1.4189453,10.25,56.375,137.5,0.0,0.0,0.0
1664566135435,-1.9414062,-0.828125,0.5625,-42.125,8.90625,-126.40625,0.0,0.0,0.0
1664566135475,-1.9414062,-0.54785156,-0.59375,175.09375,200.59375,-56.84375,0.0,0.0,0.0
1664566135536,-1.4082031,0.11328125,-0.4111328,41.625,61.6875,12.1875,-57.625,-15.5625,-155.875
1664566135554,-0.4794922,0.2734375,-0.24902344,23.78125,-99.25,36.3125,0.0,0.0,0.0
1664566135594,0.13574219,0.3935547,-0.47460938,118.875,15.5,70.1875,0.0,0.0,0.0
1664566135635,0.5683594,0.44140625,-0.140625,-5.4375,-52.625,26.0,0.0,0.0,0.0
1664566135696,0.24804688,0.20214844,-0.19238281,13.15625,-17.65625,-27.0,0.0,0.0,0.0
1664566135714,-0.1015625,-0.14550781,-1.2041016,-16.25,-0.875,-31.75,0.0,0.0,0.0
1664566135755,-1.9414062,0.8378906,0.07714844,-108.96875,-195.375,36.71875,0.0,0.0,0.0
1664566135795,-1.9414062,0.11621094,-0.40039062,-166.53125,-7.78125,-52.3125,0.0,0.0,0.0
1664566135835,-1.9414062,-0.30078125,-0.22265625,-128.5,-80.75,7.6875,0.0,0.0,0.0
1664566135875,-0.9814453,-0.45703125,0.13378906,-78.875,-41.40625,51.5625,0.0,0.0,0.0
1664566135915,0.3154297,-0.032226562,-0.0029296875,-111.84375,-0.5,-26.875,0.0,0.0,0.0
1664566135955,0.6435547,0.099609375,-0.11816406,12.25,-50.1875,-55.375,0.0,0.0,0.0
1664566135995,-0.038085938,-0.27539062,-0.19238281,13.0,-18.75,-75.875,-61.0625,-11.375,-151.25
1664566136035,-0.39257812,0.3798828,-0.15820312,76.875,9.875,60.03125,0.0,0.0,0.0
1664566136075,-1.9414062,0.57128906,-0.083984375,124.9375,59.5625,131.5625,0.0,0.0,0.0
1664566136115,-1.9414062,-0.73828125,-0.6044922,-13.75,65.40625,-49.34375,0.0,0.0,0.0
1664566136155,-1.8046875,-0.64160156,-0.15332031,164.59375,192.125,-83.75,0.0,0.0,0.0
1664566136195,-1.1240234,-0.30273438,-0.057617188,34.78125,55.84375,-0.1875,0.0,0.0,0.0
1664566136235,-0.7265625,0.26757812,-0.36035156,6.8125,-93.53125,28.5625,0.0,0.0,0.0
1664566136296,0.41601562,0.34375,-0.43164062,160.625,27.5625,92.625,0.0,0.0,0.0
1664566136335,0.29003906,0.5371094,-0.3388672,27.8125,-18.6875,36.3125,0.0,0.0,0.0
1664566136355,0.30859375,0.22949219,-0.17285156,21.40625,7.4375,-20.875,0.0,0.0,0.0
1664566136396,-0.17382812,0.083984375,-1.2001953,8.84375,4.6875,-26.375,0.0,0.0,0.0
1664566136435,-1.9414062,0.64746094,-0.34277344,-113.90625,-169.09375,22.09375,0.0,0.0,0.0
1664566136475,-1.9414062,-0.03515625,-0.6376953,-137.28125,-6.84375,-40.59375,0.0,0.0,0.0
1664566136515,-1.8603516,-0.2763672,-0.15917969,-113.53125,-45.84375,40.21875,-58.625,-14.0625,-154.5625
1664566136555,-0.9277344,-0.3017578,0.29003906,-90.78125,-52.03125,69.625,0.0,0.0,0.0
1664566136595,0.4658203,-0.12988281,-0.03125,-99.3125,23.1875,-16.875,0.0,0.0,0.0
1664566136638,0.6660156,-0.21191406,-0.0234375,13.34375,-41.6875,-59.46875,0.0,0.0,0.0
1664566136675,0.23925781,-0.115234375,0.00390625,4.5,-27.90625,-85.03125,0.0,0.0,0.0
1664566136715,-0.42382812,0.5419922,-0.3486328,60.03125,42.71875,27.34375,0.0,0.0,0.0
1664566136755,-1.9414062,0.7294922,-0.4326172,112.90625,179.90625,91.90625,0.0,0.0,0.0
1664566136795,-1.9414062,-0.44433594,-1.34375,-46.53125,-63.75,-5.09375,0.0,0.0,0.0
1664566136835,-1.7099609,-0.7470703,0.18847656,110.75,139.6875,-107.1875,0.0,0.0,0.0
1664566136875,-1.8955078,-0.5488281,-0.0625,58.28125,74.5,-7.78125,0.0,0.0,0.0
1664566136917,-0.41601562,0.072265625,-0.50390625,36.53125,-50.375,38.6875,0.0,0.0,0.0
1664566136955,0.1875,0.44921875,-0.640625,145.125,4.4375,73.28125,0.0,0.0,0.0
1664566136995,0.033203125,0.5546875,-0.46289062,53.28125,3.59375,42.90625,-57.125,-14.0625,-155.3125
1664566137056,0.31054688,0.50878906,-0.09765625,-15.625,-42.4375,-11.3125,0.0,0.0,0.0
1664566137074,0.15136719,-0.08203125,-0.6777344,-37.75,-52.6875,-42.8125,0.0,0.0,0.0
1664566137116,-1.9414062,-0.28320312,-0.79296875,53.09375,-62.75,25.5625,0.0,0.0,0.0
1664566137156,-1.9414062,0.26464844,-0.40527344,-139.3125,-4.84375,-18.25,0.0,0.0,0.0
1664566137197,-1.7832031,-0.16699219,-0.28320312,-117.5,-84.375,-6.125,0.0,0.0,0.0
1664566137237,-1.5410156,-0.25683594,0.08496094,-221.5,-106.78125,-4.09375,0.0,0.0,0.0
1664566137275,0.14550781,-0.2421875,-0.034179688,-80.59375,40.875,-7.65625,0.0,0.0,0.0
1664566137315,0.61621094,-0.20507812,0.041992188,-22.78125,-32.65625,-16.5625,0.0,0.0,0.0
1664566137356,0.5576172,-0.2890625,-0.0048828125,-25.78125,-36.625,-75.5625,0.0,0.0,0.0
1664566137396,-0.26953125,0.35742188,-0.29101562,73.96875,36.78125,-5.875,0.0,0.0,0.0
1664566137436,-0.3984375,0.44628906,-0.85253906,133.84375,153.5,49.46875,0.0,0.0,0.0
1664566137477,-1.9414062,-0.29785156,-1.3935547,-113.40625,-57.75,4.0,0.0,0.0,0.0
1664566137515,-1.9414062,-1.1884766,0.5732422,5.71875,38.8125,-141.96875,-60.625,-14.1875,-156.5
1664566137557,-1.9414062,-0.3857422,-0.20996094,132.125,117.21875,35.375,0.0,0.0,0.0
1664566137595,-1.0439453,0.12109375,-0.6044922,2.0,-43.53125,-0.0625,0.0,0.0,0.0
1664566137636,0.21386719,0.2998047,-0.5498047,112.96875,-20.71875,68.96875,0.0,0.0,0.0
1664566137676,0.1484375,0.5800781,-0.5214844,71.8125,21.21875,69.9375,0.0,0.0,0.0
1664566137715,0.3623047,0.4189453,-0.09082031,-9.78125,-30.96875,-3.0,0.0,0.0,0.0
1664566137756,-0.0048828125,0.1484375,-0.18261719,-33.65625,-61.90625,-33.34375,0.0,0.0,0.0
1664566137815,-1.5039062,-0.5253906,-1.6083984,101.59375,47.46875,-47.4375,0.0,0.0,0.0
1664566137835,-1.9414062,0.21875,-0.5878906,-64.78125,64.0,75.25,0.0,0.0,0.0
1664566137876,-1.7294922,0.3388672,-0.31445312,-104.25,-32.125,-24.375,0.0,0.0,0.0
1664566137915,-1.9414062,-0.5859375,0.6230469,-284.8125,-126.46875,5.40625,0.0,0.0,0.0
1664566137955,-0.5253906,-0.19238281,-0.42578125,-5.21875,50.09375,77.9375,0.0,0.0,0.0
1664566137995,0.64160156,0.10546875,0.12988281,-62.6875,-28.09375,-35.46875,-62.875,-10.625,-152.0
1664566138035,0.5625,-0.22753906,-0.20117188,-12.40625,-36.9375,-66.0,0.0,0.0,0.0
1664566138075,-0.2109375,-9.765625E-4,-0.1328125,17.3125,-13.5,-55.4375,0.0,0.0,0.0
1664566138115,-0.08203125,0.32226562,-0.3935547,81.34375,13.84375,47.34375,0.0,0.0,0.0
1664566138155,-1.9414062,0.0390625,-0.28320312,62.0,69.9375,117.65625,0.0,0.0,0.0
1664566138195,-1.9414062,-0.2841797,0.2841797,-32.84375,-8.5625,-60.9375,0.0,0.0,0.0
1664566138235,-1.9414062,-0.5839844,-0.5498047,151.34375,196.15625,-112.5,0.0,0.0,0.0
1664566138277,-1.9414062,-0.11621094,-0.79296875,84.53125,139.375,5.0625,0.0,0.0,0.0
1664566138315,-0.09667969,0.18359375,-0.09472656,14.21875,-75.53125,79.15625,0.0,0.0,0.0
1664566138355,0.06542969,0.4501953,-0.44726562,104.78125,7.90625,80.96875,0.0,0.0,0.0
1664566138396,0.453125,0.50683594,-0.049804688,-15.40625,-50.375,7.5,0.0,0.0,0.0
1664566138435,0.1484375,-0.0087890625,-0.21191406,-16.125,-48.46875,-39.0625,0.0,0.0,0.0
1664566138476,0.0390625,-0.15234375,-0.39648438,-19.84375,-72.9375,-25.71875,0.0,0.0,0.0
1664566138517,-1.8496094,0.19238281,-1.2275391,91.53125,-33.40625,42.03125,-58.0625,-17.5,-155.125
1664566138576,-1.9414062,0.41601562,-0.3955078,-87.96875,-8.75,8.46875,0.0,0.0,0.0
1664566138594,-1.9414062,-0.24609375,-0.17871094,-101.03125,-82.28125,3.40625,0.0,0.0,0.0
1664566138635,-1.4570312,0.061523438,-0.2998047,-33.71875,41.65625,90.875,0.0,0.0,0.0
1664566138675,-0.0234375,-0.31054688,-0.15039062,-94.375,-5.25,11.59375,0.0,0.0,0.0
1664566138715,0.63671875,0.09863281,0.001953125,-32.1875,-10.15625,-15.9375,0.0,0.0,0.0
1664566138757,0.53808594,-0.34472656,-0.31835938,19.34375,-60.6875,-52.1875,0.0,0.0,0.0
1664566138794,-0.16308594,0.31152344,-0.061523438,29.34375,-20.03125,-16.96875,0.0,0.0,0.0
1664566138835,-0.03515625,0.265625,-0.8222656,123.8125,156.0,48.5625,0.0,0.0,0.0
1664566138875,-1.9414062,0.12109375,-1.4394531,-68.3125,-1.25,70.1875,0.0,0.0,0.0
1664566138915,-1.9414062,-0.7402344,0.49414062,-45.59375,5.0625,-140.28125,0.0,0.0,0.0
1664566138955,-1.9414062,-0.30273438,-0.5576172,142.3125,172.96875,-84.0,0.0,0.0,0.0
1664566138996,-1.4990234,0.055664062,-0.7158203,79.40625,75.65625,4.25,-54.875,-18.25,-158.625
1664566139035,-0.36328125,0.16113281,-0.20898438,25.25,-67.46875,51.1875,0.0,0.0,0.0
1664566139075,0.14550781,0.20214844,-0.37304688,71.59375,-25.34375,44.84375,0.0,0.0,0.0
1664566139115,0.59472656,0.4765625,-0.13769531,35.25,-37.5625,2.71875,0.0,0.0,0.0
1664566139155,0.037109375,0.3984375,-0.3876953,21.78125,5.59375,-18.15625,0.0,0.0,0.0
1664566139195,-0.94433594,0.1171875,-1.5625,109.25,64.8125,-24.3125,0.0,0.0,0.0
1664566139235,-1.9414062,0.5859375,-1.0214844,-70.9375,-45.96875,13.59375,0.0,0.0,0.0
1664566139275,-1.9414062,-0.2265625,-0.33398438,-167.96875,-30.53125,-59.21875,0.0,0.0,0.0
1664566139336,-1.9267578,0.095703125,-1.46875,-234.5,-124.34375,-30.34375,0.0,0.0,0.0
1664566139355,-0.4892578,-0.06640625,-0.8623047,46.8125,45.21875,115.78125,0.0,0.0,0.0
1664566139398,0.6269531,-0.109375,0.16308594,-88.46875,-11.25,-33.84375,0.0,0.0,0.0
1664566139436,0.66503906,-0.10449219,-0.16503906,-30.59375,-36.09375,-79.3125,0.0,0.0,0.0
1664566139475,-0.1796875,0.15820312,-0.21386719,23.1875,19.75,-40.84375,0.0,0.0,0.0
1664566139515,-0.25,0.24609375,-0.07324219,42.65625,-33.21875,40.21875,-58.375,-13.3125,-155.3125
1664566139555,-1.9414062,0.16796875,-0.21582031,170.28125,130.78125,113.875,0.0,0.0,0.0
1664566139595,-1.9414062,0.12695312,-0.5,-10.4375,46.0625,-71.0625,0.0,0.0,0.0
1664566139636,-1.9414062,-0.96972656,-0.0029296875,87.5625,146.96875,-76.96875,0.0,0.0,0.0
1664566139678,-1.9130859,-0.16503906,-0.42089844,102.40625,106.5625,20.25,0.0,0.0,0.0
1664566139717,-0.28125,0.21191406,-0.31152344,32.09375,-67.34375,57.53125,0.0,0.0,0.0
1664566139755,0.10058594,0.30566406,-0.5527344,119.5,7.0,80.96875,0.0,0.0,0.0
1664566139795,0.39257812,0.47265625,-0.29101562,11.875,-18.5,28.125,0.0,0.0,0.0
1664566139835,0.18457031,0.29882812,-0.21191406,3.65625,-26.625,-31.375,0.0,0.0,0.0
1664566139875,-0.04296875,0.005859375,-0.73535156,-46.15625,-62.9375,-21.6875,0.0,0.0,0.0
1664566139915,-1.9414062,0.43554688,-0.9375,-13.125,-165.125,34.71875,0.0,0.0,0.0
1664566139956,-1.7753906,0.2998047,-0.43945312,-126.46875,19.15625,-7.59375,0.0,0.0,0.0
1664566139995,-1.9414062,-0.4736328,0.16308594,-182.75,-148.09375,-24.5625,-57.4375,-16.0,-156.8125
1664566140036,-1.0253906,-0.3095703,0.16113281,-113.90625,-58.5,34.53125,0.0,0.0,0.0
1664566140095,0.3095703,-0.068359375,-0.026367188,-96.5,18.34375,-19.78125,0.0,0.0,0.0
1664566140115,0.63964844,-0.15527344,-0.059570312,15.5625,9.8125,-56.78125,0.0,0.0,0.0
1664566140156,0.2998047,-0.4638672,-0.15332031,-18.375,-27.40625,-72.09375,0.0,0.0,0.0
1664566140195,-0.328125,0.2734375,-0.34960938,92.09375,46.1875,62.3125,0.0,0.0,0.0
1664566140236,-1.9414062,0.8544922,-0.24121094,152.5,176.8125,127.5625,0.0,0.0,0.0
1664566140276,-1.9414062,-0.703125,-1.5869141,-26.75,-4.84375,-26.25,0.0,0.0,0.0
1664566140316,-1.8964844,-0.3544922,0.08886719,118.03125,120.34375,-71.5625,0.0,0.0,0.0
1664566140355,-1.9414062,-0.67285156,-0.43164062,105.21875,114.4375,-26.3125,0.0,0.0,0.0
1664566140395,-0.5078125,0.3408203,-0.54785156,22.6875,-58.4375,33.96875,0.0,0.0,0.0
1664566140435,0.39941406,0.44433594,-0.47851562,99.84375,7.0625,67.78125,0.0,0.0,0.0
1664566140476,0.1640625,0.4736328,-0.29101562,28.71875,-18.875,28.71875,0.0,0.0,0.0
1664566140515,0.30566406,0.28027344,-0.125,-17.09375,-22.96875,-24.125,-56.6875,-17.8125,-156.8125
1664566140556,0.10449219,-0.06933594,-0.59277344,-40.96875,-68.6875,-34.875,0.0,0.0,0.0
1664566140595,-1.9414062,-0.15136719,-0.9003906,68.90625,-54.21875,28.625,0.0,0.0,0.0
1664566140635,-1.9414062,0.53027344,-0.41308594,-103.15625,15.0625,12.25,0.0,0.0,0.0
1664566140675,-1.5546875,-0.07128906,-0.48242188,-237.0,-169.3125,-61.65625,0.0,0.0,0.0
1664566140715,-0.8203125,-0.5078125,0.16503906,-129.40625,-69.34375,57.90625,0.0,0.0,0.0
1664566140755,0.08105469,0.055664062,-0.06542969,-93.34375,16.28125,-9.0,0.0,0.0,0.0
1664566140796,0.55566406,-0.005859375,0.13671875,-21.3125,-23.40625,-27.1875,0.0,0.0,0.0
1664566140856,0.5751953,-0.5683594,-0.10058594,0.53125,-37.84375,-69.34375,0.0,0.0,0.0
1664566140875,-0.25878906,0.3564453,-0.46875,117.0625,63.15625,31.59375,0.0,0.0,0.0
1664566140915,-0.11035156,0.36328125,-0.6386719,141.15625,122.375,75.78125,0.0,0.0,0.0
1664566140955,-1.9414062,-0.00390625,-1.4775391,-58.96875,-114.28125,78.28125,0.0,0.0,0.0
1664566140995,-1.9414062,-0.8613281,0.50390625,-10.8125,49.65625,-91.8125,-59.6875,-13.75,-154.875
1664566141035,-1.9414062,-0.3876953,-0.27929688,97.6875,137.6875,-76.125,0.0,0.0,0.0
1664566141075,-1.3525391,-0.16601562,-0.55566406,-37.75,-5.25,-15.6875,0.0,0.0,0.0
1664566141115,0.001953125,0.18554688,-0.40429688,100.4375,-37.0625,70.25,0.0,0.0,0.0
1664566141155,0.06738281,0.3154297,-0.49804688,107.90625,7.6875,62.1875,0.0,0.0,0.0
1664566141195,0.5419922,0.51953125,0.005859375,33.125,-44.375,13.15625,0.0,0.0,0.0
1664566141235,0.06347656,0.15234375,-0.3076172,7.25,-13.125,-23.21875,0.0,0.0,0.0
1664566141275,-1.1113281,-0.16699219,-1.3242188,108.3125,82.8125,-28.59375,0.0,0.0,0.0
1664566141315,-1.9414062,0.88671875,-0.6611328,-79.3125,-31.5625,45.875,0.0,0.0,0.0
1664566141355,-1.9414062,0.61816406,-1.3056641,-150.71875,-48.96875,-50.375,0.0,0.0,0.0
1664566141396,-1.6630859,-0.38183594,0.27929688,-22.21875,26.34375,70.0,0.0,0.0,0.0
1664566141436,-0.68359375,-0.41210938,0.0087890625,-89.5,-18.375,71.46875,0.0,0.0,0.0
1664566141475,0.50878906,0.013671875,-0.07324219,-32.125,2.5625,17.9375,0.0,0.0,0.0
1664566141516,0.76660156,-0.09667969,0.025390625,-14.71875,-74.28125,-69.90625,-58.375,-11.5,-155.3125
1664566141555,-0.23828125,-0.36035156,-0.115234375,33.3125,5.90625,-53.46875,0.0,0.0,0.0
1664566141615,-0.50683594,0.29296875,-0.09375,54.625,-12.40625,35.09375,0.0,0.0,0.0
1664566141635,-1.6630859,0.4892578,-0.7050781,192.5625,188.40625,86.90625,0.0,0.0,0.0
1664566141675,-1.9414062,-0.030273438,-1.7695312,-122.40625,-34.8125,-39.4375,0.0,0.0,0.0
1664566141715,-1.9414062,-0.5439453,0.25585938,68.09375,102.9375,-129.21875,0.0,0.0,0.0
1664566141755,-1.9414062,-0.2626953,-0.06640625,18.0625,73.90625,-54.34375,0.0,0.0,0.0
1664566141796,-0.6660156,0.13085938,-0.50878906,20.3125,10.71875,16.90625,0.0,0.0,0.0
1664566141836,0.037109375,0.25585938,-0.27148438,71.8125,-24.78125,72.96875,0.0,0.0,0.0
1664566141875,0.4765625,0.32128906,-0.3173828,31.1875,-22.90625,57.1875,0.0,0.0,0.0
1664566141915,0.42871094,0.390625,-0.15917969,-9.0625,-13.5625,-5.4375,0.0,0.0,0.0
1664566141958,-0.087890625,0.15039062,-0.12402344,11.28125,-44.875,-9.28125,0.0,0.0,0.0
1664566141996,-0.69433594,-0.22949219,-1.2822266,87.3125,84.15625,-57.09375,-56.875,-18.4375,-155.3125
1664566142036,-1.9414062,-0.01953125,-0.8652344,-87.25,-79.78125,-17.09375,0.0,0.0,0.0
1664566142075,-1.7490234,-0.048828125,-0.43066406,-45.71875,-11.71875,-2.34375,0.0,0.0,0.0
1664566142115,-1.9414062,-0.4033203,0.296875,-12.28125,-6.3125,63.40625,0.0,0.0,0.0
1664566142156,-1.0292969,-0.2109375,0.013671875,-123.125,-82.90625,44.1875,0.0,0.0,0.0
1664566142195,0.055664062,-0.29882812,-0.15625,-77.96875,19.03125,-7.09375,0.0,0.0,0.0
1664566142235,0.61035156,0.044921875,0.13671875,-56.90625,-45.125,-48.0625,0.0,0.0,0.0
1664566142275,0.25195312,-0.45214844,-0.20507812,-27.84375,-21.8125,-74.0625,0.0,0.0,0.0
1664566142315,-0.24023438,0.3671875,-0.3232422,54.96875,41.4375,26.0,0.0,0.0,0.0
1664566142376,-0.7578125,0.22851562,-0.70410156,115.84375,190.21875,74.4375,0.0,0.0,0.0
1664566142395,-1.9414062,-0.2890625,-1.4306641,-55.5,-20.65625,49.78125,0.0,0.0,0.0
1664566142435,-1.9414062,-0.78515625,0.7392578,0.15625,-4.96875,-109.625,0.0,0.0,0.0
1664566142475,-1.8164062,-0.78027344,0.16210938,77.625,114.59375,-22.71875,0.0,0.0,0.0
1664566142515,-1.1123047,0.099609375,-0.7548828,50.78125,6.40625,23.4375,-53.125,-19.625,-158.125
1664566142555,-0.021484375,0.421875,-0.42382812,87.25,-36.09375,52.78125,0.0,0.0,0.0
1664566142595,0.0078125,0.3232422,-0.3984375,16.46875,-8.25,30.0,0.0,0.0,0.0
1664566142635,0.5859375,0.24804688,-0.06640625,-44.6875,-81.625,3.09375,0.0,0.0,0.0
1664566142675,0.115234375,0.09472656,-0.3076172,6.03125,-27.1875,-28.75,0.0,0.0,0.0
1664566142715,-1.2373047,-0.055664062,-1.1396484,67.4375,21.46875,-40.46875,0.0,0.0,0.0
1664566142756,-1.9414062,0.796875,-0.88671875,-52.875,-1.84375,49.71875,0.0,0.0,0.0
1664566142795,-1.9414062,0.21386719,-0.7939453,-136.90625,-67.875,-16.125,0.0,0.0,0.0
1664566142835,-1.5068359,-0.2578125,-0.24023438,-102.96875,-49.03125,59.75,0.0,0.0,0.0
1664566142876,-0.61035156,-0.32226562,-0.047851562,-65.375,5.0625,29.53125,0.0,0.0,0.0
1664566142915,0.71484375,0.07128906,-0.0703125,-28.53125,-3.0,4.0,0.0,0.0,0.0
1664566142955,0.6923828,-0.07519531,-0.19628906,-6.0,-9.53125,-30.96875,0.0,0.0,0.0
1664566142995,-0.1328125,0.040039062,-0.31640625,43.0625,-0.375,-42.125,-59.6875,-14.8125,-155.3125
1664566143035,-0.05859375,0.24414062,-0.40722656,44.28125,14.4375,30.625,0.0,0.0,0.0
1664566143076,-1.9414062,0.11230469,-0.64160156,7.625,-12.21875,124.0,0.0,0.0,0.0
1664566143135,-1.9414062,-0.8623047,0.3857422,-24.625,15.5625,-90.28125,0.0,0.0,0.0
1664566143155,-1.9414062,-0.19433594,-0.7080078,174.0625,204.5625,-73.875,0.0,0.0,0.0
1664566143195,-1.3212891,-0.38378906,-0.12402344,7.5625,53.5625,4.5625,0.0,0.0,0.0
1664566143235,-0.47753906,0.059570312,-0.001953125,11.21875,-86.4375,44.84375,0.0,0.0,0.0
1664566143275,0.37597656,0.38964844,-0.49804688,149.03125,6.15625,80.6875,0.0,0.0,0.0
1664566143315,0.46679688,0.5625,-0.21289062,79.5625,25.3125,43.4375,0.0,0.0,0.0
1664566143355,0.29101562,0.44140625,-0.31835938,11.65625,-2.21875,-9.28125,0.0,0.0,0.0
1664566143395,-0.46484375,-0.08105469,-1.0996094,1.8125,-10.5,-52.5,0.0,0.0,0.0
1664566143435,-1.9414062,-0.11425781,-0.8408203,-126.90625,-114.28125,28.96875,0.0,0.0,0.0
1664566143475,-1.9414062,-0.015625,-0.25195312,-167.125,0.0,-80.09375,0.0,0.0,0.0
1664566143518,-1.9277344,-0.4033203,-0.14160156,-190.1875,-93.75,-20.46875,-55.1875,-19.625,-154.6875
1664566143555,-0.6328125,-0.54785156,0.47851562,-29.75,-26.4375,71.6875,0.0,0.0,0.0
1664566143595,0.51953125,-0.10546875,-0.099609375,-40.78125,14.28125,2.65625,0.0,0.0,0.0
1664566143635,0.6699219,-0.029296875,0.034179688,-20.71875,-33.40625,-55.8125,0.0,0.0,0.0
1664566143675,-0.12109375,-0.08203125,-0.15429688,21.28125,2.5,-63.84375,0.0,0.0,0.0
1664566143715,-0.4658203,0.44433594,-0.13671875,60.46875,22.8125,36.96875,0.0,0.0,0.0
1664566143758,-1.5771484,0.375,-0.58691406,150.125,147.03125,121.5,0.0,0.0,0.0
1664566143796,-1.9414062,-0.51171875,-1.4941406,-78.5,-25.15625,-35.84375,0.0,0.0,0.0
1664566143835,-1.6660156,-0.53125,0.3486328,102.46875,137.5,-85.65625,0.0,0.0,0.0
1664566143896,-1.9414062,-0.06933594,-0.21875,38.9375,80.78125,-12.40625,0.0,0.0,0.0
1664566143915,-0.79785156,-0.03125,-0.3955078,2.5,-20.03125,14.6875,0.0,0.0,0.0
1664566143955,0.20410156,0.2685547,-0.36621094,111.8125,-16.0,75.125,0.0,0.0,0.0
1664566143995,0.22460938,0.33984375,-0.49414062,107.84375,64.0625,55.28125,-54.0,-20.5,-155.3125
1664566144035,0.24902344,0.5966797,-0.10839844,-15.6875,-18.4375,17.375,0.0,0.0,0.0
1664566144075,0.0126953125,0.18847656,-0.421875,-19.1875,-37.0625,-21.0625,0.0,0.0,0.0
1664566144116,-1.6435547,-0.29003906,-1.4931641,54.3125,-23.625,-38.78125,0.0,0.0,0.0
1664566144155,-1.9414062,0.84277344,-0.4794922,-118.0625,22.9375,12.875,0.0,0.0,0.0
1664566144195,-1.9414062,-0.26757812,-0.36035156,-121.15625,-72.71875,-8.9375,0.0,0.0,0.0
1664566144236,-1.609375,-0.5263672,0.3466797,-216.8125,-105.25,-9.28125,0.0,0.0,0.0
1664566144275,-0.29589844,0.025390625,-0.009765625,-12.09375,37.03125,29.34375,0.0,0.0,0.0
1664566144315,0.70703125,-0.034179688,-0.0087890625,-34.25,2.1875,1.875,0.0,0.0,0.0
1664566144355,0.52246094,-0.41308594,-0.06933594,-51.71875,-48.0625,-73.625,0.0,0.0,0.0
1664566144395,-0.115234375,0.30371094,-0.28027344,95.375,41.375,-20.21875,0.0,0.0,0.0
1664566144435,0.17773438,0.30078125,-0.4482422,83.71875,6.40625,37.53125,0.0,0.0,0.0
1664566144475,-1.9414062,0.048828125,-1.0332031,113.09375,74.5625,114.59375,0.0,0.0,0.0
1664566144515,-1.9414062,-0.79589844,0.08691406,-18.625,-40.46875,-66.25,-54.875,-16.4375,-157.5625
1664566144555,-1.7109375,-0.671875,-0.3515625,198.15625,236.3125,-33.09375,0.0,0.0,0.0
1664566144595,-1.4130859,-0.21386719,-0.10449219,48.5625,79.03125,-22.53125,0.0,0.0,0.0
1664566144655,-0.81347656,0.31152344,-0.52441406,8.65625,-23.28125,51.75,0.0,0.0,0.0
1664566144675,-0.08691406,0.4326172,-0.65527344,60.40625,-6.5,78.0,0.0,0.0,0.0
1664566144717,0.35351562,0.43945312,-0.24511719,16.78125,-20.21875,21.53125,0.0,0.0,0.0
1664566144755,0.29785156,0.29785156,0.036132812,-23.75,-51.34375,-33.46875,0.0,0.0,0.0
1664566144798,-0.20703125,-0.099609375,-1.0761719,-6.90625,9.375,-63.3125,0.0,0.0,0.0
1664566144836,-1.9414062,-0.234375,-0.56347656,-58.25,-159.1875,52.0625,0.0,0.0,0.0
1664566144875,-1.6757812,0.2783203,-0.3046875,-73.9375,-12.03125,-4.78125,0.0,0.0,0.0
1664566144916,-1.9414062,0.06347656,-0.31640625,-107.125,-77.34375,24.65625,0.0,0.0,0.0
1664566144955,-1.2646484,-0.16699219,-0.18847656,-152.46875,-51.53125,14.6875,0.0,0.0,0.0
1664566144995,0.23535156,-0.26367188,0.0126953125,-102.96875,5.59375,2.84375,-56.875,-15.5625,-154.5625
1664566145035,0.71191406,-0.07128906,0.11328125,-38.46875,-30.40625,-18.5,0.0,0.0,0.0
1664566145075,0.41796875,-0.5253906,-0.19042969,-4.78125,-21.25,-77.78125,0.0,0.0,0.0
1664566145118,-0.23828125,0.4345703,-0.22070312,93.125,25.4375,14.09375,0.0,0.0,0.0
1664566145156,-0.484375,0.42773438,-0.65722656,123.59375,169.90625,76.65625,0.0,0.0,0.0
1664566145195,-1.9414062,-0.7285156,-1.9482422,-45.25,-103.03125,42.03125,0.0,0.0,0.0
1664566145235,-1.9414062,-0.56347656,0.77441406,9.9375,61.03125,-98.78125,0.0,0.0,0.0
1664566145275,-1.9414062,-0.20507812,-0.53808594,75.3125,113.21875,-45.5625,0.0,0.0,0.0
1664566145315,-0.9667969,-0.16699219,-0.4267578,-33.21875,-14.1875,1.3125,0.0,0.0,0.0
1664566145357,0.22167969,0.24316406,-0.21777344,84.9375,-44.5625,56.75,0.0,0.0,0.0
1664566145416,0.21289062,0.27246094,-0.21582031,103.5625,18.21875,69.75,0.0,0.0,0.0
1664566145435,0.20019531,0.50878906,-0.22460938,23.125,-27.78125,20.4375,0.0,0.0,0.0
1664566145475,0.17773438,0.26660156,-0.34570312,0.03125,-22.46875,-17.96875,0.0,0.0,0.0
1664566145515,-0.73828125,-0.19726562,-1.2792969,34.78125,25.625,-37.0,-54.0,-22.0,-152.875
1664566145556,-1.9414062,0.6591797,-0.8671875,-71.25,-15.40625,20.1875,0.0,0.0,0.0
1664566145595,-1.9414062,0.12890625,-0.39453125,-128.96875,-22.0,-15.6875,0.0,0.0,0.0
1664566145635,-1.9414062,-0.3095703,-0.16796875,-160.53125,-69.40625,3.78125,0.0,0.0,0.0
1664566145676,-0.7832031,-0.5078125,0.35058594,-162.78125,-66.40625,-5.6875,0.0,0.0,0.0
1664566145715,0.4013672,-0.12109375,0.01171875,-73.375,-1.53125,-5.875,0.0,0.0,0.0
1664566145755,0.6689453,-0.0078125,0.026367188,-25.59375,-30.90625,-55.75,0.0,0.0,0.0
1664566145795,-0.0029296875,-0.109375,-0.16796875,21.78125,4.4375,-47.125,0.0,0.0,0.0
1664566145836,-0.375,0.28320312,-0.21484375,66.875,-7.875,28.4375,0.0,0.0,0.0
1664566145875,-1.5566406,0.5908203,-0.39453125,166.84375,124.3125,108.625,0.0,0.0,0.0
1664566145915,-1.9414062,-0.4375,-1.7783203,-43.84375,-28.40625,25.1875,0.0,0.0,0.0
1664566145955,-1.8125,-0.29589844,0.057617188,127.96875,172.71875,-62.8125,0.0,0.0,0.0
1664566145995,-1.9414062,-0.33691406,-0.3173828,70.1875,83.25,-39.5625,-53.125,-21.125,-157.875
1664566146036,-0.5722656,0.21582031,-0.48242188,-3.0,-18.03125,4.375,0.0,0.0,0.0
1664566146076,0.3173828,0.3779297,-0.3935547,89.9375,-19.1875,58.46875,0.0,0.0,0.0
1664566146115,0.21484375,0.3515625,-0.3935547,89.15625,32.5625,48.5,0.0,0.0,0.0
1664566146176,0.4013672,0.46777344,-0.15625,-13.03125,-10.4375,16.71875,0.0,0.0,0.0
1664566146195,0.025390625,0.12109375,-0.609375,-42.3125,-51.15625,-17.40625,0.0,0.0,0.0
1664566146235,-1.8974609,-0.16699219,-1.0566406,64.6875,-78.03125,19.53125,0.0,0.0,0.0
1664566146275,-1.9414062,0.8769531,-0.45898438,-125.9375,6.28125,-8.6875,0.0,0.0,0.0
1664566146316,-1.9414062,-0.16113281,-0.38671875,-117.6875,-49.875,-11.5625,0.0,0.0,0.0
1664566146355,-1.9414062,-0.32910156,-0.3173828,-233.96875,-113.125,-20.59375,0.0,0.0,0.0
1664566146395,-0.1328125,-0.2861328,0.017578125,-37.84375,-6.5,36.0,0.0,0.0,0.0
1664566146436,0.7402344,0.11230469,0.018554688,-20.84375,7.5,7.5,0.0,0.0,0.0
1664566146475,0.51953125,-0.31933594,-0.38085938,39.71875,-41.875,-54.59375,0.0,0.0,0.0
1664566146515,-0.24121094,0.35742188,-0.11621094,44.71875,-5.875,-47.1875,-56.6875,-16.4375,-156.5
1664566146555,0.044921875,0.51464844,-0.46777344,55.15625,27.34375,53.21875,0.0,0.0,0.0
1664566146598,-1.9414062,0.25585938,-0.328125,48.25,59.875,164.28125,0.0,0.0,0.0
1664566146635,-1.9414062,-0.45703125,-0.36816406,30.125,-1.1875,-99.75,0.0,0.0,0.0
1664566146676,-1.9150391,-0.1484375,-0.69921875,182.34375,245.03125,-96.09375,0.0,0.0,0.0
1664566146716,-1.4169922,-0.30371094,-0.0625,44.78125,50.53125,-26.875,0.0,0.0,0.0
1664566146756,-0.6689453,0.12890625,-0.3955078,-4.40625,-55.625,22.9375,0.0,0.0,0.0
1664566146796,0.20800781,0.3466797,-0.4970703,76.59375,-0.375,63.03125,0.0,0.0,0.0
1664566146836,0.26757812,0.36621094,-0.17480469,30.5,-25.78125,32.09375,0.0,0.0,0.0
1664566146876,0.33007812,0.3828125,-0.14746094,0.84375,-39.9375,-11.125,0.0,0.0,0.0
1664566146936,-0.22265625,0.17578125,-0.27929688,-22.84375,-90.09375,-27.34375,0.0,0.0,0.0
1664566146955,-1.9414062,-0.20800781,-1.671875,78.65625,-29.8125,-15.9375,0.0,0.0,0.0
1664566146995,-1.8076172,0.4716797,-0.5625,-73.625,40.28125,31.125,-55.375,-23.375,-151.125
1664566147035,-1.9414062,0.24609375,-0.2861328,-75.625,-36.46875,9.9375,0.0,0.0,0.0
1664566147075,-1.5878906,-0.12109375,-0.08984375,-163.78125,-51.28125,8.96875,0.0,0.0,0.0
1664566147115,-0.30078125,-0.46777344,-0.16015625,-121.0,-21.1875,37.09375,0.0,0.0,0.0
1664566147155,0.7470703,-0.08691406,0.14453125,-75.03125,-49.15625,-5.21875,0.0,0.0,0.0
1664566147195,0.6748047,-0.18554688,-0.13769531,-9.84375,-43.59375,-87.65625,0.0,0.0,0.0
1664566147236,-0.3798828,0.20410156,-0.3154297,50.78125,22.03125,-16.3125,0.0,0.0,0.0
1664566147275,0.044921875,0.41015625,-0.70996094,95.3125,40.9375,48.15625,0.0,0.0,0.0
1664566147316,-1.9414062,0.11035156,-0.55371094,-11.3125,20.0625,131.625,0.0,0.0,0.0
1664566147356,-1.9414062,-0.578125,0.16894531,-28.03125,-10.625,-110.4375,0.0,0.0,0.0
1664566147395,-1.9414062,-0.2919922,-0.734375,175.21875,214.84375,-48.46875,0.0,0.0,0.0
1664566147435,-1.7138672,-0.22363281,-0.44433594,100.5,82.6875,-48.46875,0.0,0.0,0.0
1664566147476,-0.53222656,0.20507812,-0.3486328,10.71875,-36.8125,42.96875,0.0,0.0,0.0
1664566147516,0.19042969,0.42285156,-0.5,89.59375,-4.40625,72.1875,-53.375,-20.375,-156.8125
1664566147555,0.3671875,0.390625,-0.22070312,28.0,-31.8125,24.46875,0.0,0.0,0.0
1664566147596,0.29101562,0.36035156,-0.15136719,-5.5,-18.03125,-8.5625,0.0,0.0,0.0
1664566147635,0.109375,0.043945312,-0.97265625,-37.75,-43.90625,-52.3125,0.0,0.0,0.0
1664566147696,-1.9414062,-0.17089844,-0.70214844,27.21875,-112.9375,36.0,0.0,0.0,0.0
1664566147715,-1.5146484,0.22949219,-0.39941406,-136.78125,-17.46875,-18.8125,0.0,0.0,0.0
1664566147755,-1.9414062,-0.19140625,-0.33496094,-97.625,-43.78125,9.3125,0.0,0.0,0.0
1664566147797,-1.5644531,-0.07519531,-0.25,-107.4375,-66.1875,36.375,0.0,0.0,0.0
1664566147835,0.099609375,-0.09082031,0.01171875,-80.40625,-15.21875,-4.84375,0.0,0.0,0.0
1664566147875,0.703125,-0.036132812,0.22753906,-67.21875,-35.28125,-17.78125,0.0,0.0,0.0
1664566147915,0.7294922,-0.43847656,-0.23730469,8.03125,-20.03125,-73.75,0.0,0.0,0.0
1664566147955,-0.3466797,0.43554688,-0.31152344,57.0625,60.21875,-11.71875,0.0,0.0,0.0
1664566147996,0.15820312,0.36035156,-0.7685547,71.28125,93.75,45.875,-55.625,-19.9375,-157.125
1664566148035,-1.9414062,-0.01171875,-1.1269531,-6.59375,26.59375,104.59375,0.0,0.0,0.0
1664566148075,-1.9414062,-0.9746094,0.55566406,-15.40625,-67.65625,-121.78125,0.0,0.0,0.0
1664566148116,-1.9414062,-0.12207031,-0.70214844,150.9375,221.1875,-47.125,0.0,0.0,0.0
1664566148158,-1.4414062,-0.09863281,-0.13867188,28.0,24.65625,-33.21875,0.0,0.0,0.0
1664566148195,-0.73046875,0.051757812,-0.32421875,4.25,-70.21875,39.46875,0.0,0.0,0.0
1664566148235,0.2861328,0.21777344,-0.31347656,89.65625,-5.21875,68.90625,0.0,0.0,0.0
1664566148275,0.36328125,0.46679688,-0.20019531,25.125,-21.875,33.75,0.0,0.0,0.0
1664566148315,0.19335938,0.35058594,-0.15820312,2.0,-20.78125,-6.125,0.0,0.0,0.0
1664566148354,0.0029296875,0.0087890625,-1.0986328,-39.625,-18.8125,-44.6875,0.0,0.0,0.0
1664566148396,-1.9414062,-0.12109375,-1.0390625,7.375,-127.21875,44.40625,0.0,0.0,0.0
1664566148456,-1.5185547,0.2607422,-0.4921875,-115.1875,-3.1875,3.03125,0.0,0.0,0.0
1664566148474,-1.9414062,-0.14746094,-0.2939453,-109.875,-63.6875,2.65625,0.0,0.0,0.0
1664566148516,-1.5576172,-0.3310547,0.0107421875,-155.40625,-62.34375,-6.96875,-58.5,-18.875,-154.375
1664566148556,0.123046875,-0.18847656,-0.013671875,-95.96875,-7.59375,9.1875,0.0,0.0,0.0
1664566148596,0.6513672,0.03515625,0.16992188,-48.46875,-37.5625,-11.5625,0.0,0.0,0.0
1664566148635,0.62109375,-0.19042969,-0.05078125,-19.71875,-19.84375,-89.75,0.0,0.0,0.0
1664566148675,-0.37890625,0.27539062,-0.44140625,86.34375,53.09375,-7.03125,0.0,0.0,0.0
1664566148715,0.0087890625,0.5,-0.7392578,100.9375,89.34375,40.09375,0.0,0.0,0.0
1664566148756,-1.9414062,0.2529297,-1.4355469,-7.71875,16.59375,110.28125,0.0,0.0,0.0
1664566148796,-1.9414062,-1.2265625,0.5439453,-96.375,-70.875,-130.5625,0.0,0.0,0.0
1664566148836,-1.9414062,-0.34375,-0.7128906,163.875,237.59375,-27.25,0.0,0.0,0.0
1664566148875,-1.6083984,-0.36621094,-0.25195312,77.625,81.65625,-34.5,0.0,0.0,0.0
1664566148915,-0.7216797,0.17089844,-0.3984375,40.21875,-24.5625,48.5625,0.0,0.0,0.0
1664566148955,0.19921875,0.45996094,-0.5283203,78.96875,-21.3125,60.53125,0.0,0.0,0.0
1664566148996,0.2783203,0.36132812,-0.2890625,41.1875,-16.3125,39.78125,-55.375,-21.25,-154.875
1664566149035,0.3876953,0.34375,-0.10058594,-5.6875,-23.875,-4.40625,0.0,0.0,0.0
1664566149075,-0.04296875,0.14648438,-0.5332031,-19.3125,-54.15625,-22.40625,0.0,0.0,0.0
1664566149117,-1.8115234,-0.31054688,-1.1132812,71.8125,-60.625,-7.21875,0.0,0.0,0.0
1664566149156,-1.9414062,0.5546875,-0.7216797,-82.71875,26.34375,19.6875,0.0,0.0,0.0
1664566149357,-1.9414062,0.030273438,-0.29785156,-103.28125,-57.15625,-17.90625,0.0,0.0,0.0
1664566149361,-1.9414062,-0.203125,-0.11816406,14.5,93.3125,79.6875,0.0,0.0,0.0
1664566149363,-0.3984375,-0.42578125,-0.028320312,-107.4375,-8.875,7.75,0.0,0.0,0.0
1664566149366,0.6582031,-0.00390625,0.17382812,-72.03125,-16.625,-7.09375,0.0,0.0,0.0
1664566149368,0.5595703,-0.19628906,0.020507812,-5.21875,-70.28125,-86.375,0.0,0.0,0.0
1664566149395,-0.3173828,-0.043945312,-0.2734375,42.28125,32.28125,-59.9375,0.0,0.0,0.0
1664566149435,-0.25683594,0.24511719,-0.27441406,63.875,16.09375,15.78125,0.0,0.0,0.0
1664566149476,-1.9023438,0.66015625,-0.80078125,171.75,172.65625,133.84375,0.0,0.0,0.0
1664566149556,-1.9414062,-0.64941406,-0.88671875,-27.53125,-101.75,-28.40625,-58.5,-17.8125,-152.625
1664566149559,-1.6933594,-0.60546875,-0.375,178.21875,184.5,-48.84375,0.0,0.0,0.0
1664566149595,-1.9414062,-0.25976562,-0.31445312,74.15625,120.09375,-15.6875,0.0,0.0,0.0
1664566149676,-0.85058594,-0.16503906,-0.39746094,-5.03125,-38.15625,3.34375,0.0,0.0,0.0
1664566149679,-0.04296875,0.25195312,-0.47070312,99.34375,-42.0625,87.15625,0.0,0.0,0.0
1664566149796,0.40429688,0.3154297,-0.41210938,68.46875,18.125,67.1875,0.0,0.0,0.0
1664566149799,0.28222656,0.5605469,-0.18554688,20.0,-1.0625,15.84375,0.0,0.0,0.0
1664566149801,0.07128906,0.076171875,-0.3515625,-14.0625,-21.25,-22.0625,0.0,0.0,0.0
1664566149835,-1.4755859,-0.0859375,-1.3505859,49.90625,-12.71875,-37.1875,0.0,0.0,0.0
1664566149876,-1.9414062,0.9267578,-0.8261719,-128.0,12.5625,25.8125,0.0,0.0,0.0
1664566149916,-1.9414062,0.05859375,-0.45507812,-132.875,-25.09375,-46.53125,0.0,0.0,0.0
1664566149975,-1.9414062,0.064453125,-0.80078125,-244.28125,-104.3125,-36.15625,0.0,0.0,0.0
1664566149995,-0.3203125,-0.31933594,-0.22070312,-54.6875,2.78125,58.625,-58.375,-16.625,-154.5625
1664566150035,0.5136719,0.0107421875,0.05859375,-74.34375,-7.28125,-5.09375,0.0,0.0,0.0
1664566150075,0.6347656,-0.15234375,0.10058594,1.09375,-68.25,-57.8125,0.0,0.0,0.0
1664566150116,-0.04296875,-0.07324219,-0.20117188,20.5625,23.53125,-53.0,0.0,0.0,0.0
1664566150156,-0.43066406,0.40234375,-0.20703125,70.0,-12.15625,28.625,0.0,0.0,0.0
1664566150195,-1.6230469,0.7548828,-0.59472656,163.125,103.25,173.15625,0.0,0.0,0.0
1664566150235,-1.5566406,-0.42382812,-0.7998047,-48.71875,-81.1875,-36.9375,0.0,0.0,0.0
1664566150276,-1.9130859,-0.7294922,-0.1484375,140.5,196.59375,-72.53125,0.0,0.0,0.0
1664566150315,-1.9414062,-0.30859375,-0.1171875,58.8125,46.90625,-47.1875,0.0,0.0,0.0
1664566150357,-0.8261719,0.12988281,-0.49804688,17.0,18.0625,-16.125,0.0,0.0,0.0
1664566150395,-0.052734375,0.3544922,-0.3544922,66.15625,-28.46875,72.8125,0.0,0.0,0.0
1664566150435,0.12988281,0.26171875,-0.48828125,80.5,-4.53125,63.9375,0.0,0.0,0.0
1664566150475,0.39648438,0.5410156,-0.15136719,22.3125,-38.40625,19.03125,0.0,0.0,0.0
1664566150516,0.16601562,0.17578125,-0.1796875,6.6875,-11.125,-18.375,-57.875,-17.9375,-153.5
1664566150556,-0.6933594,-0.06640625,-1.3369141,40.375,67.1875,-76.84375,0.0,0.0,0.0
1664566150595,-1.9414062,-0.016601562,-0.43554688,-115.25,-168.71875,57.0,0.0,0.0,0.0
1664566150635,-1.7792969,0.10058594,-0.34960938,-75.28125,8.96875,-7.34375,0.0,0.0,0.0
1664566150675,-1.7695312,0.11425781,-1.0869141,-127.53125,-61.96875,7.75,0.0,0.0,0.0
1664566150736,-1.0097656,-0.3623047,0.12402344,-174.875,-118.0625,11.75,0.0,0.0,0.0
1664566150755,0.30664062,0.032226562,-0.083984375,-17.90625,48.75,-1.84375,0.0,0.0,0.0
1664566150795,0.74121094,-0.12890625,0.18945312,-31.21875,-59.28125,-32.0,0.0,0.0,0.0
1664566150835,0.16210938,-0.44433594,-0.23730469,9.3125,2.96875,-85.09375,0.0,0.0,0.0
1664566150877,-0.48632812,0.4013672,-0.3046875,65.0,34.78125,4.0625,0.0,0.0,0.0
1664566150916,-0.5341797,0.46972656,-0.86328125,107.59375,185.21875,71.15625,0.0,0.0,0.0
1664566150957,-1.9414062,-0.021484375,-1.7978516,-85.90625,-1.84375,67.0625,0.0,0.0,0.0
1664566150995,-1.9414062,-0.8515625,0.78027344,-15.15625,-59.40625,-116.90625,-58.375,-15.875,-155.3125
1664566151036,-1.9414062,-0.23632812,-0.4580078,106.84375,146.34375,-44.625,0.0,0.0,0.0
1664566151076,-1.3193359,0.083984375,-0.55566406,47.15625,55.09375,-0.5625,0.0,0.0,0.0
1664566151116,-0.13085938,0.3251953,-0.3544922,36.78125,-77.28125,53.21875,0.0,0.0,0.0
1664566151156,0.16113281,0.16894531,-0.3046875,61.09375,-0.9375,59.1875,0.0,0.0,0.0
1664566151195,0.18359375,0.44140625,-0.21679688,-14.59375,-15.34375,28.5,0.0,0.0,0.0
1664566151235,0.24511719,0.171875,-0.15136719,-34.1875,-39.25,-9.53125,0.0,0.0,0.0
1664566151277,0.026367188,-0.1328125,-1.0380859,-5.375,28.90625,-51.96875,0.0,0.0,0.0
1664566151315,-1.9414062,0.16894531,-1.2685547,61.03125,-132.9375,67.1875,0.0,0.0,0.0
1664566151355,-1.25,0.24414062,-0.7294922,-114.875,-17.53125,-5.625,0.0,0.0,0.0
1664566151395,-1.9414062,-0.2626953,-0.3828125,-166.75,-141.875,-30.03125,0.0,0.0,0.0
1664566151435,-1.4580078,-0.115234375,0.17871094,-126.90625,-59.65625,33.5,0.0,0.0,0.0
1664566151496,0.056640625,-0.23925781,-0.19042969,-80.28125,1.15625,7.5625,0.0,0.0,0.0
1664566151535,0.7402344,-0.21777344,0.33789062,-66.65625,-67.40625,-28.21875,-60.3125,-13.4375,-153.375
1664566151555,0.17773438,-0.36621094,-0.13964844,-35.40625,0.96875,-81.0625,0.0,0.0,0.0
1664566151595,-0.39648438,0.23242188,-0.2998047,70.3125,21.71875,-3.0625,0.0,0.0,0.0
1664566151635,0.1640625,0.3408203,-0.7314453,122.0625,62.1875,37.75,0.0,0.0,0.0
1664566151676,-1.9414062,0.23828125,-1.2285156,47.34375,31.46875,161.3125,0.0,0.0,0.0
1664566151715,-1.9414062,-0.8330078,0.0703125,-37.5,-123.6875,-94.125,0.0,0.0,0.0
1664566151755,-1.84375,-0.27246094,-0.87109375,170.21875,266.78125,-48.90625,0.0,0.0,0.0
1664566151795,-1.7929688,-0.18652344,-0.36523438,48.9375,85.6875,-40.0625,0.0,0.0,0.0
1664566151835,-0.63671875,0.18261719,-0.33398438,-0.875,-33.15625,33.1875,0.0,0.0,0.0
1664566151876,0.22753906,0.28710938,-0.47753906,80.25,-16.0625,74.75,0.0,0.0,0.0
1664566151916,0.18359375,0.3466797,-0.25,56.6875,-8.9375,39.15625,0.0,0.0,0.0
1664566151956,0.2421875,0.44726562,-0.17382812,-15.28125,-27.0625,4.875,0.0,0.0,0.0
1664566151996,0.20117188,-0.015625,-0.5263672,-32.4375,-48.40625,-36.9375,-57.75,-17.5,-153.625
1664566152035,-1.9414062,-0.20507812,-1.3320312,82.25,-67.21875,-16.9375,0.0,0.0,0.0
1664566152055,-1.8388672,0.5683594,-0.68359375,-93.875,25.0625,7.8125,0.0,0.0,0.0
1664566152095,-1.9052734,-0.25195312,-0.32421875,-93.9375,-59.40625,-0.5625,0.0,0.0,0.0
1664566152135,-1.8505859,-0.38671875,-0.095703125,-144.3125,-66.84375,22.375,0.0,0.0,0.0
1664566152175,-0.24707031,-0.36816406,-0.0625,-70.3125,-47.625,34.15625,0.0,0.0,0.0
1664566152215,0.546875,-0.0078125,0.02734375,-34.4375,-1.1875,-1.125,0.0,0.0,0.0
1664566152255,0.7861328,-0.013671875,-0.053710938,-5.9375,-31.8125,-64.65625,0.0,0.0,0.0
1664566152295,-0.13476562,0.140625,-0.1796875,36.78125,9.5,-29.625,0.0,0.0,0.0
1664566152356,-0.13867188,0.35058594,-0.3330078,53.5,36.3125,12.5625,0.0,0.0,0.0
1664566152397,-1.9414062,0.3798828,-0.58691406,123.8125,109.375,69.4375,0.0,0.0,0.0
1664566152415,-1.9414062,-1.1279297,-1.0810547,9.3125,-128.375,-16.1875,0.0,0.0,0.0
1664566152455,-1.5283203,-0.61621094,-0.51171875,158.0625,183.6875,-32.4375,0.0,0.0,0.0
1664566152516,-1.8417969,-0.3173828,-0.4560547,115.34375,110.65625,-21.4375,-57.125,-19.75,-154.875
1664566152535,-0.6845703,0.16503906,-0.4345703,-6.125,-65.4375,21.46875,0.0,0.0,0.0
1664566152575,0.032226562,0.33691406,-0.5488281,87.625,-1.65625,63.34375,0.0,0.0,0.0
1664566152615,0.21777344,0.28027344,-0.34179688,90.4375,50.34375,37.9375,0.0,0.0,0.0
1664566152656,0.29589844,0.5527344,-0.1796875,10.375,-16.4375,19.28125,0.0,0.0,0.0
1664566152695,-0.12109375,0.046875,-0.8925781,-13.25,30.1875,-30.09375,0.0,0.0,0.0
1664566152735,-1.9414062,-0.0546875,-0.8564453,-1.0625,-151.125,28.5625,0.0,0.0,0.0
1664566152776,-1.9042969,0.26171875,-0.5292969,-170.59375,-1.46875,-25.84375,0.0,0.0,0.0
1664566152815,-1.8964844,-0.5029297,-0.44921875,-138.875,-84.4375,-0.5625,0.0,0.0,0.0
1664566152856,-1.4824219,-0.15234375,-0.041015625,-109.625,-60.0,52.84375,0.0,0.0,0.0
1664566152896,-0.22460938,-0.0625,-0.109375,-76.96875,-41.8125,17.625,0.0,0.0,0.0
1664566152935,0.6904297,0.040039062,0.140625,-38.65625,-43.09375,5.34375,0.0,0.0,0.0
1664566153116,0.63671875,-0.15820312,-0.053710938,-33.78125,-29.25,-63.0625,-59.5625,-15.6875,-150.9375
1664566153120,-0.0234375,0.27441406,-0.3251953,43.4375,16.09375,-17.21875,0.0,0.0,0.0
1664566153122,0.18652344,0.12792969,-0.48632812,72.8125,2.96875,26.71875,0.0,0.0,0.0
1664566153124,-1.9414062,0.4267578,-0.6640625,53.09375,70.53125,74.15625,0.0,0.0,0.0
1664566153135,-1.9414062,-0.83984375,-0.29882812,-22.0,-149.78125,-50.75,0.0,0.0,0.0
1664566153174,-1.6464844,-0.46777344,-0.47558594,139.09375,226.78125,-63.25,0.0,0.0,0.0
1664566153216,-1.9414062,-0.40625,-0.4169922,98.0625,141.90625,-21.5625,0.0,0.0,0.0
1664566153258,-0.84472656,-0.0107421875,-0.38671875,-14.40625,1.5625,4.5625,0.0,0.0,0.0
1664566153295,-0.16015625,0.34472656,-0.23925781,40.09375,-35.78125,62.125,0.0,0.0,0.0
1664566153335,0.14257812,0.3251953,-0.42578125,55.09375,10.3125,50.59375,0.0,0.0,0.0
1664566153376,0.4921875,0.5859375,-0.19433594,11.34375,-5.8125,8.65625,0.0,0.0,0.0
1664566153415,0.083984375,0.140625,-0.16015625,-16.375,-45.5,-9.90625,0.0,0.0,0.0
1664566153456,-1.171875,-0.4345703,-1.1552734,80.1875,-3.625,-38.15625,0.0,0.0,0.0
1664566153516,-1.9414062,0.51953125,-1.0849609,-81.375,-3.25,62.4375,-58.375,-19.75,-150.375
1664566153535,-1.9414062,0.25,-0.39160156,-58.3125,3.28125,-12.59375,0.0,0.0,0.0
1664566153576,-1.7539062,-0.16992188,-0.20214844,-132.71875,-60.75,16.84375,0.0,0.0,0.0
1664566153615,-0.7705078,-0.42089844,0.0703125,-98.84375,-39.9375,3.90625,0.0,0.0,0.0
1664566153656,0.3388672,-0.07519531,-0.051757812,-57.28125,5.90625,-0.625,0.0,0.0,0.0
1664566153695,0.5957031,-0.23535156,0.07324219,-26.625,-62.5,-55.25,0.0,0.0,0.0
1664566153735,-0.13476562,0.091796875,-0.14648438,37.28125,3.9375,-50.375,0.0,0.0,0.0
1664566153775,-0.22460938,0.37695312,-0.14746094,72.4375,18.65625,20.3125,0.0,0.0,0.0
1664566153815,-0.81347656,0.6015625,-0.7705078,135.71875,226.0,64.25,0.0,0.0,0.0
1664566153855,-1.9414062,-0.2861328,-1.9482422,-120.9375,-42.9375,28.84375,0.0,0.0,0.0
1664566153895,-1.9414062,-0.7158203,0.54296875,23.3125,74.15625,-93.71875,0.0,0.0,0.0
1664566153936,-1.9414062,-0.18261719,-0.20703125,100.625,106.375,-25.84375,0.0,0.0,0.0
1664566153996,-1.1279297,-0.16796875,-0.5078125,-7.65625,-19.375,-5.25,-56.875,-17.6875,-156.625
1664566154015,-0.06738281,0.38085938,-0.40039062,51.0,-52.25,66.03125,0.0,0.0,0.0
1664566154055,0.11425781,0.34472656,-0.43945312,43.125,-6.96875,55.65625,0.0,0.0,0.0
1664566154096,0.39941406,0.45898438,-0.21972656,-3.5625,-6.0625,10.375,0.0,0.0,0.0
1664566154136,0.13867188,0.103515625,-0.10058594,-29.75,-43.46875,-28.09375,0.0,0.0,0.0
1664566154176,-0.90234375,-0.28320312,-1.1494141,76.8125,-9.71875,-35.21875,0.0,0.0,0.0
1664566154216,-1.9414062,0.32714844,-1.3027344,-51.96875,16.90625,32.40625,0.0,0.0,0.0
1664566154255,-1.9033203,0.36328125,-0.34472656,-94.875,-31.3125,-30.59375,0.0,0.0,0.0
1664566154295,-1.9414062,0.0068359375,-0.23632812,-197.59375,-93.15625,-12.15625,0.0,0.0,0.0
1664566154335,-0.4296875,-0.43066406,-0.21777344,-76.4375,-49.15625,51.625,0.0,0.0,0.0
1664566154375,0.39453125,-0.16210938,0.09277344,-57.5,7.5,-3.0625,0.0,0.0,0.0
1664566154415,0.48046875,0.051757812,-0.0703125,-4.21875,-61.71875,-46.34375,0.0,0.0,0.0
1664566154457,0.18261719,-0.22265625,-0.22265625,18.34375,-13.6875,-45.0625,0.0,0.0,0.0
1664566154535,-0.17871094,0.21191406,-0.12695312,83.0,18.78125,36.90625,-61.1875,-14.375,-150.0625
1664566154538,-1.9414062,0.7060547,-0.57421875,178.875,229.78125,119.75,0.0,0.0,0.0
1664566154576,-1.9414062,-0.03125,-1.7382812,-93.71875,-7.8125,-102.125,0.0,0.0,0.0
1664566154616,-1.7119141,-0.5390625,0.13769531,12.4375,87.3125,-113.78125,0.0,0.0,0.0
1664566154655,-1.6523438,-0.5878906,0.024414062,34.84375,81.40625,-23.625,0.0,0.0,0.0
1664566154695,-0.703125,0.078125,-0.4501953,20.0625,33.1875,27.5,0.0,0.0,0.0
1664566154736,0.2890625,0.3515625,-0.18359375,68.21875,-55.6875,83.0,0.0,0.0,0.0
1664566154775,-0.087890625,0.3154297,-0.33398438,41.96875,-8.3125,43.625,0.0,0.0,0.0
1664566154816,0.5390625,0.3798828,-0.16308594,-6.90625,-48.46875,-4.21875,0.0,0.0,0.0
1664566154856,0.0,0.15527344,-0.3046875,0.21875,-49.5,-29.0,0.0,0.0,0.0
1664566154896,-1.5458984,-0.022460938,-1.3486328,96.125,-6.4375,-21.875,0.0,0.0,0.0
1664566154936,-1.9414062,0.33691406,-1.1796875,-60.9375,34.15625,40.34375,0.0,0.0,0.0
1664566154995,-1.8564453,0.00390625,-0.34179688,-90.65625,-50.96875,-17.96875,-58.375,-15.5625,-150.8125
1664566155015,-1.7988281,-0.25097656,-0.029296875,-135.625,-58.65625,4.125,0.0,0.0,0.0
1664566155055,-0.37304688,-0.32226562,-0.11328125,-103.53125,-41.65625,41.71875,0.0,0.0,0.0
1664566155096,0.55371094,-0.07128906,0.17089844,-86.3125,-25.84375,-20.875,0.0,0.0,0.0
1664566155138,0.44140625,-0.14648438,-0.091796875,13.28125,-33.03125,-53.96875,0.0,0.0,0.0
1664566155176,-0.171875,-9.765625E-4,-0.19726562,33.25,18.65625,-47.5,0.0,0.0,0.0
1664566155216,-0.22851562,0.33691406,-0.27734375,78.90625,31.96875,47.71875,0.0,0.0,0.0
1664566155256,-1.5292969,0.61816406,-0.7285156,138.15625,112.84375,147.3125,0.0,0.0,0.0
1664566155296,-1.9414062,-0.5986328,-1.0361328,-41.8125,-80.09375,-47.3125,0.0,0.0,0.0
1664566155336,-1.6572266,-0.36621094,-0.31152344,112.78125,195.1875,-85.15625,0.0,0.0,0.0
1664566155376,-1.9296875,-0.45214844,-0.16601562,15.5,72.0,-49.46875,0.0,0.0,0.0
1664566155415,-0.78808594,0.12402344,-0.32226562,-33.40625,-43.40625,13.65625,0.0,0.0,0.0
1664566155458,0.36328125,0.24316406,-0.18066406,76.9375,-42.375,70.59375,0.0,0.0,0.0
1664566155516,0.2607422,0.23535156,-0.34960938,74.6875,14.8125,50.59375,-58.0625,-16.4375,-155.75
1664566155536,0.3935547,0.546875,-0.10449219,27.09375,-9.40625,11.28125,0.0,0.0,0.0
1664566155576,-0.111328125,0.32910156,-0.3876953,13.71875,-13.75,-14.0625,0.0,0.0,0.0
1664566155615,-1.3125,-0.2421875,-1.6289062,52.65625,13.0,-37.5625,0.0,0.0,0.0
1664566155656,-1.9414062,0.56640625,-0.56347656,-103.40625,23.84375,57.28125,0.0,0.0,0.0
1664566155695,-1.9414062,0.22167969,-0.35742188,-101.40625,-8.4375,-26.5625,0.0,0.0,0.0
1664566155735,-1.9365234,-0.10253906,-0.29785156,-204.1875,-80.8125,-14.40625,0.0,0.0,0.0
1664566155778,-0.50097656,-0.26464844,0.091796875,-133.25,-72.40625,17.0625,0.0,0.0,0.0
1664566155815,0.49316406,-0.041015625,0.020507812,-65.125,-10.6875,-26.25,0.0,0.0,0.0
1664566155856,0.5859375,-0.14746094,0.055664062,-2.75,-61.96875,-49.21875,0.0,0.0,0.0
1664566155895,0.021484375,-0.0029296875,-0.23535156,45.5625,22.4375,-53.1875,0.0,0.0,0.0
1664566155936,-0.35058594,0.3671875,-0.29589844,90.6875,17.375,39.84375,0.0,0.0,0.0
1664566155995,-1.6201172,0.44921875,-0.57421875,127.4375,146.71875,120.96875,-61.8125,-13.4375,-153.375
1664566156015,-1.8554688,-0.13476562,-1.4052734,-60.3125,-56.90625,-24.0625,0.0,0.0,0.0
1664566156056,-1.6699219,-0.47460938,0.0234375,100.15625,151.46875,-93.53125,0.0,0.0,0.0
1664566156095,-1.9414062,-0.57128906,0.026367188,10.59375,46.96875,-31.25,0.0,0.0,0.0
1664566156136,-0.7939453,-0.14257812,-0.37304688,16.53125,-0.625,21.28125,0.0,0.0,0.0
1664566156175,0.0068359375,0.35351562,-0.4814453,98.25,-22.53125,92.5625,0.0,0.0,0.0
1664566156216,0.10546875,0.48242188,-0.4111328,55.96875,7.5625,52.15625,0.0,0.0,0.0
1664566156256,0.30566406,0.4296875,-0.109375,-23.5625,-61.96875,-2.625,0.0,0.0,0.0
1664566156296,0.083984375,0.25878906,-0.20605469,-5.375,-57.5625,-30.40625,0.0,0.0,0.0
1664566156335,-0.99316406,-0.40039062,-1.6845703,64.0625,115.03125,-65.03125,0.0,0.0,0.0
1664566156378,-1.9414062,-0.06347656,-0.43164062,-186.0625,-62.09375,40.09375,0.0,0.0,0.0
1664566156416,-1.6943359,0.3232422,-0.21582031,-94.0,-2.46875,2.375,0.0,0.0,0.0
1664566156456,-1.6904297,-0.24609375,0.005859375,-264.40625,-125.25,-13.75,0.0,0.0,0.0
1664566156496,-0.5019531,-0.4873047,0.02734375,-41.46875,10.40625,52.84375,-63.75,-13.75,-151.125
1664566156536,0.57421875,-0.028320312,0.06542969,-45.65625,-1.0,-20.78125,0.0,0.0,0.0
1664566156575,0.56152344,-0.07519531,-0.032226562,-8.6875,-46.78125,-65.09375,0.0,0.0,0.0
1664566156616,-0.27246094,0.12109375,-0.17285156,53.21875,2.375,-39.4375,0.0,0.0,0.0
1664566156656,-0.28125,0.31445312,-0.74609375,89.28125,66.6875,57.78125,0.0,0.0,0.0
1664566156696,-1.9414062,-0.07714844,-0.6982422,31.71875,41.96875,136.09375,0.0,0.0,0.0
1664566156736,-1.9414062,-0.119140625,-0.01953125,49.46875,29.71875,-50.4375,0.0,0.0,0.0
1664566156776,-1.9414062,0.5517578,-0.765625,115.21875,195.65625,-56.09375,0.0,0.0,0.0
1664566156816,-1.5556641,-0.4189453,-0.24414062,0.84375,19.09375,-86.5,0.0,0.0,0.0
1664566156856,-0.41015625,0.15234375,-0.30273438,-25.09375,-61.46875,6.5,0.0,0.0,0.0
1664566156896,0.0234375,0.24511719,-0.515625,85.3125,-3.8125,58.59375,0.0,0.0,0.0
1664566156935,0.515625,0.3408203,-0.18945312,26.21875,-28.34375,44.53125,0.0,0.0,0.0
1664566156975,0.3173828,0.3125,-0.07519531,3.28125,-45.5,-5.21875,-59.25,-16.4375,-152.3125
1664566157015,0.068359375,0.06640625,-1.0390625,23.53125,9.375,-51.59375,0.0,0.0,0.0
1664566157056,-1.9414062,0.1171875,-0.8154297,-5.625,-79.25,12.875,0.0,0.0,0.0
1664566157096,-1.7011719,0.25585938,-0.3203125,-124.28125,-24.75,7.84375,0.0,0.0,0.0
1664566157137,-1.8164062,-0.13574219,-0.3876953,-186.59375,-117.9375,-39.625,0.0,0.0,0.0
1664566157176,-1.5126953,-0.64746094,0.4033203,-109.4375,-43.90625,61.9375,0.0,0.0,0.0
1664566157215,0.038085938,-0.08886719,-0.19726562,-28.8125,8.90625,8.59375,0.0,0.0,0.0
1664566157256,0.8417969,-0.16699219,0.3154297,-18.75,-47.5,-30.78125,0.0,0.0,0.0
1664566157296,0.171875,-0.16308594,-0.18066406,-24.90625,21.03125,-49.15625,0.0,0.0,0.0
1664566157336,-0.23730469,0.38671875,-0.26953125,70.84375,40.5625,0.53125,0.0,0.0,0.0
1664566157376,-0.9042969,0.53515625,-0.9091797,160.75,172.53125,82.25,0.0,0.0,0.0
1664566157416,-1.9414062,-0.3466797,-1.3378906,-81.8125,-50.0625,34.84375,0.0,0.0,0.0
1664566157456,-1.9345703,-0.59277344,0.6845703,2.84375,53.625,-115.125,0.0,0.0,0.0
1664566157516,-1.9414062,-0.28710938,-0.029296875,57.25,101.71875,-61.84375,-59.5625,-16.0,-155.125
1664566157535,-1.1386719,-0.3408203,-0.42773438,-32.0625,17.0,-17.65625,0.0,0.0,0.0
1664566157576,-0.047851562,0.14941406,-0.29296875,59.25,-46.9375,85.4375,0.0,0.0,0.0
1664566157615,0.04296875,0.390625,-0.50390625,107.71875,-4.65625,72.96875,0.0,0.0,0.0
1664566157655,0.5830078,0.6855469,-0.1875,27.875,-26.8125,15.0625,0.0,0.0,0.0
1664566157695,0.09277344,0.19824219,-0.22363281,5.40625,-12.34375,-34.1875,0.0,0.0,0.0
1664566157736,-1.0761719,-0.2890625,-1.2597656,76.78125,48.25,-71.625,0.0,0.0,0.0
1664566157776,-1.9414062,0.4169922,-1.1210938,-92.78125,-29.0625,68.96875,0.0,0.0,0.0
1664566157816,-1.9414062,-0.4580078,-0.5908203,-252.40625,-142.03125,-152.46875,0.0,0.0,0.0
1664566157856,-1.7880859,-0.26171875,-0.31445312,-50.5,0.84375,78.59375,0.0,0.0,0.0
1664566157896,-0.7285156,-0.37109375,0.0107421875,-107.375,-61.21875,41.3125,0.0,0.0,0.0
1664566157936,0.47265625,0.12988281,0.033203125,-43.90625,6.625,-11.5625,0.0,0.0,0.0
1664566157976,0.6796875,-0.032226562,0.09863281,-30.28125,-52.875,-50.84375,-60.3125,-14.9375,-152.3125
1664566158016,-0.11816406,-0.2705078,-0.28125,9.09375,-11.6875,-61.84375,0.0,0.0,0.0
1664566158056,-0.42578125,0.29589844,-0.20410156,62.1875,15.90625,24.46875,0.0,0.0,0.0
1664566158096,-1.5595703,0.34765625,-0.59277344,167.96875,162.21875,138.78125,0.0,0.0,0.0
1664566158136,-1.9365234,-0.34960938,-1.5068359,-53.1875,-21.25,-23.34375,0.0,0.0,0.0
1664566158175,-1.78125,-0.41992188,0.2841797,120.15625,117.53125,-92.53125,0.0,0.0,0.0
1664566158216,-1.9414062,-0.24414062,-0.47753906,45.625,92.75,-47.9375,0.0,0.0,0.0
1664566158256,-1.1982422,-0.08203125,-0.5029297,-24.78125,-7.875,1.375,0.0,0.0,0.0
1664566158295,-0.087890625,0.10644531,-0.296875,71.875,-36.6875,57.34375,0.0,0.0,0.0
1664566158335,0.21679688,0.29003906,-0.4716797,100.6875,30.1875,70.84375,0.0,0.0,0.0
1664566158375,0.5839844,0.44335938,-0.18066406,27.28125,-41.21875,23.59375,0.0,0.0,0.0
1664566158416,0.07128906,0.2109375,-0.28808594,50.8125,-19.0,-17.28125,0.0,0.0,0.0
1664566158455,-1.0771484,0.0546875,-1.2802734,47.71875,18.0,-51.90625,0.0,0.0,0.0
1664566158496,-1.9414062,0.61816406,-1.0976562,-108.15625,30.125,46.96875,-59.25,-20.6875,-150.625
1664566158535,-1.9414062,-0.111328125,-0.33691406,-86.5625,-39.75,-8.8125,0.0,0.0,0.0
1664566158576,-1.9414062,-0.4296875,0.16699219,-203.25,-47.3125,19.34375,0.0,0.0,0.0
1664566158616,-0.5644531,-0.40234375,-0.13378906,-72.34375,8.21875,57.34375,0.0,0.0,0.0
1664566158656,0.40527344,-0.0029296875,0.053710938,-44.3125,18.53125,7.96875,0.0,0.0,0.0
1664566158695,0.5966797,-0.024414062,0.052734375,-1.3125,-48.59375,-37.375,0.0,0.0,0.0
1664566158736,-0.12109375,-0.1796875,-0.26660156,14.28125,3.90625,-56.0,0.0,0.0,0.0
1664566158776,-0.2861328,0.45703125,-0.18554688,75.0,23.125,20.625,0.0,0.0,0.0
1664566158817,-1.3193359,0.6328125,-0.52246094,140.78125,166.5625,117.65625,0.0,0.0,0.0
1664566158858,-1.9414062,-0.2841797,-1.0693359,-88.8125,-72.46875,-65.75,0.0,0.0,0.0
1664566158895,-1.6142578,-0.9667969,0.13378906,81.84375,174.0,-109.15625,0.0,0.0,0.0
1664566158935,-1.9414062,-0.46191406,-0.27246094,59.375,59.96875,-23.40625,0.0,0.0,0.0
1664566158975,-0.8730469,-0.036132812,-0.50878906,-1.1875,-12.09375,3.40625,-55.9375,-21.4375,-156.8125
1664566159016,0.21972656,0.28027344,-0.36621094,79.21875,-30.90625,83.34375,0.0,0.0,0.0
1664566159056,-0.11328125,0.45214844,-0.40234375,59.6875,5.53125,66.34375,0.0,0.0,0.0
1664566159095,0.29882812,0.49121094,-0.25097656,5.84375,-25.15625,13.40625,0.0,0.0,0.0
1664566159138,0.21972656,0.19433594,-0.13476562,-15.9375,-60.1875,-35.34375,0.0,0.0,0.0
1664566159175,-1.0898438,-0.3408203,-1.5185547,94.84375,73.96875,-68.625,0.0,0.0,0.0
1664566159215,-1.9414062,0.4921875,-0.6230469,-128.0,-29.125,-0.125,0.0,0.0,0.0
1664566159256,-1.9160156,0.1796875,-0.39941406,-86.125,5.71875,3.53125,0.0,0.0,0.0
1664566159295,-1.8701172,-0.2421875,-0.14746094,-132.34375,-77.09375,35.09375,0.0,0.0,0.0
1664566159336,-0.6142578,-0.45214844,0.37597656,-164.25,-89.5625,-17.78125,0.0,0.0,0.0
1664566159378,0.6328125,0.10644531,0.09863281,-52.03125,-11.90625,-14.53125,0.0,0.0,0.0
1664566159416,0.68359375,-0.080078125,-0.076171875,32.875,-12.28125,-34.375,0.0,0.0,0.0
1664566159458,-0.25976562,0.07421875,-0.20605469,18.96875,-5.8125,-44.6875,0.0,0.0,0.0
1664566159495,-0.024414062,0.23632812,-0.38378906,80.6875,32.5625,38.9375,-60.625,-18.875,-149.875
1664566159535,-1.9414062,0.61035156,-0.37109375,90.3125,96.84375,116.5,0.0,0.0,0.0
1664566159576,-1.9414062,-0.5029297,-1.3251953,18.65625,-33.09375,-20.59375,0.0,0.0,0.0
1664566159616,-1.5634766,-0.12988281,-0.2783203,81.15625,201.34375,-60.8125,0.0,0.0,0.0
1664566159655,-1.9414062,-0.4091797,-0.12109375,38.625,99.34375,-41.28125,0.0,0.0,0.0
1664566159696,-0.5527344,-0.25195312,-0.2421875,4.0625,-17.21875,18.28125,0.0,0.0,0.0
1664566159736,0.28125,0.20800781,-0.390625,91.40625,-44.28125,69.0,0.0,0.0,0.0
1664566159775,0.12207031,0.47265625,-0.3984375,78.78125,25.6875,67.1875,0.0,0.0,0.0
1664566159816,0.3125,0.3984375,-0.22558594,-7.46875,-38.84375,15.1875,0.0,0.0,0.0
1664566159856,0.11230469,0.17382812,-0.20996094,7.3125,-37.5,-20.875,0.0,0.0,0.0
1664566159896,-0.62109375,-0.115234375,-1.1318359,54.3125,33.75,-54.53125,0.0,0.0,0.0
1664566159936,-1.9414062,0.14746094,-0.9951172,-79.25,-21.0,52.0,0.0,0.0,0.0
1664566159976,-1.5800781,0.14160156,-0.31152344,-78.625,-26.5625,-29.3125,-61.5,-22.3125,-148.375
1664566160016,-1.9414062,0.2939453,-0.9326172,-146.4375,-79.84375,24.71875,0.0,0.0,0.0
1664566160076,-1.0449219,-0.703125,0.32226562,-56.03125,-33.65625,73.84375,0.0,0.0,0.0
1664566160095,0.3486328,-0.34765625,-0.09082031,-56.71875,7.625,-2.75,0.0,0.0,0.0
1664566160135,0.5253906,0.061523438,0.25878906,-35.0625,-42.75,-82.96875,0.0,0.0,0.0
1664566160176,0.25195312,-0.29785156,-0.31152344,10.40625,7.5625,-61.0625,0.0,0.0,0.0
1664566160215,-0.2109375,0.3232422,-0.36035156,74.5,53.03125,-3.0,0.0,0.0,0.0
1664566160255,-1.1826172,0.7314453,-0.87597656,136.46875,176.875,94.40625,0.0,0.0,0.0
1664566160295,-1.9414062,0.08105469,-0.4013672,-104.03125,-103.78125,-8.1875,0.0,0.0,0.0
1664566160338,-1.9414062,-1.0927734,0.49121094,44.59375,118.34375,-108.21875,0.0,0.0,0.0
1664566160378,-1.9414062,-0.1640625,-0.4033203,150.1875,201.71875,8.90625,0.0,0.0,0.0
1664566160416,-1.0185547,0.0703125,-0.5751953,2.25,-13.0625,-18.625,0.0,0.0,0.0
1664566160455,-0.12890625,0.5234375,-0.24804688,22.1875,-73.6875,63.71875,0.0,0.0,0.0
1664566160496,0.27246094,0.171875,-0.32128906,33.84375,-17.78125,45.28125,-60.4375,-23.375,-152.125
1664566160536,0.2626953,0.3876953,-0.2109375,14.21875,-28.875,9.125,0.0,0.0,0.0
1664566160575,0.17675781,0.15722656,-0.14941406,6.21875,-15.625,-19.4375,0.0,0.0,0.0
1664566160616,-0.24707031,-0.09765625,-1.0078125,31.34375,4.1875,-40.71875,0.0,0.0,0.0
1664566160655,-1.9414062,-0.0859375,-0.6796875,-23.34375,-114.6875,71.625,0.0,0.0,0.0
1664566160696,-1.6054688,0.13476562,-0.34960938,-95.09375,-4.03125,-16.375,0.0,0.0,0.0
1664566160736,-1.9414062,-0.21484375,-0.06347656,-166.9375,-94.375,-38.03125,0.0,0.0,0.0
1664566160776,-1.1328125,-0.32421875,0.024414062,-105.96875,-43.40625,46.8125,0.0,0.0,0.0
1664566160814,0.26953125,-0.05859375,-0.107421875,-59.78125,-9.53125,5.21875,0.0,0.0,0.0
1664566160855,0.6748047,0.009765625,0.2734375,-56.28125,-57.09375,-46.34375,0.0,0.0,0.0
1664566160896,0.1328125,-0.5058594,-0.34472656,-25.34375,-2.15625,-86.1875,0.0,0.0,0.0
1664566160936,-0.36621094,0.35058594,-0.3203125,44.28125,38.625,-7.875,0.0,0.0,0.0
1664566160976,-1.0292969,0.53125,-0.8027344,118.625,164.78125,87.875,-61.9375,-19.75,-148.6875
1664566161016,-1.7207031,-0.15625,-0.69628906,-82.0,-79.65625,67.6875,0.0,0.0,0.0
1664566161055,-1.9414062,-0.7109375,0.6533203,2.3125,27.15625,-140.53125,0.0,0.0,0.0
1664566161095,-1.9414062,-0.12792969,-0.72558594,71.03125,182.0625,-35.34375,0.0,0.0,0.0
1664566161136,-1.1162109,-0.3173828,-0.21386719,16.78125,34.09375,1.21875,0.0,0.0,0.0
1664566161175,-0.7207031,-0.046875,-0.16894531,26.40625,-60.0,36.125,0.0,0.0,0.0
1664566161215,0.44140625,0.38964844,-0.45410156,123.8125,81.15625,92.6875,0.0,0.0,0.0
1664566161256,0.16894531,0.6953125,-0.18066406,46.3125,-23.34375,50.34375,0.0,0.0,0.0
1664566161296,0.29492188,0.27539062,-0.060546875,-26.25,-40.0625,-17.90625,0.0,0.0,0.0
1664566161336,0.020507812,-0.044921875,-0.89746094,-19.375,-22.59375,-57.28125,0.0,0.0,0.0
1664566161375,-1.9414062,-0.080078125,-0.9199219,-4.34375,-140.46875,22.375,0.0,0.0,0.0
1664566161416,-1.6162109,0.34765625,-0.51660156,-56.09375,19.03125,13.21875,0.0,0.0,0.0
1664566161455,-1.9414062,0.11816406,-0.3876953,-62.625,-52.9375,32.21875,0.0,0.0,0.0
1664566161496,-1.7041016,-0.12695312,-0.13769531,-153.8125,-80.875,4.0625,-63.125,-19.625,-145.6875
1664566161535,-0.5253906,-0.17480469,-0.2998047,-35.46875,-23.5,33.375,0.0,0.0,0.0
1664566161576,0.40722656,-0.016601562,0.1015625,-85.34375,-54.28125,-35.84375,0.0,0.0,0.0
1664566161618,0.57910156,0.037109375,-0.017578125,-36.6875,-46.65625,-64.53125,0.0,0.0,0.0
1664566161655,-0.055664062,-0.14941406,-0.2529297,22.75,2.5625,-40.71875,0.0,0.0,0.0
1664566161696,-0.01171875,0.25878906,-0.3251953,83.71875,41.5625,26.09375,0.0,0.0,0.0
1664566161736,-1.9414062,0.5488281,-0.5839844,164.46875,115.40625,141.78125,0.0,0.0,0.0
1664566161776,-1.9414062,-0.18945312,-0.8457031,-21.5625,-81.0,-71.71875,0.0,0.0,0.0
1664566161816,-1.8261719,-0.5136719,-0.123046875,87.15625,158.96875,-66.375,0.0,0.0,0.0
1664566161856,-1.9414062,-0.2861328,-0.234375,68.28125,120.53125,-45.0625,0.0,0.0,0.0
1664566161896,-0.92285156,0.01953125,-0.4892578,32.9375,28.375,-3.25,0.0,0.0,0.0
1664566161936,-0.26171875,0.31933594,-0.30371094,64.875,-48.71875,66.4375,0.0,0.0,0.0
1664566161976,0.28222656,0.328125,-0.30371094,39.65625,-1.0,54.4375,0.0,0.0,0.0
1664566162016,0.23046875,0.40429688,-0.24804688,-27.84375,-42.96875,7.5625,-63.75,-21.25,-149.3125
1664566162056,0.23828125,0.0146484375,-0.2734375,-8.8125,-20.9375,-18.15625,0.0,0.0,0.0
1664566162095,-0.97265625,-0.15429688,-0.9716797,77.5,-6.78125,-42.0625,0.0,0.0,0.0
1664566162136,-1.9414062,0.69628906,-1.2783203,-82.78125,-23.21875,28.3125,0.0,0.0,0.0
1664566162176,-1.8974609,-0.15332031,-0.33496094,-75.09375,-3.8125,-28.40625,0.0,0.0,0.0
1664566162216,-1.9414062,-0.29101562,-0.22070312,-97.78125,-44.375,32.9375,0.0,0.0,0.0
1664566162258,-0.7128906,-0.25878906,0.09765625,-70.9375,-54.6875,63.78125,0.0,0.0,0.0
1664566162296,0.35253906,0.03125,0.051757812,-62.03125,-16.6875,-9.90625,0.0,0.0,0.0
1664566162335,0.7871094,-0.07421875,0.21386719,-6.3125,-28.875,-31.5,0.0,0.0,0.0
1664566162376,-0.029296875,-0.25195312,-0.21582031,-14.78125,-7.65625,-77.78125,0.0,0.0,0.0
1664566162416,-0.49121094,0.2685547,-0.23144531,61.8125,21.78125,-2.875,0.0,0.0,0.0
1664566162456,-0.8359375,0.26660156,-1.0791016,191.34375,193.40625,97.40625,0.0,0.0,0.0
1664566162496,-1.9414062,0.29785156,-1.6640625,-141.9375,-70.75,45.8125,-64.0625,-21.25,-145.5625
1664566162538,-1.9414062,-1.0117188,0.7373047,-6.96875,-66.78125,-120.1875,0.0,0.0,0.0
1664566162576,-1.9414062,-0.015625,-0.45898438,105.875,188.21875,-55.25,0.0,0.0,0.0
1664566162616,-1.3398438,-0.072265625,-0.43359375,39.71875,65.28125,-7.09375,0.0,0.0,0.0
1664566162656,-0.62890625,0.19433594,-0.21289062,10.71875,-59.53125,13.09375,0.0,0.0,0.0
1664566162696,0.265625,0.34960938,-0.296875,17.375,-23.9375,34.65625,0.0,0.0,0.0
1664566162735,0.43554688,0.09667969,-0.2763672,31.1875,-0.1875,23.125,0.0,0.0,0.0
1664566162777,0.24804688,0.34277344,-0.18847656,11.59375,-8.625,6.34375,0.0,0.0,0.0
1664566162818,-0.18554688,0.19335938,-0.33789062,3.28125,-58.65625,-8.75,0.0,0.0,0.0
1664566162858,-1.9414062,-0.057617188,-1.5595703,70.40625,-22.0625,-44.625,0.0,0.0,0.0
1664566162895,-1.9414062,0.5498047,-0.52441406,-113.46875,15.3125,35.4375,0.0,0.0,0.0
1664566162935,-1.6425781,-0.2548828,-0.36816406,-69.09375,-70.375,-19.59375,0.0,0.0,0.0
1664566162975,-1.8496094,-0.33496094,-0.06933594,-93.09375,-22.0,-4.34375,0.0,0.0,0.0
1664566163015,-0.8955078,-0.20898438,0.064453125,-55.375,-34.8125,24.09375,-64.0625,-22.0,-142.375
1664566163056,-0.064453125,-0.08203125,-0.020507812,-82.28125,-35.15625,-20.9375,0.0,0.0,0.0
1664566163096,0.6357422,-0.028320312,0.068359375,-10.8125,-8.6875,-29.375,0.0,0.0,0.0
1664566163135,0.23144531,-0.076171875,-0.009765625,21.40625,1.8125,-18.75,0.0,0.0,0.0
1664566163175,-0.30078125,0.0703125,-0.140625,31.90625,-13.125,-13.03125,0.0,0.0,0.0
1664566163216,-0.060546875,0.32910156,-1.1523438,166.375,123.8125,21.71875,0.0,0.0,0.0
1664566163256,-1.9414062,-0.04296875,-0.86816406,-70.375,-102.8125,126.625,0.0,0.0,0.0
1664566163296,-0.96875,-0.8076172,0.07324219,-29.8125,-92.53125,-89.5625,0.0,0.0,0.0
1664566163336,-1.2998047,0.24121094,-0.3984375,99.65625,137.5,4.0625,0.0,0.0,0.0
1664566163375,-1.8134766,0.14453125,-0.84375,33.3125,96.3125,-15.21875,0.0,0.0,0.0
1664566163418,-0.8613281,-0.44140625,0.030273438,-6.1875,-11.84375,-43.09375,0.0,0.0,0.0
1664566163458,-0.6875,0.2890625,-0.24511719,47.40625,-4.96875,27.75,0.0,0.0,0.0
1664566163498,-0.1484375,0.13964844,-0.1640625,-24.5,-34.5,12.8125,-65.125,-24.125,-143.125
1664566163536,0.32226562,0.0146484375,-0.13085938,0.03125,5.71875,30.3125,0.0,0.0,0.0
1664566163575,0.12207031,0.22558594,-0.20996094,4.25,-17.21875,13.78125,0.0,0.0,0.0
1664566163616,-0.5253906,0.12890625,-0.71972656,-10.625,-1.34375,-30.84375,0.0,0.0,0.0
1664566163655,-1.9414062,0.033203125,-1.2060547,-7.34375,-67.28125,-80.59375,0.0,0.0,0.0
1664566163696,-1.7226562,0.15917969,-0.6171875,-89.6875,32.75,-19.125,0.0,0.0,0.0
1664566163736,-1.2705078,-0.07714844,-0.3486328,-55.3125,-14.34375,-5.03125,0.0,0.0,0.0
1664566163775,-1.3271484,-0.296875,-0.3310547,-68.4375,-49.5625,-18.4375,0.0,0.0,0.0
1664566163815,-0.97753906,-0.21875,-0.057617188,-16.8125,-27.1875,0.65625,0.0,0.0,0.0
1664566163856,-0.5654297,-0.005859375,-0.08496094,-6.125,-1.71875,21.03125,0.0,0.0,0.0
1664566163896,-0.36621094,0.00390625,-0.0078125,-12.21875,-11.90625,17.4375,0.0,0.0,0.0
1664566163936,-0.43066406,-0.0048828125,0.036132812,17.6875,-4.96875,-3.5625,0.0,0.0,0.0
1664566163976,-0.5859375,-0.018554688,-0.06933594,20.25,1.5625,-6.125,0.0,0.0,0.0
1664566164015,-0.72265625,0.009765625,-0.10058594,14.75,3.71875,-9.71875,-64.9375,-24.6875,-141.625
1664566164055,-0.9609375,0.046875,-0.059570312,-1.71875,2.0,-19.65625,0.0,0.0,0.0
1664566164098,-1.6044922,-0.23535156,-0.38964844,23.0,43.1875,1.15625,0.0,0.0,0.0
1664566164136,-1.4042969,-0.10546875,-0.5605469,11.53125,15.96875,55.03125,0.0,0.0,0.0
1664566164176,-0.70703125,-0.16015625,-0.36132812,17.5625,2.5625,15.96875,0.0,0.0,0.0
1664566164216,-1.0771484,-0.026367188,-0.39453125,53.4375,-2.53125,-11.84375,0.0,0.0,0.0
1664566164256,-0.8857422,0.15429688,-0.36035156,-1.59375,29.09375,-7.46875,0.0,0.0,0.0
1664566164296,-0.8027344,0.14453125,-0.4404297,-32.3125,37.21875,-1.71875,0.0,0.0,0.0
1664566164336,-0.83203125,-0.111328125,-0.30371094,-45.96875,8.78125,-15.6875,0.0,0.0,0.0
1664566164376,-0.9091797,-0.107421875,-0.31933594,-38.65625,24.9375,-12.96875,0.0,0.0,0.0
1664566164415,-0.89941406,-0.05859375,-0.31152344,-33.34375,17.6875,-9.84375,0.0,0.0,0.0
1664566164456,-0.9189453,-0.07910156,-0.27929688,-39.375,-0.9375,-0.125,0.0,0.0,0.0
1664566164496,-0.8720703,-0.18554688,-0.25585938,-41.75,-14.84375,-4.53125,-63.125,-25.75,-146.4375
1664566164536,-1.0136719,-0.25195312,-0.39941406,-1.1875,-7.28125,-8.25,0.0,0.0,0.0
1664566164576,-1.0175781,0.016601562,-0.3076172,2.5625,0.0,-4.59375,0.0,0.0,0.0
1664566164616,-0.85546875,0.025390625,-0.26953125,-15.875,-0.9375,-4.78125,0.0,0.0,0.0
1664566164655,-0.8359375,-0.08886719,-0.29589844,-18.09375,4.25,-4.78125,0.0,0.0,0.0
1664566164696,-0.85253906,-0.13769531,-0.32128906,-14.78125,8.59375,-4.65625,0.0,0.0,0.0
1664566164736,-0.9248047,-0.0703125,-0.30664062,1.3125,10.78125,-2.8125,0.0,0.0,0.0
1664566164776,-0.91308594,-0.083984375,-0.3173828,3.15625,9.3125,0.0,0.0,0.0,0.0
1664566164814,-0.9189453,-0.056640625,-0.3173828,4.4375,5.34375,5.0625,0.0,0.0,0.0
1664566164854,-0.9628906,-0.08886719,-0.2998047,5.65625,2.25,7.1875,0.0,0.0,0.0
1664566164894,-0.9404297,-0.06542969,-0.32910156,8.53125,4.3125,5.90625,0.0,0.0,0.0
