# Sensor type: Thingy
# Activity type: Standing
# Activity code: 100
# Subject id: s1800825
# Notes: 
timestamp,accel_x,accel_y,accel_z,gyro_x,gyro_y,gyro_z,mag_x,mag_y,mag_z
1664377819726,-1.0097656,0.076171875,-0.064453125,1.21875,-0.03125,-0.03125,0.0,0.0,0.0
1664377819728,-1.0097656,0.076171875,-0.064453125,1.21875,-0.03125,-0.03125,0.0,0.0,0.0
1664377819766,-1.0146484,0.083984375,-0.059570312,-0.3125,-0.03125,-0.09375,0.0,0.0,0.0
1664377819766,-1.0146484,0.083984375,-0.059570312,-0.3125,-0.03125,-0.09375,0.0,0.0,0.0
1664377819807,-1.0117188,0.06640625,-0.064453125,0.78125,0.125,-0.21875,0.0,0.0,0.0
1664377819807,-1.0117188,0.06640625,-0.064453125,0.78125,0.125,-0.21875,0.0,0.0,0.0
1664377819847,-1.0087891,0.07714844,-0.06933594,-0.3125,-0.21875,-0.15625,0.0,0.0,0.0
1664377819847,-1.0087891,0.07714844,-0.06933594,-0.3125,-0.21875,-0.15625,0.0,0.0,0.0
1664377819887,-1.0117188,0.080078125,-0.072265625,-0.4375,-0.09375,-0.34375,0.0,0.0,0.0
1664377819887,-1.0117188,0.080078125,-0.072265625,-0.4375,-0.09375,-0.34375,0.0,0.0,0.0
1664377819926,-1.0048828,0.076171875,-0.061523438,0.0625,0.4375,-0.34375,0.0,0.0,0.0
1664377819929,-1.0048828,0.076171875,-0.061523438,0.0625,0.4375,-0.34375,0.0,0.0,0.0
1664377819966,-1.0117188,0.076171875,-0.06347656,-0.875,-0.09375,-0.40625,0.0,0.0,0.0
1664377819966,-1.0117188,0.076171875,-0.06347656,-0.875,-0.09375,-0.40625,0.0,0.0,0.0
1664377820009,-1.0087891,0.08105469,-0.06738281,-0.3125,0.03125,-0.34375,0.0,0.0,0.0
1664377820009,-1.0087891,0.08105469,-0.06738281,-0.3125,0.03125,-0.34375,0.0,0.0,0.0
1664377820047,-1.0039062,0.068359375,-0.060546875,-0.5625,0.4375,-0.46875,0.0,0.0,0.0
1664377820049,-1.0039062,0.068359375,-0.060546875,-0.5625,0.4375,-0.46875,0.0,0.0,0.0
1664377820088,-1.0087891,0.07421875,-0.064453125,-0.0625,1.0625,-0.59375,0.0,0.0,0.0
1664377820090,-1.0087891,0.07421875,-0.064453125,-0.0625,1.0625,-0.59375,0.0,0.0,0.0
1664377820127,-1.0097656,0.0859375,-0.06640625,-1.09375,0.625,-0.53125,0.0,0.0,0.0
1664377820126,-1.0097656,0.0859375,-0.06640625,-1.09375,0.625,-0.53125,0.0,0.0,0.0
1664377820167,-1.0029297,0.06738281,-0.052734375,-0.3125,0.25,-0.34375,-65.5625,-9.125,-141.0625
1664377820167,-1.0029297,0.06738281,-0.052734375,-0.3125,0.25,-0.34375,-65.5625,-9.125,-141.0625
1664377820206,-1.0068359,0.07714844,-0.07519531,-0.75,-0.21875,-0.46875,0.0,0.0,0.0
1664377820207,-1.0068359,0.07714844,-0.07519531,-0.75,-0.21875,-0.46875,0.0,0.0,0.0
1664377820247,-1.0107422,0.078125,-0.051757812,0.40625,-0.46875,-0.09375,0.0,0.0,0.0
1664377820247,-1.0107422,0.078125,-0.051757812,0.40625,-0.46875,-0.09375,0.0,0.0,0.0
1664377820286,-1.0009766,0.083984375,-0.052734375,-1.09375,-0.09375,-0.09375,0.0,0.0,0.0
1664377820286,-1.0009766,0.083984375,-0.052734375,-1.09375,-0.09375,-0.09375,0.0,0.0,0.0
1664377820326,-1.0136719,0.07910156,-0.06347656,0.71875,0.125,0.15625,0.0,0.0,0.0
1664377820327,-1.0136719,0.07910156,-0.06347656,0.71875,0.125,0.15625,0.0,0.0,0.0
1664377820366,-1.0175781,0.07714844,-0.056640625,-1.78125,0.5,-0.15625,0.0,0.0,0.0
1664377820366,-1.0175781,0.07714844,-0.056640625,-1.78125,0.5,-0.15625,0.0,0.0,0.0
1664377820406,-1.0117188,0.06542969,-0.06738281,0.1875,0.3125,0.15625,0.0,0.0,0.0
1664377820406,-1.0117188,0.06542969,-0.06738281,0.1875,0.3125,0.15625,0.0,0.0,0.0
1664377820446,-1.0107422,0.07421875,-0.044921875,0.25,0.25,0.15625,0.0,0.0,0.0
1664377820446,-1.0107422,0.07421875,-0.044921875,0.25,0.25,0.15625,0.0,0.0,0.0
1664377820486,-1.0136719,0.068359375,-0.06542969,-0.4375,0.375,-0.34375,0.0,0.0,0.0
1664377820486,-1.0136719,0.068359375,-0.06542969,-0.4375,0.375,-0.34375,0.0,0.0,0.0
1664377820526,-1.0166016,0.078125,-0.0625,2.5625,-1.5625,0.1875,0.0,0.0,0.0
1664377820526,-1.0166016,0.078125,-0.0625,2.5625,-1.5625,0.1875,0.0,0.0,0.0
1664377820567,-1.0097656,0.06933594,-0.06933594,-0.125,-0.40625,-0.09375,0.0,0.0,0.0
1664377820567,-1.0097656,0.06933594,-0.06933594,-0.125,-0.40625,-0.09375,0.0,0.0,0.0
1664377820606,-1.0029297,0.07714844,-0.0703125,0.71875,0.03125,0.15625,0.0,0.0,0.0
1664377820606,-1.0029297,0.07714844,-0.0703125,0.71875,0.03125,0.15625,0.0,0.0,0.0
1664377820646,-1.0107422,0.07519531,-0.05859375,0.46875,0.1875,0.03125,-64.8125,-10.1875,-141.375
1664377820646,-1.0107422,0.07519531,-0.05859375,0.46875,0.1875,0.03125,-64.8125,-10.1875,-141.375
1664377820687,-1.0078125,0.07421875,-0.056640625,0.25,0.03125,-0.21875,0.0,0.0,0.0
1664377820687,-1.0078125,0.07421875,-0.056640625,0.25,0.03125,-0.21875,0.0,0.0,0.0
1664377820726,-1.0019531,0.083984375,-0.05859375,0.71875,-0.09375,-0.21875,0.0,0.0,0.0
1664377820726,-1.0019531,0.083984375,-0.05859375,0.71875,-0.09375,-0.21875,0.0,0.0,0.0
1664377820765,-1.0117188,0.06933594,-0.051757812,0.71875,0.25,-0.09375,0.0,0.0,0.0
1664377820766,-1.0117188,0.06933594,-0.051757812,0.71875,0.25,-0.09375,0.0,0.0,0.0
1664377820806,-1.0097656,0.072265625,-0.068359375,0.46875,-0.21875,0.09375,0.0,0.0,0.0
1664377820806,-1.0097656,0.072265625,-0.068359375,0.46875,-0.21875,0.09375,0.0,0.0,0.0
1664377820846,-1.0146484,0.06933594,-0.056640625,1.53125,-0.28125,0.09375,0.0,0.0,0.0
1664377820846,-1.0146484,0.06933594,-0.056640625,1.53125,-0.28125,0.09375,0.0,0.0,0.0
1664377820886,-1.0087891,0.07519531,-0.06542969,-0.6875,0.0625,-0.40625,0.0,0.0,0.0
1664377820886,-1.0087891,0.07519531,-0.06542969,-0.6875,0.0625,-0.40625,0.0,0.0,0.0
1664377820926,-1.0117188,0.07128906,-0.064453125,0.90625,0.1875,-0.15625,0.0,0.0,0.0
1664377820926,-1.0117188,0.07128906,-0.064453125,0.90625,0.1875,-0.15625,0.0,0.0,0.0
1664377820966,-1.0078125,0.07519531,-0.072265625,0.71875,0.375,-0.15625,0.0,0.0,0.0
1664377820966,-1.0078125,0.07519531,-0.072265625,0.71875,0.375,-0.15625,0.0,0.0,0.0
1664377821006,-1.0078125,0.07128906,-0.07714844,-0.1875,0.375,-0.15625,0.0,0.0,0.0
1664377821006,-1.0078125,0.07128906,-0.07714844,-0.1875,0.375,-0.15625,0.0,0.0,0.0
1664377821046,-1.0087891,0.07324219,-0.056640625,0.59375,0.625,0.03125,0.0,0.0,0.0
1664377821046,-1.0087891,0.07324219,-0.056640625,0.59375,0.625,0.03125,0.0,0.0,0.0
1664377821087,-1.0117188,0.07519531,-0.059570312,-0.375,0.125,-0.28125,0.0,0.0,0.0
1664377821087,-1.0117188,0.07519531,-0.059570312,-0.375,0.125,-0.28125,0.0,0.0,0.0
1664377821127,-1.0058594,0.080078125,-0.056640625,0.0625,0.0625,-0.21875,0.0,0.0,0.0
1664377821127,-1.0058594,0.080078125,-0.056640625,0.0625,0.0625,-0.21875,0.0,0.0,0.0
1664377821166,-1.0117188,0.07421875,-0.0703125,-0.25,0.4375,-0.21875,-64.9375,-10.0,-140.625
1664377821167,-1.0117188,0.07421875,-0.0703125,-0.25,0.4375,-0.21875,-64.9375,-10.0,-140.625
1664377821207,-1.0146484,0.06933594,-0.053710938,0.125,-0.09375,-0.09375,0.0,0.0,0.0
1664377821207,-1.0146484,0.06933594,-0.053710938,0.125,-0.09375,-0.09375,0.0,0.0,0.0
1664377821248,-0.9970703,0.076171875,-0.060546875,-0.8125,-0.15625,-0.15625,0.0,0.0,0.0
1664377821248,-0.9970703,0.076171875,-0.060546875,-0.8125,-0.15625,-0.15625,0.0,0.0,0.0
1664377821287,-1.0029297,0.072265625,-0.064453125,0.25,0.4375,-0.15625,0.0,0.0,0.0
1664377821287,-1.0029297,0.072265625,-0.064453125,0.25,0.4375,-0.15625,0.0,0.0,0.0
1664377821327,-1.015625,0.0703125,-0.05859375,0.3125,0.125,0.09375,0.0,0.0,0.0
1664377821327,-1.015625,0.0703125,-0.05859375,0.3125,0.125,0.09375,0.0,0.0,0.0
1664377821366,-1.0058594,0.07519531,-0.056640625,-0.125,-0.15625,-0.40625,0.0,0.0,0.0
1664377821366,-1.0058594,0.07519531,-0.056640625,-0.125,-0.15625,-0.40625,0.0,0.0,0.0
1664377821408,-1.0166016,0.072265625,-0.053710938,0.53125,0.25,0.1875,0.0,0.0,0.0
1664377821408,-1.0166016,0.072265625,-0.053710938,0.53125,0.25,0.1875,0.0,0.0,0.0
1664377821448,-1.0175781,0.07421875,-0.05859375,0.25,0.125,0.09375,0.0,0.0,0.0
1664377821447,-1.0175781,0.07421875,-0.05859375,0.25,0.125,0.09375,0.0,0.0,0.0
1664377821487,-1.0136719,0.078125,-0.060546875,0.71875,-0.21875,0.09375,0.0,0.0,0.0
1664377821487,-1.0136719,0.078125,-0.060546875,0.71875,-0.21875,0.09375,0.0,0.0,0.0
1664377821527,-0.9863281,0.06347656,-0.061523438,0.71875,0.03125,0.15625,0.0,0.0,0.0
1664377821528,-0.9863281,0.06347656,-0.061523438,0.71875,0.03125,0.15625,0.0,0.0,0.0
1664377821568,-1.0078125,0.078125,-0.060546875,0.125,0.125,0.03125,0.0,0.0,0.0
1664377821568,-1.0078125,0.078125,-0.060546875,0.125,0.125,0.03125,0.0,0.0,0.0
1664377821606,-1.0117188,0.07128906,-0.034179688,0.25,-0.40625,0.03125,0.0,0.0,0.0
1664377821606,-1.0117188,0.07128906,-0.034179688,0.25,-0.40625,0.03125,0.0,0.0,0.0
1664377821647,-1.0117188,0.07324219,-0.059570312,0.46875,-0.21875,-0.21875,-65.6875,-9.25,-140.875
1664377821647,-1.0117188,0.07324219,-0.059570312,0.46875,-0.21875,-0.21875,-65.6875,-9.25,-140.875
1664377821688,-1.0126953,0.08203125,-0.07128906,2.0625,0.3125,0.1875,0.0,0.0,0.0
1664377821688,-1.0126953,0.08203125,-0.07128906,2.0625,0.3125,0.1875,0.0,0.0,0.0
1664377821746,-1.0029297,0.07714844,-0.046875,0.40625,0.125,0.03125,0.0,0.0,0.0
1664377821746,-1.0029297,0.07714844,-0.046875,0.40625,0.125,0.03125,0.0,0.0,0.0
1664377821767,-1.0136719,0.07324219,-0.060546875,0.78125,0.03125,0.03125,0.0,0.0,0.0
1664377821767,-1.0136719,0.07324219,-0.060546875,0.78125,0.03125,0.03125,0.0,0.0,0.0
1664377821826,-1.0097656,0.06933594,-0.047851562,1.09375,-0.34375,-0.03125,0.0,0.0,0.0
1664377821826,-1.0097656,0.06933594,-0.047851562,1.09375,-0.34375,-0.03125,0.0,0.0,0.0
1664377821849,-1.0175781,0.07421875,-0.049804688,0.3125,0.1875,-0.15625,0.0,0.0,0.0
1664377821849,-1.0175781,0.07421875,-0.049804688,0.3125,0.1875,-0.15625,0.0,0.0,0.0
1664377821888,-1.0029297,0.07324219,-0.049804688,1.46875,-0.03125,0.03125,0.0,0.0,0.0
1664377821888,-1.0029297,0.07324219,-0.049804688,1.46875,-0.03125,0.03125,0.0,0.0,0.0
1664377821928,-1.0048828,0.07519531,-0.0546875,-0.1875,0.0625,-0.15625,0.0,0.0,0.0
1664377821930,-1.0048828,0.07519531,-0.0546875,-0.1875,0.0625,-0.15625,0.0,0.0,0.0
1664377821966,-1.0058594,0.07910156,-0.07421875,0.46875,0.25,-0.09375,0.0,0.0,0.0
1664377821966,-1.0058594,0.07910156,-0.07421875,0.46875,0.25,-0.09375,0.0,0.0,0.0
1664377822007,-1.0019531,0.07519531,-0.0546875,0.65625,0.1875,-0.15625,0.0,0.0,0.0
1664377822007,-1.0019531,0.07519531,-0.0546875,0.65625,0.1875,-0.15625,0.0,0.0,0.0
1664377822048,-0.99902344,0.07421875,-0.059570312,0.125,0.03125,-0.15625,0.0,0.0,0.0
1664377822048,-0.99902344,0.07421875,-0.059570312,0.125,0.03125,-0.15625,0.0,0.0,0.0
1664377822087,-1.0107422,0.07128906,-0.06640625,-0.0625,0.75,-0.21875,0.0,0.0,0.0
1664377822087,-1.0107422,0.07128906,-0.06640625,-0.0625,0.75,-0.21875,0.0,0.0,0.0
1664377822128,-1.0146484,0.08105469,-0.07421875,0.71875,0.3125,0.09375,0.0,0.0,0.0
1664377822128,-1.0146484,0.08105469,-0.07421875,0.71875,0.3125,0.09375,0.0,0.0,0.0
1664377822169,-1.0009766,0.07714844,-0.059570312,0.1875,0.0625,-0.03125,-64.9375,-8.5,-140.625
1664377822169,-1.0009766,0.07714844,-0.059570312,0.1875,0.0625,-0.03125,-64.9375,-8.5,-140.625
1664377822227,-1.0068359,0.07714844,-0.0625,-0.25,0.125,-0.21875,0.0,0.0,0.0
1664377822227,-1.0068359,0.07714844,-0.0625,-0.25,0.125,-0.21875,0.0,0.0,0.0
1664377822228,-1.0039062,0.0859375,-0.059570312,0.375,0.75,-0.40625,0.0,0.0,0.0
1664377822229,-1.0039062,0.0859375,-0.059570312,0.375,0.75,-0.40625,0.0,0.0,0.0
1664377822287,-1.0029297,0.068359375,-0.059570312,-0.5,-0.53125,-0.09375,0.0,0.0,0.0
1664377822287,-1.0029297,0.068359375,-0.059570312,-0.5,-0.53125,-0.09375,0.0,0.0,0.0
1664377822327,-1.0019531,0.08300781,-0.06347656,1.03125,0.5625,-0.21875,0.0,0.0,0.0
1664377822327,-1.0019531,0.08300781,-0.06347656,1.03125,0.5625,-0.21875,0.0,0.0,0.0
1664377822367,-1.0019531,0.080078125,-0.057617188,0.96875,0.5,-0.15625,0.0,0.0,0.0
1664377822367,-1.0019531,0.080078125,-0.057617188,0.96875,0.5,-0.15625,0.0,0.0,0.0
1664377822407,-1.0009766,0.06542969,-0.06738281,-0.8125,0.3125,-0.21875,0.0,0.0,0.0
1664377822407,-1.0009766,0.06542969,-0.06738281,-0.8125,0.3125,-0.21875,0.0,0.0,0.0
1664377822447,-1.0058594,0.07714844,-0.055664062,1.09375,0.0625,-0.03125,0.0,0.0,0.0
1664377822447,-1.0058594,0.07714844,-0.055664062,1.09375,0.0625,-0.03125,0.0,0.0,0.0
1664377822489,-1.0117188,0.07519531,-0.061523438,-0.75,0.03125,-0.28125,0.0,0.0,0.0
1664377822489,-1.0117188,0.07519531,-0.061523438,-0.75,0.03125,-0.28125,0.0,0.0,0.0
1664377822527,-1.0058594,0.087890625,-0.07519531,0.25,0.3125,-0.09375,0.0,0.0,0.0
1664377822527,-1.0058594,0.087890625,-0.07519531,0.25,0.3125,-0.09375,0.0,0.0,0.0
1664377822567,-1.0175781,0.07714844,-0.06933594,-0.1875,-0.15625,0.03125,0.0,0.0,0.0
1664377822567,-1.0175781,0.07714844,-0.06933594,-0.1875,-0.15625,0.03125,0.0,0.0,0.0
1664377822607,-1.0097656,0.076171875,-0.07324219,-0.25,0.125,-0.28125,0.0,0.0,0.0
1664377822607,-1.0097656,0.076171875,-0.07324219,-0.25,0.125,-0.28125,0.0,0.0,0.0
1664377822646,-1.0107422,0.076171875,-0.0625,0.125,0.25,-0.21875,-65.125,-8.375,-141.8125
1664377822646,-1.0107422,0.076171875,-0.0625,0.125,0.25,-0.21875,-65.125,-8.375,-141.8125
1664377822686,-1.0078125,0.07519531,-0.0546875,0.1875,0.375,-0.09375,0.0,0.0,0.0
1664377822686,-1.0078125,0.07519531,-0.0546875,0.1875,0.375,-0.09375,0.0,0.0,0.0
1664377822727,-1.0126953,0.07324219,-0.06640625,-0.375,0.5625,-0.15625,0.0,0.0,0.0
1664377822727,-1.0126953,0.07324219,-0.06640625,-0.375,0.5625,-0.15625,0.0,0.0,0.0
1664377822767,-1.0195312,0.072265625,-0.056640625,-0.0625,0.5625,-0.28125,0.0,0.0,0.0
1664377822767,-1.0195312,0.072265625,-0.056640625,-0.0625,0.5625,-0.28125,0.0,0.0,0.0
1664377822806,-1.0166016,0.080078125,-0.060546875,-0.90625,-0.03125,-0.09375,0.0,0.0,0.0
1664377822806,-1.0166016,0.080078125,-0.060546875,-0.90625,-0.03125,-0.09375,0.0,0.0,0.0
1664377822847,-1.0039062,0.07714844,-0.05859375,-0.0625,-0.03125,-0.21875,0.0,0.0,0.0
1664377822847,-1.0039062,0.07714844,-0.05859375,-0.0625,-0.03125,-0.21875,0.0,0.0,0.0
1664377822887,-1.0087891,0.08105469,-0.06347656,-1.09375,0.625,-0.15625,0.0,0.0,0.0
1664377822886,-1.0087891,0.08105469,-0.06347656,-1.09375,0.625,-0.15625,0.0,0.0,0.0
1664377822927,-1.0058594,0.08300781,-0.07324219,0.25,0.1875,-0.15625,0.0,0.0,0.0
1664377822931,-1.0058594,0.08300781,-0.07324219,0.25,0.1875,-0.15625,0.0,0.0,0.0
1664377822967,-1.0175781,0.06640625,-0.055664062,0.1875,-0.03125,-0.40625,0.0,0.0,0.0
1664377822967,-1.0175781,0.06640625,-0.055664062,0.1875,-0.03125,-0.40625,0.0,0.0,0.0
1664377823006,-1.0029297,0.07910156,-0.0546875,0.1875,0.03125,-0.15625,0.0,0.0,0.0
1664377823007,-1.0029297,0.07910156,-0.0546875,0.1875,0.03125,-0.15625,0.0,0.0,0.0
1664377823047,-1.0048828,0.07910156,-0.06640625,0.25,0.5,0.03125,0.0,0.0,0.0
1664377823050,-1.0048828,0.07910156,-0.06640625,0.25,0.5,0.03125,0.0,0.0,0.0
1664377823087,-1.0068359,0.07128906,-0.051757812,0.59375,0.1875,0.09375,0.0,0.0,0.0
1664377823088,-1.0068359,0.07128906,-0.051757812,0.59375,0.1875,0.09375,0.0,0.0,0.0
1664377823128,-1.0146484,0.061523438,-0.06738281,0.3125,0.375,-0.34375,0.0,0.0,0.0
1664377823127,-1.0146484,0.061523438,-0.06738281,0.3125,0.375,-0.34375,0.0,0.0,0.0
1664377823169,-1.0136719,0.07714844,-0.048828125,0.125,-0.09375,-0.21875,-66.0,-9.25,-140.625
1664377823169,-1.0136719,0.07714844,-0.048828125,0.125,-0.09375,-0.21875,-66.0,-9.25,-140.625
1664377823207,-1.0146484,0.072265625,-0.05859375,0.125,-0.09375,-0.15625,0.0,0.0,0.0
1664377823207,-1.0146484,0.072265625,-0.05859375,0.125,-0.09375,-0.15625,0.0,0.0,0.0
1664377823227,-1.0166016,0.078125,-0.064453125,-0.6875,0.25,-0.21875,0.0,0.0,0.0
1664377823227,-1.0166016,0.078125,-0.064453125,-0.6875,0.25,-0.21875,0.0,0.0,0.0
1664377823288,-1.0058594,0.076171875,-0.07519531,0.375,0.25,-0.40625,0.0,0.0,0.0
1664377823288,-1.0058594,0.076171875,-0.07519531,0.375,0.25,-0.40625,0.0,0.0,0.0
1664377823327,-1.0029297,0.08105469,-0.064453125,-0.1875,-0.40625,-0.09375,0.0,0.0,0.0
1664377823327,-1.0029297,0.08105469,-0.064453125,-0.1875,-0.40625,-0.09375,0.0,0.0,0.0
1664377823367,-1.0029297,0.08203125,-0.07421875,0.0,0.375,-0.03125,0.0,0.0,0.0
1664377823367,-1.0029297,0.08203125,-0.07421875,0.0,0.375,-0.03125,0.0,0.0,0.0
1664377823409,-1.0078125,0.07519531,-0.056640625,0.25,0.125,-0.15625,0.0,0.0,0.0
1664377823409,-1.0078125,0.07519531,-0.056640625,0.25,0.125,-0.15625,0.0,0.0,0.0
1664377823447,-1.0048828,0.076171875,-0.064453125,-0.90625,-0.03125,-0.15625,0.0,0.0,0.0
1664377823447,-1.0048828,0.076171875,-0.064453125,-0.90625,-0.03125,-0.15625,0.0,0.0,0.0
1664377823487,-1.0126953,0.076171875,-0.056640625,0.96875,0.1875,0.1875,0.0,0.0,0.0
1664377823487,-1.0126953,0.076171875,-0.056640625,0.96875,0.1875,0.1875,0.0,0.0,0.0
1664377823527,-1.0068359,0.078125,-0.0625,-1.09375,-0.15625,-0.21875,0.0,0.0,0.0
1664377823527,-1.0068359,0.078125,-0.0625,-1.09375,-0.15625,-0.21875,0.0,0.0,0.0
1664377823567,-1.0117188,0.072265625,-0.049804688,0.1875,-0.03125,-0.15625,0.0,0.0,0.0
1664377823567,-1.0117188,0.072265625,-0.049804688,0.1875,-0.03125,-0.15625,0.0,0.0,0.0
1664377823607,-1.0205078,0.06738281,-0.068359375,-0.4375,-0.21875,-0.34375,0.0,0.0,0.0
1664377823607,-1.0205078,0.06738281,-0.068359375,-0.4375,-0.21875,-0.34375,0.0,0.0,0.0
1664377823648,-1.0039062,0.07324219,-0.057617188,0.375,-0.09375,-0.09375,-66.4375,-8.1875,-142.25
1664377823647,-1.0039062,0.07324219,-0.057617188,0.375,-0.09375,-0.09375,-66.4375,-8.1875,-142.25
1664377823686,-1.0048828,0.08105469,-0.056640625,0.375,0.625,0.09375,0.0,0.0,0.0
1664377823687,-1.0048828,0.08105469,-0.056640625,0.375,0.625,0.09375,0.0,0.0,0.0
1664377823727,-1.0126953,0.07128906,-0.06738281,0.1875,0.1875,0.09375,0.0,0.0,0.0
1664377823727,-1.0126953,0.07128906,-0.06738281,0.1875,0.1875,0.09375,0.0,0.0,0.0
1664377823767,-1.0097656,0.07421875,-0.061523438,0.90625,0.5,-0.21875,0.0,0.0,0.0
1664377823771,-1.0097656,0.07421875,-0.061523438,0.90625,0.5,-0.21875,0.0,0.0,0.0
1664377823807,-1.0126953,0.07714844,-0.061523438,0.53125,0.0625,-0.09375,0.0,0.0,0.0
1664377823809,-1.0126953,0.07714844,-0.061523438,0.53125,0.0625,-0.09375,0.0,0.0,0.0
1664377823828,-1.0117188,0.0703125,-0.061523438,0.375,-0.03125,-0.03125,0.0,0.0,0.0
1664377823828,-1.0117188,0.0703125,-0.061523438,0.375,-0.03125,-0.03125,0.0,0.0,0.0
1664377823888,-1.0117188,0.06542969,-0.064453125,0.1875,-0.15625,-0.09375,0.0,0.0,0.0
1664377823889,-1.0117188,0.06542969,-0.064453125,0.1875,-0.15625,-0.09375,0.0,0.0,0.0
1664377823907,-1.0087891,0.072265625,-0.0546875,1.59375,0.5,-0.34375,0.0,0.0,0.0
1664377823907,-1.0087891,0.072265625,-0.0546875,1.59375,0.5,-0.34375,0.0,0.0,0.0
1664377823950,-1.0058594,0.07324219,-0.059570312,-0.1875,0.25,-0.21875,0.0,0.0,0.0
1664377823951,-1.0058594,0.07324219,-0.059570312,-0.1875,0.25,-0.21875,0.0,0.0,0.0
1664377823987,-1.0097656,0.07519531,-0.07519531,0.3125,0.25,-0.03125,0.0,0.0,0.0
1664377823987,-1.0097656,0.07519531,-0.07519531,0.3125,0.25,-0.03125,0.0,0.0,0.0
1664377824027,-1.0097656,0.07519531,-0.052734375,0.96875,0.375,0.09375,0.0,0.0,0.0
1664377824027,-1.0097656,0.07519531,-0.052734375,0.96875,0.375,0.09375,0.0,0.0,0.0
1664377824087,-1.0214844,0.06738281,-0.07519531,-0.25,0.5625,-0.15625,0.0,0.0,0.0
1664377824087,-1.0214844,0.06738281,-0.07519531,-0.25,0.5625,-0.15625,0.0,0.0,0.0
1664377824106,-1.0068359,0.080078125,-0.060546875,0.90625,-0.09375,0.15625,0.0,0.0,0.0
1664377824106,-1.0068359,0.080078125,-0.060546875,0.90625,-0.09375,0.15625,0.0,0.0,0.0
1664377824167,-0.99902344,0.0625,-0.06738281,0.25,-0.03125,0.25,-63.875,-10.0,-140.625
1664377824167,-0.99902344,0.0625,-0.06738281,0.25,-0.03125,0.25,-63.875,-10.0,-140.625
1664377824187,-1.0214844,0.08496094,-0.057617188,-0.125,0.625,-0.09375,0.0,0.0,0.0
1664377824188,-1.0214844,0.08496094,-0.057617188,-0.125,0.625,-0.09375,0.0,0.0,0.0
1664377824228,-1.0166016,0.072265625,-0.06640625,-0.3125,-0.09375,0.03125,0.0,0.0,0.0
1664377824228,-1.0166016,0.072265625,-0.06640625,-0.3125,-0.09375,0.03125,0.0,0.0,0.0
1664377824268,-0.9980469,0.078125,-0.06640625,0.3125,0.375,0.03125,0.0,0.0,0.0
1664377824267,-0.9980469,0.078125,-0.06640625,0.3125,0.375,0.03125,0.0,0.0,0.0
1664377824306,-1.0107422,0.08886719,-0.060546875,0.1875,0.4375,0.1875,0.0,0.0,0.0
1664377824307,-1.0107422,0.08886719,-0.060546875,0.1875,0.4375,0.1875,0.0,0.0,0.0
1664377824348,-1.0195312,0.0703125,-0.0546875,-0.75,0.375,0.15625,0.0,0.0,0.0
1664377824348,-1.0195312,0.0703125,-0.0546875,-0.75,0.375,0.15625,0.0,0.0,0.0
1664377824387,-1.0136719,0.080078125,-0.07128906,0.3125,0.5,0.09375,0.0,0.0,0.0
1664377824387,-1.0136719,0.080078125,-0.07128906,0.3125,0.5,0.09375,0.0,0.0,0.0
1664377824427,-1.0009766,0.07519531,-0.056640625,0.84375,0.3125,0.15625,0.0,0.0,0.0
1664377824429,-1.0009766,0.07519531,-0.056640625,0.84375,0.3125,0.15625,0.0,0.0,0.0
1664377824467,-1.0107422,0.07519531,-0.068359375,-0.25,0.125,0.03125,0.0,0.0,0.0
1664377824467,-1.0107422,0.07519531,-0.068359375,-0.25,0.125,0.03125,0.0,0.0,0.0
1664377824507,-1.0126953,0.07714844,-0.078125,0.0625,-0.03125,0.03125,0.0,0.0,0.0
1664377824507,-1.0126953,0.07714844,-0.078125,0.0625,-0.03125,0.03125,0.0,0.0,0.0
1664377824547,-1.0058594,0.07714844,-0.06738281,0.96875,0.3125,0.25,0.0,0.0,0.0
1664377824547,-1.0058594,0.07714844,-0.06738281,0.96875,0.3125,0.25,0.0,0.0,0.0
1664377824588,-1.0136719,0.08691406,-0.064453125,0.65625,0.1875,0.15625,0.0,0.0,0.0
1664377824589,-1.0136719,0.08691406,-0.064453125,0.65625,0.1875,0.15625,0.0,0.0,0.0
1664377824646,-1.0,0.08300781,-0.0546875,0.1875,0.5,-0.09375,-65.875,-9.6875,-140.75
1664377824646,-1.0,0.08300781,-0.0546875,0.1875,0.5,-0.09375,-65.875,-9.6875,-140.75
1664377824666,-1.0117188,0.07910156,-0.06738281,1.15625,0.1875,0.03125,0.0,0.0,0.0
1664377824666,-1.0117188,0.07910156,-0.06738281,1.15625,0.1875,0.03125,0.0,0.0,0.0
1664377824707,-1.0117188,0.07910156,-0.06640625,0.25,0.9375,-0.28125,0.0,0.0,0.0
1664377824707,-1.0117188,0.07910156,-0.06640625,0.25,0.9375,-0.28125,0.0,0.0,0.0
1664377824747,-1.0029297,0.08691406,-0.055664062,-0.1875,-0.03125,-0.09375,0.0,0.0,0.0
1664377824747,-1.0029297,0.08691406,-0.055664062,-0.1875,-0.03125,-0.09375,0.0,0.0,0.0
1664377824807,-1.0058594,0.07519531,-0.06347656,0.78125,0.4375,0.15625,0.0,0.0,0.0
1664377824807,-1.0058594,0.07519531,-0.06347656,0.78125,0.4375,0.15625,0.0,0.0,0.0
1664377824848,-1.0009766,0.07421875,-0.05859375,-0.125,0.875,-0.28125,0.0,0.0,0.0
1664377824848,-1.0009766,0.07421875,-0.05859375,-0.125,0.875,-0.28125,0.0,0.0,0.0
1664377824867,-1.0058594,0.07910156,-0.061523438,0.78125,0.4375,0.03125,0.0,0.0,0.0
1664377824867,-1.0058594,0.07910156,-0.061523438,0.78125,0.4375,0.03125,0.0,0.0,0.0
1664377824908,-1.0117188,0.07910156,-0.07714844,-0.125,0.5,-0.34375,0.0,0.0,0.0
1664377824907,-1.0117188,0.07910156,-0.07714844,-0.125,0.5,-0.34375,0.0,0.0,0.0
1664377824946,-1.0009766,0.087890625,-0.064453125,1.46875,0.1875,0.03125,0.0,0.0,0.0
1664377824947,-1.0009766,0.087890625,-0.064453125,1.46875,0.1875,0.03125,0.0,0.0,0.0
1664377824988,-1.0107422,0.0703125,-0.09277344,0.53125,0.875,-0.09375,0.0,0.0,0.0
1664377824988,-1.0107422,0.0703125,-0.09277344,0.53125,0.875,-0.09375,0.0,0.0,0.0
1664377825027,-1.0146484,0.068359375,-0.0625,1.8125,0.6875,0.03125,0.0,0.0,0.0
1664377825027,-1.0146484,0.068359375,-0.0625,1.8125,0.6875,0.03125,0.0,0.0,0.0
1664377825068,-0.99902344,0.08300781,-0.07910156,0.53125,0.8125,-0.21875,0.0,0.0,0.0
1664377825067,-0.99902344,0.08300781,-0.07910156,0.53125,0.8125,-0.21875,0.0,0.0,0.0
1664377825107,-1.0097656,0.072265625,-0.06738281,0.78125,0.6875,-0.09375,0.0,0.0,0.0
1664377825107,-1.0097656,0.072265625,-0.06738281,0.78125,0.6875,-0.09375,0.0,0.0,0.0
1664377825167,-1.0009766,0.076171875,-0.064453125,1.21875,0.625,-0.15625,-65.375,-8.5,-142.25
1664377825167,-1.0009766,0.076171875,-0.064453125,1.21875,0.625,-0.15625,-65.375,-8.5,-142.25
1664377825187,-1.0126953,0.078125,-0.078125,0.46875,0.625,-0.09375,0.0,0.0,0.0
1664377825187,-1.0126953,0.078125,-0.078125,0.46875,0.625,-0.09375,0.0,0.0,0.0
1664377825228,-1.0126953,0.072265625,-0.083984375,-0.125,0.6875,-0.21875,0.0,0.0,0.0
1664377825228,-1.0126953,0.072265625,-0.083984375,-0.125,0.6875,-0.21875,0.0,0.0,0.0
1664377825266,-1.0078125,0.07910156,-0.07519531,1.34375,0.6875,0.03125,0.0,0.0,0.0
1664377825266,-1.0078125,0.07910156,-0.07519531,1.34375,0.6875,0.03125,0.0,0.0,0.0
1664377825307,-1.0166016,0.07324219,-0.05859375,0.1875,0.6875,-0.21875,0.0,0.0,0.0
1664377825307,-1.0166016,0.07324219,-0.05859375,0.1875,0.6875,-0.21875,0.0,0.0,0.0
1664377825347,-1.0097656,0.07910156,-0.08300781,0.0,1.3125,-0.21875,0.0,0.0,0.0
1664377825347,-1.0097656,0.07910156,-0.08300781,0.0,1.3125,-0.21875,0.0,0.0,0.0
1664377825387,-1.0087891,0.08496094,-0.06640625,0.1875,0.1875,0.03125,0.0,0.0,0.0
1664377825387,-1.0087891,0.08496094,-0.06640625,0.1875,0.1875,0.03125,0.0,0.0,0.0
1664377825426,-1.015625,0.076171875,-0.07714844,0.40625,0.5625,0.09375,0.0,0.0,0.0
1664377825426,-1.015625,0.076171875,-0.07714844,0.40625,0.5625,0.09375,0.0,0.0,0.0
1664377825467,-1.0078125,0.08105469,-0.06640625,-1.21875,1.0625,-0.34375,0.0,0.0,0.0
1664377825467,-1.0078125,0.08105469,-0.06640625,-1.21875,1.0625,-0.34375,0.0,0.0,0.0
1664377825507,-1.0136719,0.08105469,-0.0703125,0.375,0.5625,-0.09375,0.0,0.0,0.0
1664377825506,-1.0136719,0.08105469,-0.0703125,0.375,0.5625,-0.09375,0.0,0.0,0.0
1664377825547,-1.0117188,0.08300781,-0.059570312,-0.25,0.125,-0.09375,0.0,0.0,0.0
1664377825547,-1.0117188,0.08300781,-0.059570312,-0.25,0.125,-0.09375,0.0,0.0,0.0
1664377825608,-1.0048828,0.07519531,-0.07519531,0.46875,0.375,-0.09375,0.0,0.0,0.0
1664377825608,-1.0048828,0.07519531,-0.07519531,0.46875,0.375,-0.09375,0.0,0.0,0.0
1664377825647,-1.0117188,0.07324219,-0.08496094,0.3125,0.5625,-0.15625,-66.4375,-10.0,-140.125
1664377825647,-1.0117188,0.07324219,-0.08496094,0.3125,0.5625,-0.15625,-66.4375,-10.0,-140.125
1664377825667,-1.0117188,0.07324219,-0.072265625,0.53125,0.375,0.15625,0.0,0.0,0.0
1664377825667,-1.0117188,0.07324219,-0.072265625,0.53125,0.375,0.15625,0.0,0.0,0.0
1664377825707,-1.0048828,0.072265625,-0.07714844,0.25,0.5,-0.15625,0.0,0.0,0.0
1664377825707,-1.0048828,0.072265625,-0.07714844,0.25,0.5,-0.15625,0.0,0.0,0.0
1664377825748,-1.0068359,0.08105469,-0.07519531,0.40625,0.1875,-0.09375,0.0,0.0,0.0
1664377825748,-1.0068359,0.08105469,-0.07519531,0.40625,0.1875,-0.09375,0.0,0.0,0.0
1664377825788,-1.0107422,0.07910156,-0.07714844,0.40625,0.375,-0.09375,0.0,0.0,0.0
1664377825788,-1.0107422,0.07910156,-0.07714844,0.40625,0.375,-0.09375,0.0,0.0,0.0
1664377825830,-1.0117188,0.08105469,-0.07324219,0.40625,0.03125,-0.09375,0.0,0.0,0.0
1664377825830,-1.0117188,0.08105469,-0.07324219,0.40625,0.03125,-0.09375,0.0,0.0,0.0
1664377825907,-1.0058594,0.08105469,-0.078125,0.1875,0.625,-0.15625,0.0,0.0,0.0
1664377825907,-1.0058594,0.08105469,-0.078125,0.1875,0.625,-0.15625,0.0,0.0,0.0
1664377825926,-1.0146484,0.07910156,-0.080078125,0.3125,0.375,-0.09375,0.0,0.0,0.0
1664377825926,-1.0146484,0.07910156,-0.080078125,0.3125,0.375,-0.09375,0.0,0.0,0.0
1664377826027,-1.0136719,0.06738281,-0.072265625,-0.90625,0.125,-0.21875,0.0,0.0,0.0
1664377826027,-1.0136719,0.06738281,-0.072265625,-0.90625,0.125,-0.21875,0.0,0.0,0.0
1664377826046,-1.0087891,0.08300781,-0.07324219,-0.0625,0.4375,-0.03125,0.0,0.0,0.0
1664377826046,-1.0087891,0.08300781,-0.07324219,-0.0625,0.4375,-0.03125,0.0,0.0,0.0
1664377826047,-1.0029297,0.0859375,-0.08496094,-0.5,0.25,-0.09375,0.0,0.0,0.0
1664377826048,-1.0029297,0.0859375,-0.08496094,-0.5,0.25,-0.09375,0.0,0.0,0.0
1664377826068,-1.0058594,0.076171875,-0.08886719,0.1875,0.3125,0.15625,0.0,0.0,0.0
1664377826067,-1.0058594,0.076171875,-0.08886719,0.1875,0.3125,0.15625,0.0,0.0,0.0
1664377826109,-1.0175781,0.08300781,-0.07324219,-0.875,0.5625,-0.15625,0.0,0.0,0.0
1664377826109,-1.0175781,0.08300781,-0.07324219,-0.875,0.5625,-0.15625,0.0,0.0,0.0
1664377826168,-1.0117188,0.07714844,-0.0703125,0.125,-0.03125,0.03125,-66.0,-8.1875,-141.1875
1664377826167,-1.0117188,0.07714844,-0.0703125,0.125,-0.03125,0.03125,-66.0,-8.1875,-141.1875
1664377826186,-1.0087891,0.07324219,-0.080078125,-0.3125,0.03125,-0.15625,0.0,0.0,0.0
1664377826186,-1.0087891,0.07324219,-0.080078125,-0.3125,0.03125,-0.15625,0.0,0.0,0.0
1664377826228,-1.0087891,0.080078125,-0.07421875,0.125,-0.09375,-0.15625,0.0,0.0,0.0
1664377826228,-1.0087891,0.080078125,-0.07421875,0.125,-0.09375,-0.15625,0.0,0.0,0.0
1664377826267,-1.0068359,0.07421875,-0.076171875,0.40625,0.25,-0.15625,0.0,0.0,0.0
1664377826267,-1.0068359,0.07421875,-0.076171875,0.40625,0.25,-0.15625,0.0,0.0,0.0
1664377826308,-1.0068359,0.083984375,-0.078125,0.1875,0.03125,0.09375,0.0,0.0,0.0
1664377826308,-1.0068359,0.083984375,-0.078125,0.1875,0.03125,0.09375,0.0,0.0,0.0
1664377826367,-1.0146484,0.07910156,-0.072265625,0.59375,0.03125,-0.09375,0.0,0.0,0.0
1664377826367,-1.0146484,0.07910156,-0.072265625,0.59375,0.03125,-0.09375,0.0,0.0,0.0
1664377826407,-1.0019531,0.07421875,-0.0703125,-0.4375,-0.34375,-0.15625,0.0,0.0,0.0
1664377826407,-1.0019531,0.07421875,-0.0703125,-0.4375,-0.34375,-0.15625,0.0,0.0,0.0
1664377826426,-1.0117188,0.08300781,-0.08496094,1.03125,-0.28125,-0.15625,0.0,0.0,0.0
1664377826426,-1.0117188,0.08300781,-0.08496094,1.03125,-0.28125,-0.15625,0.0,0.0,0.0
1664377826470,-1.0029297,0.078125,-0.07128906,0.59375,0.03125,-0.21875,0.0,0.0,0.0
1664377826470,-1.0029297,0.078125,-0.07128906,0.59375,0.03125,-0.21875,0.0,0.0,0.0
1664377826507,-1.0078125,0.07910156,-0.07519531,0.0,0.125,-0.34375,0.0,0.0,0.0
1664377826507,-1.0078125,0.07910156,-0.07519531,0.0,0.125,-0.34375,0.0,0.0,0.0
1664377826548,-1.0117188,0.06738281,-0.072265625,0.125,-0.03125,-0.03125,0.0,0.0,0.0
1664377826548,-1.0117188,0.06738281,-0.072265625,0.125,-0.03125,-0.03125,0.0,0.0,0.0
1664377826587,-1.0068359,0.07910156,-0.07128906,0.125,-0.09375,-0.40625,0.0,0.0,0.0
1664377826588,-1.0068359,0.07910156,-0.07128906,0.125,-0.09375,-0.40625,0.0,0.0,0.0
1664377826627,-1.0175781,0.07714844,-0.07714844,-0.1875,0.3125,-0.09375,-66.3125,-9.125,-141.8125
1664377826627,-1.0175781,0.07714844,-0.07714844,-0.1875,0.3125,-0.09375,-66.3125,-9.125,-141.8125
1664377826667,-1.0029297,0.0859375,-0.07324219,-0.125,-0.09375,-0.03125,0.0,0.0,0.0
1664377826668,-1.0029297,0.0859375,-0.07324219,-0.125,-0.09375,-0.03125,0.0,0.0,0.0
1664377826708,-1.0136719,0.07519531,-0.08105469,-0.6875,-0.15625,-0.21875,0.0,0.0,0.0
1664377826708,-1.0136719,0.07519531,-0.08105469,-0.6875,-0.15625,-0.21875,0.0,0.0,0.0
1664377826747,-1.0195312,0.07714844,-0.072265625,-1.59375,0.25,-0.40625,0.0,0.0,0.0
1664377826747,-1.0195312,0.07714844,-0.072265625,-1.59375,0.25,-0.40625,0.0,0.0,0.0
1664377826788,-1.0175781,0.0703125,-0.083984375,0.125,-0.34375,-0.03125,0.0,0.0,0.0
1664377826790,-1.0175781,0.0703125,-0.083984375,0.125,-0.34375,-0.03125,0.0,0.0,0.0
1664377826827,-1.0009766,0.07324219,-0.07714844,0.125,-0.09375,-0.15625,0.0,0.0,0.0
1664377826830,-1.0009766,0.07324219,-0.07714844,0.125,-0.09375,-0.15625,0.0,0.0,0.0
1664377826867,-1.0058594,0.08496094,-0.07324219,-0.625,-0.15625,-0.09375,0.0,0.0,0.0
1664377826867,-1.0058594,0.08496094,-0.07324219,-0.625,-0.15625,-0.09375,0.0,0.0,0.0
1664377826907,-1.0039062,0.07910156,-0.05859375,0.78125,-0.03125,-0.09375,0.0,0.0,0.0
1664377826907,-1.0039062,0.07910156,-0.05859375,0.78125,-0.03125,-0.09375,0.0,0.0,0.0
1664377826946,-1.0126953,0.07714844,-0.07910156,-0.125,-0.28125,-0.15625,0.0,0.0,0.0
1664377826947,-1.0126953,0.07714844,-0.07910156,-0.125,-0.28125,-0.15625,0.0,0.0,0.0
1664377826988,-1.0146484,0.07910156,-0.06738281,1.09375,-0.15625,-0.03125,0.0,0.0,0.0
1664377826988,-1.0146484,0.07910156,-0.06738281,1.09375,-0.15625,-0.03125,0.0,0.0,0.0
1664377827047,-1.0068359,0.08300781,-0.07519531,-0.3125,-0.28125,0.03125,0.0,0.0,0.0
1664377827047,-1.0068359,0.08300781,-0.07519531,-0.3125,-0.28125,0.03125,0.0,0.0,0.0
1664377827068,-1.0048828,0.076171875,-0.0625,0.59375,-0.46875,-0.15625,0.0,0.0,0.0
1664377827069,-1.0048828,0.076171875,-0.0625,0.59375,-0.46875,-0.15625,0.0,0.0,0.0
1664377827127,-1.0117188,0.07128906,-0.07910156,0.25,-0.03125,-0.03125,0.0,0.0,0.0
1664377827127,-1.0117188,0.07128906,-0.07910156,0.25,-0.03125,-0.03125,0.0,0.0,0.0
1664377827146,-1.0029297,0.08203125,-0.068359375,0.125,-0.15625,-0.15625,-65.375,-10.0,-141.9375
1664377827146,-1.0029297,0.08203125,-0.068359375,0.125,-0.15625,-0.15625,-65.375,-10.0,-141.9375
1664377827186,-1.0087891,0.083984375,-0.07128906,0.65625,-0.28125,0.03125,0.0,0.0,0.0
1664377827186,-1.0087891,0.083984375,-0.07128906,0.65625,-0.28125,0.03125,0.0,0.0,0.0
1664377827227,-1.0068359,0.07910156,-0.083984375,0.25,-0.40625,-0.15625,0.0,0.0,0.0
1664377827227,-1.0068359,0.07910156,-0.083984375,0.25,-0.40625,-0.15625,0.0,0.0,0.0
1664377827267,-1.0126953,0.06933594,-0.07324219,0.0,-0.21875,-0.09375,0.0,0.0,0.0
1664377827267,-1.0126953,0.06933594,-0.07324219,0.0,-0.21875,-0.09375,0.0,0.0,0.0
1664377827306,-1.0126953,0.08203125,-0.06542969,0.59375,-0.40625,-0.03125,0.0,0.0,0.0
1664377827307,-1.0126953,0.08203125,-0.06542969,0.59375,-0.40625,-0.03125,0.0,0.0,0.0
1664377827347,-1.0068359,0.07324219,-0.076171875,-0.1875,-0.09375,0.03125,0.0,0.0,0.0
1664377827347,-1.0068359,0.07324219,-0.076171875,-0.1875,-0.09375,0.03125,0.0,0.0,0.0
1664377827390,-1.0097656,0.07519531,-0.07421875,-0.375,0.25,-0.40625,0.0,0.0,0.0
1664377827390,-1.0097656,0.07519531,-0.07421875,-0.375,0.25,-0.40625,0.0,0.0,0.0
1664377827426,-1.0087891,0.08300781,-0.07519531,-0.4375,-0.46875,-0.15625,0.0,0.0,0.0
1664377827426,-1.0087891,0.08300781,-0.07519531,-0.4375,-0.46875,-0.15625,0.0,0.0,0.0
1664377827467,-1.0039062,0.07519531,-0.08496094,0.84375,-0.21875,-0.09375,0.0,0.0,0.0
1664377827467,-1.0039062,0.07519531,-0.08496094,0.84375,-0.21875,-0.09375,0.0,0.0,0.0
1664377827508,-1.0107422,0.076171875,-0.06738281,-0.125,-0.09375,0.03125,0.0,0.0,0.0
1664377827508,-1.0107422,0.076171875,-0.06738281,-0.125,-0.09375,0.03125,0.0,0.0,0.0
1664377827546,-1.0097656,0.07714844,-0.08300781,0.78125,0.0625,-0.15625,0.0,0.0,0.0
1664377827546,-1.0097656,0.07714844,-0.08300781,0.78125,0.0625,-0.15625,0.0,0.0,0.0
1664377827587,-1.0019531,0.07910156,-0.0546875,0.40625,0.03125,-0.09375,0.0,0.0,0.0
1664377827587,-1.0019531,0.07910156,-0.0546875,0.40625,0.03125,-0.09375,0.0,0.0,0.0
1664377827627,-1.0117188,0.08105469,-0.06640625,0.59375,-0.34375,-0.09375,-65.6875,-9.5625,-140.125
1664377827627,-1.0117188,0.08105469,-0.06640625,0.59375,-0.34375,-0.09375,-65.6875,-9.5625,-140.125
1664377827669,-1.0068359,0.076171875,-0.060546875,1.09375,-0.15625,-0.09375,0.0,0.0,0.0
1664377827669,-1.0068359,0.076171875,-0.060546875,1.09375,-0.15625,-0.09375,0.0,0.0,0.0
1664377827707,-1.0117188,0.07324219,-0.0625,0.375,-0.21875,-0.09375,0.0,0.0,0.0
1664377827707,-1.0117188,0.07324219,-0.0625,0.375,-0.21875,-0.09375,0.0,0.0,0.0
1664377827747,-1.0087891,0.07421875,-0.07714844,0.1875,0.0625,-0.15625,0.0,0.0,0.0
1664377827747,-1.0087891,0.07421875,-0.07714844,0.1875,0.0625,-0.15625,0.0,0.0,0.0
1664377827786,-1.0146484,0.07910156,-0.06738281,0.90625,0.03125,-0.15625,0.0,0.0,0.0
1664377827787,-1.0146484,0.07910156,-0.06738281,0.90625,0.03125,-0.15625,0.0,0.0,0.0
1664377827827,-1.0097656,0.07128906,-0.0703125,0.3125,0.0625,-0.15625,0.0,0.0,0.0
1664377827827,-1.0097656,0.07128906,-0.0703125,0.3125,0.0625,-0.15625,0.0,0.0,0.0
1664377827887,-1.0126953,0.078125,-0.068359375,0.125,1.0625,-0.28125,0.0,0.0,0.0
1664377827887,-1.0126953,0.078125,-0.068359375,0.125,1.0625,-0.28125,0.0,0.0,0.0
1664377827907,-1.015625,0.080078125,-0.08300781,0.59375,-0.03125,-0.15625,0.0,0.0,0.0
1664377827907,-1.015625,0.080078125,-0.08300781,0.59375,-0.03125,-0.15625,0.0,0.0,0.0
1664377827948,-1.0039062,0.07714844,-0.061523438,0.3125,0.03125,0.03125,0.0,0.0,0.0
1664377827948,-1.0039062,0.07714844,-0.061523438,0.3125,0.03125,0.03125,0.0,0.0,0.0
1664377827989,-1.0009766,0.068359375,-0.05859375,-0.4375,0.6875,-0.40625,0.0,0.0,0.0
1664377827989,-1.0009766,0.068359375,-0.05859375,-0.4375,0.6875,-0.40625,0.0,0.0,0.0
1664377828027,-1.0068359,0.08300781,-0.064453125,0.71875,0.03125,-0.28125,0.0,0.0,0.0
1664377828027,-1.0068359,0.08300781,-0.064453125,0.71875,0.03125,-0.28125,0.0,0.0,0.0
1664377828067,-1.0126953,0.07519531,-0.06542969,-0.625,-0.34375,-0.34375,0.0,0.0,0.0
1664377828067,-1.0126953,0.07519531,-0.06542969,-0.625,-0.34375,-0.34375,0.0,0.0,0.0
1664377828109,-1.0009766,0.078125,-0.06738281,1.65625,-0.09375,-0.03125,0.0,0.0,0.0
1664377828109,-1.0009766,0.078125,-0.06738281,1.65625,-0.09375,-0.03125,0.0,0.0,0.0
1664377828147,-1.0087891,0.07910156,-0.060546875,0.59375,0.03125,0.09375,-64.0625,-9.125,-141.0625
1664377828147,-1.0087891,0.07910156,-0.060546875,0.59375,0.03125,0.09375,-64.0625,-9.125,-141.0625
1664377828187,-1.0117188,0.07519531,-0.06933594,1.28125,0.1875,-0.03125,0.0,0.0,0.0
1664377828187,-1.0117188,0.07519531,-0.06933594,1.28125,0.1875,-0.03125,0.0,0.0,0.0
1664377828227,-1.0,0.07324219,-0.0703125,0.90625,0.1875,-0.03125,0.0,0.0,0.0
1664377828227,-1.0,0.07324219,-0.0703125,0.90625,0.1875,-0.03125,0.0,0.0,0.0
1664377828269,-1.0136719,0.07519531,-0.06542969,0.84375,0.0625,-0.09375,0.0,0.0,0.0
1664377828269,-1.0136719,0.07519531,-0.06542969,0.84375,0.0625,-0.09375,0.0,0.0,0.0
1664377828307,-1.0058594,0.07324219,-0.076171875,-0.125,-0.03125,0.03125,0.0,0.0,0.0
1664377828307,-1.0058594,0.07324219,-0.076171875,-0.125,-0.03125,0.03125,0.0,0.0,0.0
1664377828346,-1.0107422,0.07519531,-0.06640625,0.46875,-0.03125,0.03125,0.0,0.0,0.0
1664377828347,-1.0107422,0.07519531,-0.06640625,0.46875,-0.03125,0.03125,0.0,0.0,0.0
1664377828407,-1.0166016,0.072265625,-0.08300781,-0.4375,0.375,-0.03125,0.0,0.0,0.0
1664377828407,-1.0166016,0.072265625,-0.08300781,-0.4375,0.375,-0.03125,0.0,0.0,0.0
1664377828427,-1.0136719,0.08300781,-0.06738281,-0.3125,0.3125,-0.09375,0.0,0.0,0.0
1664377828427,-1.0136719,0.08300781,-0.06738281,-0.3125,0.3125,-0.09375,0.0,0.0,0.0
1664377828468,-1.0039062,0.0703125,-0.06738281,-1.15625,0.5,-0.03125,0.0,0.0,0.0
1664377828468,-1.0039062,0.0703125,-0.06738281,-1.15625,0.5,-0.03125,0.0,0.0,0.0
1664377828507,-1.0175781,0.07714844,-0.06933594,-0.375,0.875,0.03125,0.0,0.0,0.0
1664377828509,-1.0175781,0.07714844,-0.06933594,-0.375,0.875,0.03125,0.0,0.0,0.0
1664377828547,-1.0058594,0.072265625,-0.052734375,-0.5,0.3125,-0.03125,0.0,0.0,0.0
1664377828547,-1.0058594,0.072265625,-0.052734375,-0.5,0.3125,-0.03125,0.0,0.0,0.0
1664377828588,-1.0058594,0.06640625,-0.051757812,0.125,0.1875,0.03125,0.0,0.0,0.0
1664377828588,-1.0058594,0.06640625,-0.051757812,0.125,0.1875,0.03125,0.0,0.0,0.0
1664377828646,-1.0097656,0.07519531,-0.08203125,-1.28125,0.9375,-0.40625,-64.5,-8.6875,-142.125
1664377828647,-1.0097656,0.07519531,-0.08203125,-1.28125,0.9375,-0.40625,-64.5,-8.6875,-142.125
1664377828666,-1.0126953,0.076171875,-0.072265625,1.15625,0.03125,0.09375,0.0,0.0,0.0
1664377828666,-1.0126953,0.076171875,-0.072265625,1.15625,0.03125,0.09375,0.0,0.0,0.0
1664377828708,-1.0126953,0.0703125,-0.076171875,0.125,0.625,-0.21875,0.0,0.0,0.0
1664377828707,-1.0126953,0.0703125,-0.076171875,0.125,0.625,-0.21875,0.0,0.0,0.0
1664377828746,-1.0117188,0.07714844,-0.06738281,0.65625,0.9375,-0.03125,0.0,0.0,0.0
1664377828747,-1.0117188,0.07714844,-0.06738281,0.65625,0.9375,-0.03125,0.0,0.0,0.0
1664377828787,-1.0019531,0.07714844,-0.07421875,0.90625,0.5625,0.03125,0.0,0.0,0.0
1664377828787,-1.0019531,0.07714844,-0.07421875,0.90625,0.5625,0.03125,0.0,0.0,0.0
1664377828828,-1.015625,0.07324219,-0.06738281,0.375,0.9375,-0.03125,0.0,0.0,0.0
1664377828828,-1.015625,0.07324219,-0.06738281,0.375,0.9375,-0.03125,0.0,0.0,0.0
1664377828867,-1.0078125,0.06933594,-0.07714844,0.84375,0.5625,0.03125,0.0,0.0,0.0
1664377828870,-1.0078125,0.06933594,-0.07714844,0.84375,0.5625,0.03125,0.0,0.0,0.0
1664377828907,-1.0166016,0.08105469,-0.06738281,-0.3125,0.625,-0.03125,0.0,0.0,0.0
1664377828908,-1.0166016,0.08105469,-0.06738281,-0.3125,0.625,-0.03125,0.0,0.0,0.0
1664377828948,-1.0117188,0.076171875,-0.06640625,-0.375,0.3125,0.09375,0.0,0.0,0.0
1664377828950,-1.0117188,0.076171875,-0.06640625,-0.375,0.3125,0.09375,0.0,0.0,0.0
1664377828987,-1.0126953,0.076171875,-0.064453125,0.3125,1.0,0.03125,0.0,0.0,0.0
1664377828987,-1.0126953,0.076171875,-0.064453125,0.3125,1.0,0.03125,0.0,0.0,0.0
1664377829028,-1.0166016,0.07714844,-0.0703125,-1.59375,0.4375,-0.15625,0.0,0.0,0.0
1664377829028,-1.0166016,0.07714844,-0.0703125,-1.59375,0.4375,-0.15625,0.0,0.0,0.0
1664377829068,-1.0087891,0.06933594,-0.072265625,-1.34375,0.625,-0.21875,0.0,0.0,0.0
1664377829068,-1.0087891,0.06933594,-0.072265625,-1.34375,0.625,-0.21875,0.0,0.0,0.0
1664377829107,-1.0,0.072265625,-0.051757812,0.1875,0.75,0.09375,0.0,0.0,0.0
1664377829107,-1.0,0.072265625,-0.051757812,0.1875,0.75,0.09375,0.0,0.0,0.0
1664377829148,-1.0019531,0.078125,-0.0703125,-1.96875,0.03125,-0.21875,-65.875,-9.6875,-141.375
1664377829148,-1.0019531,0.078125,-0.0703125,-1.96875,0.03125,-0.21875,-65.875,-9.6875,-141.375
1664377829189,-1.0029297,0.07128906,-0.080078125,0.25,1.25,0.09375,0.0,0.0,0.0
1664377829189,-1.0029297,0.07128906,-0.080078125,0.25,1.25,0.09375,0.0,0.0,0.0
1664377829227,-1.0009766,0.072265625,-0.080078125,-0.90625,0.125,-0.09375,0.0,0.0,0.0
1664377829227,-1.0009766,0.072265625,-0.080078125,-0.90625,0.125,-0.09375,0.0,0.0,0.0
1664377829268,-1.0126953,0.068359375,-0.07128906,-1.21875,0.5625,-0.28125,0.0,0.0,0.0
1664377829269,-1.0126953,0.068359375,-0.07128906,-1.21875,0.5625,-0.28125,0.0,0.0,0.0
1664377829309,-1.0126953,0.07421875,-0.064453125,1.09375,-0.28125,0.09375,0.0,0.0,0.0
1664377829310,-1.0126953,0.07421875,-0.064453125,1.09375,-0.28125,0.09375,0.0,0.0,0.0
1664377829348,-1.0146484,0.08105469,-0.06542969,-0.0625,0.5,-0.21875,0.0,0.0,0.0
1664377829348,-1.0146484,0.08105469,-0.06542969,-0.0625,0.5,-0.21875,0.0,0.0,0.0
1664377829407,-1.0087891,0.076171875,-0.07714844,1.28125,0.625,0.03125,0.0,0.0,0.0
1664377829409,-1.0087891,0.076171875,-0.07714844,1.28125,0.625,0.03125,0.0,0.0,0.0
1664377829427,-1.0058594,0.08203125,-0.068359375,0.25,0.1875,-0.03125,0.0,0.0,0.0
1664377829427,-1.0058594,0.08203125,-0.068359375,0.25,0.1875,-0.03125,0.0,0.0,0.0
1664377829468,-1.0107422,0.07714844,-0.06933594,0.53125,0.625,-0.03125,0.0,0.0,0.0
1664377829468,-1.0107422,0.07714844,-0.06933594,0.53125,0.625,-0.03125,0.0,0.0,0.0
1664377829507,-1.0068359,0.072265625,-0.049804688,0.96875,0.25,0.09375,0.0,0.0,0.0
1664377829508,-1.0068359,0.072265625,-0.049804688,0.96875,0.25,0.09375,0.0,0.0,0.0
1664377829548,-1.0136719,0.076171875,-0.0703125,0.1875,0.3125,-0.21875,0.0,0.0,0.0
1664377829548,-1.0136719,0.076171875,-0.0703125,0.1875,0.3125,-0.21875,0.0,0.0,0.0
1664377829587,-1.0058594,0.078125,-0.08984375,0.3125,0.25,0.09375,0.0,0.0,0.0
1664377829589,-1.0058594,0.078125,-0.08984375,0.3125,0.25,0.09375,0.0,0.0,0.0
1664377829627,-1.0068359,0.072265625,-0.07128906,-0.875,0.9375,-0.03125,-66.0,-7.75,-140.875
1664377829627,-1.0068359,0.072265625,-0.07128906,-0.875,0.9375,-0.03125,-66.0,-7.75,-140.875
1664377829667,-1.0,0.080078125,-0.06738281,0.375,0.375,0.09375,0.0,0.0,0.0
1664377829668,-1.0,0.080078125,-0.06738281,0.375,0.375,0.09375,0.0,0.0,0.0
1664377829709,-1.0048828,0.08105469,-0.07128906,-1.65625,0.4375,-0.34375,0.0,0.0,0.0
1664377829709,-1.0048828,0.08105469,-0.07128906,-1.65625,0.4375,-0.34375,0.0,0.0,0.0
1664377829747,-1.0068359,0.07714844,-0.0703125,-0.4375,0.625,0.09375,0.0,0.0,0.0
1664377829747,-1.0068359,0.07714844,-0.0703125,-0.4375,0.625,0.09375,0.0,0.0,0.0
1664377829788,-0.99902344,0.080078125,-0.06738281,-0.96875,0.125,0.09375,0.0,0.0,0.0
1664377829788,-0.99902344,0.080078125,-0.06738281,-0.96875,0.125,0.09375,0.0,0.0,0.0
1664377829830,-1.0039062,0.072265625,-0.07128906,-0.125,0.25,-0.09375,0.0,0.0,0.0
1664377829830,-1.0039062,0.072265625,-0.07128906,-0.125,0.25,-0.09375,0.0,0.0,0.0
1664377829870,-1.0175781,0.083984375,-0.06542969,-0.96875,0.75,-0.28125,0.0,0.0,0.0
1664377829870,-1.0175781,0.083984375,-0.06542969,-0.96875,0.75,-0.28125,0.0,0.0,0.0
1664377829907,-1.0117188,0.08203125,-0.083984375,-0.4375,0.75,-0.09375,0.0,0.0,0.0
1664377829907,-1.0117188,0.08203125,-0.083984375,-0.4375,0.75,-0.09375,0.0,0.0,0.0
1664377829946,-1.0058594,0.083984375,-0.080078125,0.125,0.03125,-0.09375,0.0,0.0,0.0
1664377829947,-1.0058594,0.083984375,-0.080078125,0.125,0.03125,-0.09375,0.0,0.0,0.0
1664377829988,-1.0009766,0.08105469,-0.07128906,0.3125,0.6875,-0.03125,0.0,0.0,0.0
1664377829988,-1.0009766,0.08105469,-0.07128906,0.3125,0.6875,-0.03125,0.0,0.0,0.0
1664377830027,-1.0029297,0.078125,-0.068359375,0.3125,0.5,0.03125,0.0,0.0,0.0
1664377830027,-1.0029297,0.078125,-0.068359375,0.3125,0.5,0.03125,0.0,0.0,0.0
1664377830067,-1.0058594,0.080078125,-0.06640625,0.65625,0.3125,-0.03125,0.0,0.0,0.0
1664377830067,-1.0058594,0.080078125,-0.06640625,0.65625,0.3125,-0.03125,0.0,0.0,0.0
1664377830108,-1.0078125,0.07421875,-0.072265625,0.375,0.25,0.15625,0.0,0.0,0.0
1664377830108,-1.0078125,0.07421875,-0.072265625,0.375,0.25,0.15625,0.0,0.0,0.0
1664377830167,-1.0166016,0.080078125,-0.06640625,0.59375,0.5,-0.21875,-66.75,-10.0,-140.875
1664377830167,-1.0166016,0.080078125,-0.06640625,0.59375,0.5,-0.21875,-66.75,-10.0,-140.875
1664377830187,-1.0166016,0.076171875,-0.06640625,0.59375,0.1875,0.03125,0.0,0.0,0.0
1664377830186,-1.0166016,0.076171875,-0.06640625,0.59375,0.1875,0.03125,0.0,0.0,0.0
1664377830228,-1.0087891,0.076171875,-0.072265625,0.0,0.0625,-0.03125,0.0,0.0,0.0
1664377830228,-1.0087891,0.076171875,-0.072265625,0.0,0.0625,-0.03125,0.0,0.0,0.0
1664377830268,-1.0058594,0.076171875,-0.07714844,0.0625,0.5,-0.15625,0.0,0.0,0.0
1664377830268,-1.0058594,0.076171875,-0.07714844,0.0625,0.5,-0.15625,0.0,0.0,0.0
1664377830307,-1.0068359,0.07714844,-0.078125,0.40625,0.5625,0.09375,0.0,0.0,0.0
1664377830307,-1.0068359,0.07714844,-0.078125,0.40625,0.5625,0.09375,0.0,0.0,0.0
1664377830347,-1.0126953,0.08105469,-0.08105469,-0.6875,0.1875,-0.15625,0.0,0.0,0.0
1664377830347,-1.0126953,0.08105469,-0.08105469,-0.6875,0.1875,-0.15625,0.0,0.0,0.0
1664377830386,-1.0058594,0.08105469,-0.083984375,0.3125,0.6875,-0.03125,0.0,0.0,0.0
1664377830387,-1.0058594,0.08105469,-0.083984375,0.3125,0.6875,-0.03125,0.0,0.0,0.0
1664377830427,-1.0039062,0.08105469,-0.07714844,-0.0625,-0.53125,0.03125,0.0,0.0,0.0
1664377830430,-1.0039062,0.08105469,-0.07714844,-0.0625,-0.53125,0.03125,0.0,0.0,0.0
1664377830470,-1.0039062,0.07714844,-0.06542969,-0.125,0.25,-0.03125,0.0,0.0,0.0
1664377830470,-1.0039062,0.07714844,-0.06542969,-0.125,0.25,-0.03125,0.0,0.0,0.0
1664377830507,-1.0117188,0.076171875,-0.07714844,-0.4375,0.625,-0.15625,0.0,0.0,0.0
1664377830507,-1.0117188,0.076171875,-0.07714844,-0.4375,0.625,-0.15625,0.0,0.0,0.0
1664377830547,-1.0136719,0.07519531,-0.076171875,0.1875,0.25,0.03125,0.0,0.0,0.0
1664377830551,-1.0136719,0.07519531,-0.076171875,0.1875,0.25,0.03125,0.0,0.0,0.0
1664377830589,-1.0078125,0.08300781,-0.07910156,0.25,0.1875,-0.15625,0.0,0.0,0.0
1664377830589,-1.0078125,0.08300781,-0.07910156,0.25,0.1875,-0.15625,0.0,0.0,0.0
1664377830627,-1.0097656,0.07714844,-0.08886719,0.125,0.03125,-0.15625,-64.5,-8.6875,-142.875
1664377830627,-1.0097656,0.07714844,-0.08886719,0.125,0.03125,-0.15625,-64.5,-8.6875,-142.875
1664377830667,-1.0175781,0.07128906,-0.08300781,0.375,0.4375,-0.09375,0.0,0.0,0.0
1664377830667,-1.0175781,0.07128906,-0.08300781,0.375,0.4375,-0.09375,0.0,0.0,0.0
1664377830707,-1.0126953,0.07519531,-0.056640625,0.53125,0.25,0.03125,0.0,0.0,0.0
1664377830708,-1.0126953,0.07519531,-0.056640625,0.53125,0.25,0.03125,0.0,0.0,0.0
1664377830748,-1.0,0.08105469,-0.07714844,0.40625,0.5625,0.03125,0.0,0.0,0.0
1664377830748,-1.0,0.08105469,-0.07714844,0.40625,0.5625,0.03125,0.0,0.0,0.0
1664377830788,-1.0117188,0.076171875,-0.076171875,0.3125,0.1875,0.03125,0.0,0.0,0.0
1664377830787,-1.0117188,0.076171875,-0.076171875,0.3125,0.1875,0.03125,0.0,0.0,0.0
1664377830826,-1.0166016,0.07128906,-0.06640625,-0.375,0.1875,-0.03125,0.0,0.0,0.0
1664377830826,-1.0166016,0.07128906,-0.06640625,-0.375,0.1875,-0.03125,0.0,0.0,0.0
1664377830866,-1.0048828,0.080078125,-0.055664062,0.125,0.1875,-0.03125,0.0,0.0,0.0
1664377830867,-1.0048828,0.080078125,-0.055664062,0.125,0.1875,-0.03125,0.0,0.0,0.0
1664377830928,-1.0126953,0.08691406,-0.07714844,0.0625,0.5,-0.09375,0.0,0.0,0.0
1664377830928,-1.0126953,0.08691406,-0.07714844,0.0625,0.5,-0.09375,0.0,0.0,0.0
1664377830947,-1.0068359,0.068359375,-0.06738281,-0.125,0.0625,-0.03125,0.0,0.0,0.0
1664377830947,-1.0068359,0.068359375,-0.06738281,-0.125,0.0625,-0.03125,0.0,0.0,0.0
1664377830987,-1.0058594,0.0859375,-0.07421875,0.375,0.375,-0.09375,0.0,0.0,0.0
1664377830987,-1.0058594,0.0859375,-0.07421875,0.375,0.375,-0.09375,0.0,0.0,0.0
1664377831026,-1.0107422,0.07519531,-0.064453125,0.0625,-0.15625,-0.15625,0.0,0.0,0.0
1664377831026,-1.0107422,0.07519531,-0.064453125,0.0625,-0.15625,-0.15625,0.0,0.0,0.0
1664377831088,-1.0107422,0.072265625,-0.07714844,0.125,0.0625,-0.09375,0.0,0.0,0.0
1664377831088,-1.0107422,0.072265625,-0.07714844,0.125,0.0625,-0.09375,0.0,0.0,0.0
1664377831106,-1.0068359,0.08105469,-0.076171875,0.84375,-0.15625,0.1875,0.0,0.0,0.0
1664377831106,-1.0068359,0.08105469,-0.076171875,0.84375,-0.15625,0.1875,0.0,0.0,0.0
1664377831148,-1.0068359,0.08300781,-0.078125,0.375,0.5,0.09375,-65.6875,-8.8125,-140.625
1664377831148,-1.0068359,0.08300781,-0.078125,0.375,0.5,0.09375,-65.6875,-8.8125,-140.625
1664377831187,-1.0136719,0.080078125,-0.07128906,0.0,0.3125,-0.15625,0.0,0.0,0.0
1664377831187,-1.0136719,0.080078125,-0.07128906,0.0,0.3125,-0.15625,0.0,0.0,0.0
1664377831227,-1.0126953,0.072265625,-0.07421875,-0.625,-0.21875,-0.03125,0.0,0.0,0.0
1664377831227,-1.0126953,0.072265625,-0.07421875,-0.625,-0.21875,-0.03125,0.0,0.0,0.0
1664377831267,-1.0107422,0.07910156,-0.076171875,1.75,0.125,0.3125,0.0,0.0,0.0
1664377831268,-1.0107422,0.07910156,-0.076171875,1.75,0.125,0.3125,0.0,0.0,0.0
1664377831307,-1.0117188,0.07128906,-0.07421875,-0.5625,0.3125,-0.15625,0.0,0.0,0.0
1664377831307,-1.0117188,0.07128906,-0.07421875,-0.5625,0.3125,-0.15625,0.0,0.0,0.0
1664377831347,-1.0087891,0.08105469,-0.08203125,0.59375,0.3125,-0.21875,0.0,0.0,0.0
1664377831347,-1.0087891,0.08105469,-0.08203125,0.59375,0.3125,-0.21875,0.0,0.0,0.0
1664377831387,-1.0087891,0.08691406,-0.064453125,0.71875,0.125,0.09375,0.0,0.0,0.0
1664377831388,-1.0087891,0.08691406,-0.064453125,0.71875,0.125,0.09375,0.0,0.0,0.0
1664377831427,-1.0097656,0.08691406,-0.061523438,-0.875,0.03125,-0.09375,0.0,0.0,0.0
1664377831426,-1.0097656,0.08691406,-0.061523438,-0.875,0.03125,-0.09375,0.0,0.0,0.0
1664377831468,-1.0087891,0.08105469,-0.0859375,0.25,-0.03125,0.03125,0.0,0.0,0.0
1664377831468,-1.0087891,0.08105469,-0.0859375,0.25,-0.03125,0.03125,0.0,0.0,0.0
1664377831507,-1.0078125,0.0703125,-0.068359375,0.1875,-0.21875,0.09375,0.0,0.0,0.0
1664377831507,-1.0078125,0.0703125,-0.068359375,0.1875,-0.21875,0.09375,0.0,0.0,0.0
1664377831547,-1.0078125,0.07910156,-0.064453125,-0.125,0.0625,-0.21875,0.0,0.0,0.0
1664377831547,-1.0078125,0.07910156,-0.064453125,-0.125,0.0625,-0.21875,0.0,0.0,0.0
1664377831588,-1.0068359,0.07714844,-0.059570312,0.78125,0.375,0.09375,0.0,0.0,0.0
1664377831588,-1.0068359,0.07714844,-0.059570312,0.78125,0.375,0.09375,0.0,0.0,0.0
1664377831627,-1.015625,0.08691406,-0.07519531,0.78125,0.1875,-0.03125,-65.6875,-9.25,-140.125
1664377831627,-1.015625,0.08691406,-0.07519531,0.78125,0.1875,-0.03125,-65.6875,-9.25,-140.125
1664377831686,-1.0048828,0.08105469,-0.0625,0.375,0.0625,-0.09375,0.0,0.0,0.0
1664377831687,-1.0048828,0.08105469,-0.0625,0.375,0.0625,-0.09375,0.0,0.0,0.0
1664377831707,-1.0058594,0.08105469,-0.07421875,0.0,0.75,-0.15625,0.0,0.0,0.0
1664377831707,-1.0058594,0.08105469,-0.07421875,0.0,0.75,-0.15625,0.0,0.0,0.0
1664377831748,-1.0087891,0.07324219,-0.07421875,0.3125,0.375,-0.03125,0.0,0.0,0.0
1664377831747,-1.0087891,0.07324219,-0.07421875,0.3125,0.375,-0.03125,0.0,0.0,0.0
1664377831787,-1.0029297,0.07714844,-0.072265625,0.65625,0.125,0.03125,0.0,0.0,0.0
1664377831787,-1.0029297,0.07714844,-0.072265625,0.65625,0.125,0.03125,0.0,0.0,0.0
1664377831829,-1.0107422,0.06542969,-0.06640625,-0.25,0.4375,0.09375,0.0,0.0,0.0
1664377831829,-1.0107422,0.06542969,-0.06640625,-0.25,0.4375,0.09375,0.0,0.0,0.0
1664377831867,-1.0117188,0.080078125,-0.06933594,0.25,0.625,-0.28125,0.0,0.0,0.0
1664377831867,-1.0117188,0.080078125,-0.06933594,0.25,0.625,-0.28125,0.0,0.0,0.0
1664377831907,-1.0058594,0.083984375,-0.061523438,0.40625,-0.21875,-0.09375,0.0,0.0,0.0
1664377831907,-1.0058594,0.083984375,-0.061523438,0.40625,-0.21875,-0.09375,0.0,0.0,0.0
1664377831949,-1.0107422,0.07714844,-0.076171875,0.59375,0.125,0.15625,0.0,0.0,0.0
1664377831949,-1.0107422,0.07714844,-0.076171875,0.59375,0.125,0.15625,0.0,0.0,0.0
1664377831986,-1.0126953,0.08984375,-0.07519531,0.78125,0.8125,0.03125,0.0,0.0,0.0
1664377831987,-1.0126953,0.08984375,-0.07519531,0.78125,0.8125,0.03125,0.0,0.0,0.0
1664377832028,-1.0058594,0.080078125,-0.07128906,0.25,0.375,-0.03125,0.0,0.0,0.0
1664377832028,-1.0058594,0.080078125,-0.07128906,0.25,0.375,-0.03125,0.0,0.0,0.0
1664377832067,-1.0019531,0.09082031,-0.072265625,1.09375,0.875,-0.09375,0.0,0.0,0.0
1664377832066,-1.0019531,0.09082031,-0.072265625,1.09375,0.875,-0.09375,0.0,0.0,0.0
1664377832109,-1.0166016,0.07910156,-0.06640625,0.375,0.0625,0.1875,0.0,0.0,0.0
1664377832111,-1.0166016,0.07910156,-0.06640625,0.375,0.0625,0.1875,0.0,0.0,0.0
1664377832147,-1.0058594,0.08105469,-0.07421875,-0.375,0.75,-0.03125,-64.9375,-11.0625,-141.625
1664377832147,-1.0058594,0.08105469,-0.07421875,-0.375,0.75,-0.03125,-64.9375,-11.0625,-141.625
1664377832188,-1.0097656,0.0703125,-0.072265625,1.34375,0.3125,-0.03125,0.0,0.0,0.0
1664377832188,-1.0097656,0.0703125,-0.072265625,1.34375,0.3125,-0.03125,0.0,0.0,0.0
1664377832227,-1.0097656,0.078125,-0.06347656,-0.90625,1.0625,-0.09375,0.0,0.0,0.0
1664377832227,-1.0097656,0.078125,-0.06347656,-0.90625,1.0625,-0.09375,0.0,0.0,0.0
1664377832268,-1.0205078,0.076171875,-0.060546875,0.125,0.625,-0.15625,0.0,0.0,0.0
1664377832268,-1.0205078,0.076171875,-0.060546875,0.125,0.625,-0.15625,0.0,0.0,0.0
1664377832308,-1.0126953,0.07714844,-0.068359375,-0.4375,0.5,-0.09375,0.0,0.0,0.0
1664377832308,-1.0126953,0.07714844,-0.068359375,-0.4375,0.5,-0.09375,0.0,0.0,0.0
1664377832349,-1.0107422,0.0703125,-0.06542969,-0.4375,0.5625,-0.09375,0.0,0.0,0.0
1664377832349,-1.0107422,0.0703125,-0.06542969,-0.4375,0.5625,-0.09375,0.0,0.0,0.0
1664377832388,-1.0029297,0.08496094,-0.0859375,-0.6875,1.0,-0.15625,0.0,0.0,0.0
1664377832390,-1.0029297,0.08496094,-0.0859375,-0.6875,1.0,-0.15625,0.0,0.0,0.0
1664377832448,-1.0009766,0.080078125,-0.087890625,-0.5625,0.25,-0.03125,0.0,0.0,0.0
1664377832448,-1.0009766,0.080078125,-0.087890625,-0.5625,0.25,-0.03125,0.0,0.0,0.0
1664377832467,-1.0126953,0.0703125,-0.07519531,0.28125,0.1875,0.03125,0.0,0.0,0.0
1664377832467,-1.0126953,0.0703125,-0.07519531,0.28125,0.1875,0.03125,0.0,0.0,0.0
1664377832507,-1.0136719,0.08496094,-0.0703125,-1.25,0.9375,-0.125,0.0,0.0,0.0
1664377832507,-1.0136719,0.08496094,-0.0703125,-1.25,0.9375,-0.125,0.0,0.0,0.0
1664377832568,-1.0107422,0.076171875,-0.05078125,0.34375,0.125,0.0,0.0,0.0,0.0
1664377832568,-1.0107422,0.076171875,-0.05078125,0.34375,0.125,0.0,0.0,0.0,0.0
1664377832588,-1.0117188,0.080078125,-0.08300781,-0.15625,-0.09375,-0.0625,0.0,0.0,0.0
1664377832587,-1.0117188,0.080078125,-0.08300781,-0.15625,-0.09375,-0.0625,0.0,0.0,0.0
1664377832630,-1.0009766,0.076171875,-0.07714844,-0.09375,-0.40625,0.03125,-65.375,-10.3125,-142.25
1664377832630,-1.0009766,0.076171875,-0.07714844,-0.09375,-0.40625,0.03125,-65.375,-10.3125,-142.25
1664377832667,-1.0009766,0.08300781,-0.08496094,0.46875,0.5,0.15625,0.0,0.0,0.0
1664377832668,-1.0009766,0.08300781,-0.08496094,0.46875,0.5,0.15625,0.0,0.0,0.0
1664377832708,-1.0097656,0.078125,-0.076171875,0.28125,0.03125,0.09375,0.0,0.0,0.0
1664377832708,-1.0097656,0.078125,-0.076171875,0.28125,0.03125,0.09375,0.0,0.0,0.0
1664377832746,-1.0039062,0.07421875,-0.080078125,-0.71875,0.125,-0.125,0.0,0.0,0.0
1664377832746,-1.0039062,0.07421875,-0.080078125,-0.71875,0.125,-0.125,0.0,0.0,0.0
1664377832788,-1.0097656,0.07324219,-0.07421875,0.34375,-0.15625,0.03125,0.0,0.0,0.0
1664377832788,-1.0097656,0.07324219,-0.07421875,0.34375,-0.15625,0.03125,0.0,0.0,0.0
1664377832827,-1.0097656,0.07910156,-0.08496094,-0.09375,-0.09375,0.0,0.0,0.0,0.0
1664377832828,-1.0097656,0.07910156,-0.08496094,-0.09375,-0.09375,0.0,0.0,0.0,0.0
1664377832868,-1.0058594,0.07324219,-0.07421875,-0.53125,-0.34375,0.0,0.0,0.0,0.0
1664377832868,-1.0058594,0.07324219,-0.07421875,-0.53125,-0.34375,0.0,0.0,0.0,0.0
1664377832907,-1.0058594,0.07421875,-0.07910156,-0.28125,0.1875,0.0,0.0,0.0,0.0
1664377832907,-1.0058594,0.07421875,-0.07910156,-0.28125,0.1875,0.0,0.0,0.0,0.0
1664377832948,-1.0097656,0.07714844,-0.07519531,-0.53125,-0.21875,0.09375,0.0,0.0,0.0
1664377832948,-1.0097656,0.07714844,-0.07519531,-0.53125,-0.21875,0.09375,0.0,0.0,0.0
1664377832988,-1.0048828,0.078125,-0.06640625,-0.09375,-0.09375,-0.0625,0.0,0.0,0.0
1664377832988,-1.0048828,0.078125,-0.06640625,-0.09375,-0.09375,-0.0625,0.0,0.0,0.0
1664377833028,-1.0058594,0.08300781,-0.078125,-0.46875,0.0625,0.0,0.0,0.0,0.0
1664377833028,-1.0058594,0.08300781,-0.078125,-0.46875,0.0625,0.0,0.0,0.0,0.0
1664377833067,-1.0166016,0.080078125,-0.07714844,-0.34375,0.3125,0.0,0.0,0.0,0.0
1664377833067,-1.0166016,0.080078125,-0.07714844,-0.34375,0.3125,0.0,0.0,0.0,0.0
1664377833108,-1.0039062,0.076171875,-0.0703125,-0.78125,0.125,0.21875,0.0,0.0,0.0
1664377833108,-1.0039062,0.076171875,-0.0703125,-0.78125,0.125,0.21875,0.0,0.0,0.0
1664377833148,-1.0107422,0.07324219,-0.07128906,-0.65625,-0.15625,0.03125,-66.625,-10.9375,-142.875
1664377833148,-1.0107422,0.07324219,-0.07128906,-0.65625,-0.15625,0.03125,-66.625,-10.9375,-142.875
1664377833207,-1.0019531,0.080078125,-0.07714844,-1.1875,-0.03125,-0.375,0.0,0.0,0.0
1664377833207,-1.0019531,0.080078125,-0.07714844,-1.1875,-0.03125,-0.375,0.0,0.0,0.0
1664377833227,-1.0117188,0.078125,-0.072265625,-0.65625,-0.28125,0.03125,0.0,0.0,0.0
1664377833227,-1.0117188,0.078125,-0.072265625,-0.65625,-0.28125,0.03125,0.0,0.0,0.0
1664377833267,-1.0087891,0.07714844,-0.07421875,-0.03125,-0.28125,0.03125,0.0,0.0,0.0
1664377833268,-1.0087891,0.07714844,-0.07421875,-0.03125,-0.28125,0.03125,0.0,0.0,0.0
1664377833307,-1.0078125,0.078125,-0.0859375,-0.09375,-0.15625,-0.125,0.0,0.0,0.0
1664377833307,-1.0078125,0.078125,-0.0859375,-0.09375,-0.15625,-0.125,0.0,0.0,0.0
1664377833348,-1.0107422,0.0859375,-0.07910156,0.40625,0.03125,0.0,0.0,0.0,0.0
1664377833348,-1.0107422,0.0859375,-0.07910156,0.40625,0.03125,0.0,0.0,0.0,0.0
1664377833387,-1.0058594,0.07714844,-0.078125,-0.03125,0.03125,0.15625,0.0,0.0,0.0
1664377833387,-1.0058594,0.07714844,-0.078125,-0.03125,0.03125,0.15625,0.0,0.0,0.0
1664377833427,-1.0048828,0.08105469,-0.07324219,0.21875,0.125,0.0,0.0,0.0,0.0
1664377833430,-1.0048828,0.08105469,-0.07324219,0.21875,0.125,0.0,0.0,0.0,0.0
1664377833467,-1.0195312,0.07519531,-0.07519531,-0.21875,-0.21875,0.03125,0.0,0.0,0.0
1664377833467,-1.0195312,0.07519531,-0.07519531,-0.21875,-0.21875,0.03125,0.0,0.0,0.0
1664377833510,-1.0107422,0.072265625,-0.07421875,0.15625,-0.65625,0.21875,0.0,0.0,0.0
1664377833510,-1.0107422,0.072265625,-0.07421875,0.15625,-0.65625,0.21875,0.0,0.0,0.0
1664377833549,-1.0136719,0.07324219,-0.080078125,-0.21875,-0.09375,0.15625,0.0,0.0,0.0
1664377833549,-1.0136719,0.07324219,-0.080078125,-0.21875,-0.09375,0.15625,0.0,0.0,0.0
1664377833589,-1.0068359,0.080078125,-0.06542969,-0.53125,0.0625,0.03125,0.0,0.0,0.0
1664377833589,-1.0068359,0.080078125,-0.06542969,-0.53125,0.0625,0.03125,0.0,0.0,0.0
1664377833627,-1.0068359,0.07714844,-0.07910156,-0.09375,-0.28125,-0.125,-66.75,-9.25,-141.1875
1664377833627,-1.0068359,0.07714844,-0.07910156,-0.09375,-0.28125,-0.125,-66.75,-9.25,-141.1875
1664377833668,-1.015625,0.08300781,-0.06640625,-0.28125,-0.03125,0.03125,0.0,0.0,0.0
1664377833668,-1.015625,0.08300781,-0.06640625,-0.28125,-0.03125,0.03125,0.0,0.0,0.0
1664377833709,-1.0087891,0.07714844,-0.06933594,-0.15625,0.6875,-0.125,0.0,0.0,0.0
1664377833709,-1.0087891,0.07714844,-0.06933594,-0.15625,0.6875,-0.125,0.0,0.0,0.0
1664377833747,-0.99902344,0.07910156,-0.0703125,-0.46875,-0.21875,-0.0625,0.0,0.0,0.0
1664377833747,-0.99902344,0.07910156,-0.0703125,-0.46875,-0.21875,-0.0625,0.0,0.0,0.0
1664377833787,-1.0097656,0.07324219,-0.08203125,0.21875,0.0625,0.15625,0.0,0.0,0.0
1664377833788,-1.0097656,0.07324219,-0.08203125,0.21875,0.0625,0.15625,0.0,0.0,0.0
1664377833829,-1.0029297,0.07714844,-0.080078125,-1.6875,0.0625,-0.25,0.0,0.0,0.0
1664377833829,-1.0029297,0.07714844,-0.080078125,-1.6875,0.0625,-0.25,0.0,0.0,0.0
1664377833867,-1.0117188,0.07421875,-0.08496094,-0.03125,-0.03125,-0.1875,0.0,0.0,0.0
1664377833867,-1.0117188,0.07421875,-0.08496094,-0.03125,-0.03125,-0.1875,0.0,0.0,0.0
1664377833907,-1.0058594,0.080078125,-0.07714844,-0.65625,-0.53125,0.0,0.0,0.0,0.0
1664377833908,-1.0058594,0.080078125,-0.07714844,-0.65625,-0.53125,0.0,0.0,0.0,0.0
1664377833967,-1.0097656,0.07421875,-0.07714844,0.21875,-0.15625,0.0,0.0,0.0,0.0
1664377833968,-1.0097656,0.07421875,-0.07714844,0.21875,-0.15625,0.0,0.0,0.0,0.0
1664377833987,-1.0136719,0.07324219,-0.099609375,-0.21875,0.1875,-0.0625,0.0,0.0,0.0
1664377833987,-1.0136719,0.07324219,-0.099609375,-0.21875,0.1875,-0.0625,0.0,0.0,0.0
1664377834027,-1.0068359,0.07714844,-0.07128906,-0.46875,-0.15625,-0.0625,0.0,0.0,0.0
1664377834030,-1.0068359,0.07714844,-0.07128906,-0.46875,-0.15625,-0.0625,0.0,0.0,0.0
1664377834067,-1.0087891,0.07519531,-0.080078125,0.34375,-0.03125,-0.125,0.0,0.0,0.0
1664377834067,-1.0087891,0.07519531,-0.080078125,0.34375,-0.03125,-0.125,0.0,0.0,0.0
1664377834107,-1.0097656,0.078125,-0.07128906,-0.09375,-0.21875,-0.1875,0.0,0.0,0.0
1664377834107,-1.0097656,0.078125,-0.07128906,-0.09375,-0.21875,-0.1875,0.0,0.0,0.0
1664377834147,-1.0146484,0.07519531,-0.08105469,-0.65625,-0.21875,-0.1875,-66.0,-9.5625,-141.9375
1664377834147,-1.0146484,0.07519531,-0.08105469,-0.65625,-0.21875,-0.1875,-66.0,-9.5625,-141.9375
1664377834187,-1.0029297,0.07714844,-0.08300781,0.03125,-0.34375,0.0,0.0,0.0,0.0
1664377834187,-1.0029297,0.07714844,-0.08300781,0.03125,-0.34375,0.0,0.0,0.0,0.0
1664377834227,-1.0058594,0.07519531,-0.080078125,-0.59375,-0.15625,-0.0625,0.0,0.0,0.0
1664377834227,-1.0058594,0.07519531,-0.080078125,-0.59375,-0.15625,-0.0625,0.0,0.0,0.0
1664377834267,-1.0019531,0.07910156,-0.0703125,-0.40625,-0.09375,-0.125,0.0,0.0,0.0
1664377834267,-1.0019531,0.07910156,-0.0703125,-0.40625,-0.09375,-0.125,0.0,0.0,0.0
1664377834327,-1.015625,0.07519531,-0.0703125,-0.09375,-0.65625,-0.0625,0.0,0.0,0.0
1664377834327,-1.015625,0.07519531,-0.0703125,-0.09375,-0.65625,-0.0625,0.0,0.0,0.0
1664377834346,-1.0039062,0.07519531,-0.07128906,-0.40625,-0.03125,-0.0625,0.0,0.0,0.0
1664377834346,-1.0039062,0.07519531,-0.07128906,-0.40625,-0.03125,-0.0625,0.0,0.0,0.0
1664377834387,-1.0117188,0.07324219,-0.06738281,0.21875,0.0625,-0.125,0.0,0.0,0.0
1664377834393,-1.0117188,0.07324219,-0.06738281,0.21875,0.0625,-0.125,0.0,0.0,0.0
1664377834427,-1.0029297,0.07910156,-0.07128906,-0.59375,-0.40625,0.0,0.0,0.0,0.0
1664377834427,-1.0029297,0.07910156,-0.07128906,-0.59375,-0.40625,0.0,0.0,0.0,0.0
1664377834468,-1.0068359,0.0703125,-0.0703125,-0.59375,-0.21875,0.0,0.0,0.0,0.0
1664377834468,-1.0068359,0.0703125,-0.0703125,-0.59375,-0.21875,0.0,0.0,0.0,0.0
1664377834507,-1.0107422,0.07519531,-0.060546875,-0.34375,0.0625,-0.1875,0.0,0.0,0.0
1664377834509,-1.0107422,0.07519531,-0.060546875,-0.34375,0.0625,-0.1875,0.0,0.0,0.0
1664377834567,-1.0068359,0.072265625,-0.06933594,-0.34375,-0.40625,-0.0625,0.0,0.0,0.0
1664377834570,-1.0068359,0.072265625,-0.06933594,-0.34375,-0.40625,-0.0625,0.0,0.0,0.0
1664377834587,-1.0019531,0.06933594,-0.08984375,-0.21875,-0.46875,-0.125,0.0,0.0,0.0
1664377834587,-1.0019531,0.06933594,-0.08984375,-0.21875,-0.46875,-0.125,0.0,0.0,0.0
1664377834627,-1.0039062,0.07519531,-0.09082031,-0.78125,-0.46875,0.09375,-65.125,-8.375,-142.125
1664377834628,-1.0039062,0.07519531,-0.09082031,-0.78125,-0.46875,0.09375,-65.125,-8.375,-142.125
1664377834668,-1.0126953,0.07519531,-0.078125,0.15625,-0.40625,-0.25,0.0,0.0,0.0
1664377834668,-1.0126953,0.07519531,-0.078125,0.15625,-0.40625,-0.25,0.0,0.0,0.0
1664377834728,-1.0097656,0.080078125,-0.072265625,0.21875,-0.65625,0.0,0.0,0.0,0.0
1664377834728,-1.0097656,0.080078125,-0.072265625,0.21875,-0.65625,0.0,0.0,0.0,0.0
1664377834747,-1.0126953,0.087890625,-0.07128906,-0.53125,-0.53125,-0.0625,0.0,0.0,0.0
1664377834747,-1.0126953,0.087890625,-0.07128906,-0.53125,-0.53125,-0.0625,0.0,0.0,0.0
1664377834787,-1.0039062,0.07128906,-0.08105469,0.03125,-0.40625,0.03125,0.0,0.0,0.0
1664377834787,-1.0039062,0.07128906,-0.08105469,0.03125,-0.40625,0.03125,0.0,0.0,0.0
1664377834828,-1.0117188,0.07519531,-0.078125,0.625,-0.65625,0.0,0.0,0.0,0.0
1664377834828,-1.0117188,0.07519531,-0.078125,0.625,-0.65625,0.0,0.0,0.0,0.0
1664377834867,-1.0058594,0.07519531,-0.078125,-0.21875,-0.28125,-0.0625,0.0,0.0,0.0
1664377834867,-1.0058594,0.07519531,-0.078125,-0.21875,-0.28125,-0.0625,0.0,0.0,0.0
1664377834908,-1.0039062,0.076171875,-0.08105469,0.46875,-0.28125,0.09375,0.0,0.0,0.0
1664377834910,-1.0039062,0.076171875,-0.08105469,0.46875,-0.28125,0.09375,0.0,0.0,0.0
1664377834948,-1.0009766,0.07324219,-0.07910156,-0.21875,-0.15625,0.0,0.0,0.0,0.0
1664377834948,-1.0009766,0.07324219,-0.07910156,-0.21875,-0.15625,0.0,0.0,0.0,0.0
1664377834987,-1.0117188,0.076171875,-0.06738281,0.46875,-0.03125,0.0,0.0,0.0,0.0
1664377834987,-1.0117188,0.076171875,-0.06738281,0.46875,-0.03125,0.0,0.0,0.0,0.0
1664377835028,-1.0039062,0.06933594,-0.06640625,-0.03125,-0.21875,-0.1875,0.0,0.0,0.0
1664377835028,-1.0039062,0.06933594,-0.06640625,-0.03125,-0.21875,-0.1875,0.0,0.0,0.0
1664377835067,-1.015625,0.07910156,-0.091796875,0.15625,-0.21875,-0.0625,0.0,0.0,0.0
1664377835067,-1.015625,0.07910156,-0.091796875,0.15625,-0.21875,-0.0625,0.0,0.0,0.0
1664377835107,-0.9980469,0.08300781,-0.078125,0.15625,-0.59375,0.09375,0.0,0.0,0.0
1664377835107,-0.9980469,0.08300781,-0.078125,0.15625,-0.59375,0.09375,0.0,0.0,0.0
1664377835148,-1.0097656,0.076171875,-0.078125,-0.53125,-0.03125,0.03125,-66.3125,-9.4375,-142.875
1664377835148,-1.0097656,0.076171875,-0.078125,-0.53125,-0.03125,0.03125,-66.3125,-9.4375,-142.875
1664377835187,-1.0039062,0.07519531,-0.07128906,-0.21875,-0.09375,-0.1875,0.0,0.0,0.0
1664377835187,-1.0039062,0.07519531,-0.07128906,-0.21875,-0.09375,-0.1875,0.0,0.0,0.0
1664377835228,-1.0068359,0.07910156,-0.07519531,-0.40625,-0.78125,-0.125,0.0,0.0,0.0
1664377835228,-1.0068359,0.07910156,-0.07519531,-0.40625,-0.78125,-0.125,0.0,0.0,0.0
1664377835268,-1.0039062,0.080078125,-0.078125,1.3125,-0.40625,0.15625,0.0,0.0,0.0
1664377835268,-1.0039062,0.080078125,-0.078125,1.3125,-0.40625,0.15625,0.0,0.0,0.0
1664377835307,-1.015625,0.078125,-0.07910156,-0.03125,0.03125,0.09375,0.0,0.0,0.0
1664377835307,-1.015625,0.078125,-0.07910156,-0.03125,0.03125,0.09375,0.0,0.0,0.0
1664377835348,-1.0029297,0.07714844,-0.068359375,0.21875,0.4375,0.09375,0.0,0.0,0.0
1664377835348,-1.0029297,0.07714844,-0.068359375,0.21875,0.4375,0.09375,0.0,0.0,0.0
1664377835387,-1.0117188,0.078125,-0.07128906,1.3125,-0.03125,0.03125,0.0,0.0,0.0
1664377835387,-1.0117188,0.078125,-0.07128906,1.3125,-0.03125,0.03125,0.0,0.0,0.0
1664377835428,-1.0126953,0.07910156,-0.064453125,0.21875,0.6875,0.03125,0.0,0.0,0.0
1664377835428,-1.0126953,0.07910156,-0.064453125,0.21875,0.6875,0.03125,0.0,0.0,0.0
1664377835486,-1.0068359,0.07421875,-0.06542969,0.875,-0.15625,0.15625,0.0,0.0,0.0
1664377835486,-1.0068359,0.07421875,-0.06542969,0.875,-0.15625,0.15625,0.0,0.0,0.0
1664377835506,-1.0029297,0.08203125,-0.076171875,-0.21875,0.125,-0.0625,0.0,0.0,0.0
1664377835507,-1.0029297,0.08203125,-0.076171875,-0.21875,0.125,-0.0625,0.0,0.0,0.0
1664377835548,-1.0136719,0.07421875,-0.080078125,-0.40625,0.1875,-0.25,0.0,0.0,0.0
1664377835548,-1.0136719,0.07421875,-0.080078125,-0.40625,0.1875,-0.25,0.0,0.0,0.0
1664377835588,-1.0097656,0.07714844,-0.064453125,0.28125,-0.09375,-0.125,0.0,0.0,0.0
1664377835588,-1.0097656,0.07714844,-0.064453125,0.28125,-0.09375,-0.125,0.0,0.0,0.0
1664377835628,-1.0136719,0.08105469,-0.080078125,-1.0625,0.4375,-0.25,-66.4375,-8.1875,-142.6875
1664377835628,-1.0136719,0.08105469,-0.080078125,-1.0625,0.4375,-0.25,-66.4375,-8.1875,-142.6875
1664377835667,-1.0097656,0.07421875,-0.06933594,-0.84375,-0.15625,-0.0625,0.0,0.0,0.0
1664377835667,-1.0097656,0.07421875,-0.06933594,-0.84375,-0.15625,-0.0625,0.0,0.0,0.0
1664377835707,-1.015625,0.07910156,-0.07714844,-0.71875,0.625,-0.3125,0.0,0.0,0.0
1664377835707,-1.015625,0.07910156,-0.07714844,-0.71875,0.625,-0.3125,0.0,0.0,0.0
1664377835748,-1.0087891,0.06640625,-0.07324219,-1.0625,-0.21875,0.03125,0.0,0.0,0.0
1664377835748,-1.0087891,0.06640625,-0.07324219,-1.0625,-0.21875,0.03125,0.0,0.0,0.0
1664377835788,-1.0146484,0.07714844,-0.07324219,-0.65625,0.4375,-0.125,0.0,0.0,0.0
1664377835790,-1.0146484,0.07714844,-0.07324219,-0.65625,0.4375,-0.125,0.0,0.0,0.0
1664377835828,-1.0175781,0.08203125,-0.07128906,0.09375,0.3125,-0.1875,0.0,0.0,0.0
1664377835830,-1.0175781,0.08203125,-0.07128906,0.09375,0.3125,-0.1875,0.0,0.0,0.0
1664377835867,-1.0117188,0.080078125,-0.07421875,-0.09375,-0.46875,-0.125,0.0,0.0,0.0
1664377835867,-1.0117188,0.080078125,-0.07421875,-0.09375,-0.46875,-0.125,0.0,0.0,0.0
1664377835907,-1.0126953,0.07324219,-0.057617188,-0.65625,-0.21875,0.0,0.0,0.0,0.0
1664377835907,-1.0126953,0.07324219,-0.057617188,-0.65625,-0.21875,0.0,0.0,0.0,0.0
1664377835947,-1.0058594,0.07421875,-0.07421875,0.625,0.03125,0.03125,0.0,0.0,0.0
1664377835947,-1.0058594,0.07421875,-0.07421875,0.625,0.03125,0.03125,0.0,0.0,0.0
1664377835988,-1.0146484,0.07910156,-0.078125,0.03125,0.125,0.0,0.0,0.0,0.0
1664377835988,-1.0146484,0.07910156,-0.078125,0.03125,0.125,0.0,0.0,0.0,0.0
1664377836027,-1.0068359,0.08300781,-0.078125,0.03125,0.1875,-0.0625,0.0,0.0,0.0
1664377836027,-1.0068359,0.08300781,-0.078125,0.03125,0.1875,-0.0625,0.0,0.0,0.0
1664377836067,-1.0087891,0.08105469,-0.080078125,-0.34375,-0.03125,0.0,0.0,0.0,0.0
1664377836068,-1.0087891,0.08105469,-0.080078125,-0.34375,-0.03125,0.0,0.0,0.0,0.0
1664377836109,-1.0039062,0.08203125,-0.08105469,-0.34375,-0.03125,-0.0625,0.0,0.0,0.0
1664377836107,-1.0039062,0.08203125,-0.08105469,-0.34375,-0.03125,-0.0625,0.0,0.0,0.0
1664377836148,-1.0068359,0.07421875,-0.06738281,-0.03125,-0.40625,0.09375,-66.0,-8.5,-142.25
1664377836148,-1.0068359,0.07421875,-0.06738281,-0.03125,-0.40625,0.09375,-66.0,-8.5,-142.25
1664377836187,-1.0078125,0.0703125,-0.08203125,-1.0625,-0.28125,-0.25,0.0,0.0,0.0
1664377836187,-1.0078125,0.0703125,-0.08203125,-1.0625,-0.28125,-0.25,0.0,0.0,0.0
1664377836247,-1.0166016,0.07910156,-0.06640625,0.40625,0.125,0.03125,0.0,0.0,0.0
1664377836247,-1.0166016,0.07910156,-0.06640625,0.40625,0.125,0.03125,0.0,0.0,0.0
1664377836267,-1.0,0.080078125,-0.08105469,-0.71875,-0.46875,-0.125,0.0,0.0,0.0
1664377836267,-1.0,0.080078125,-0.08105469,-0.71875,-0.46875,-0.125,0.0,0.0,0.0
1664377836307,-1.0146484,0.078125,-0.078125,-0.78125,-0.03125,-0.1875,0.0,0.0,0.0
1664377836309,-1.0146484,0.078125,-0.078125,-0.78125,-0.03125,-0.1875,0.0,0.0,0.0
1664377836348,-1.0117188,0.076171875,-0.0703125,0.6875,-0.09375,0.0,0.0,0.0,0.0
1664377836348,-1.0117188,0.076171875,-0.0703125,0.6875,-0.09375,0.0,0.0,0.0,0.0
1664377836388,-1.0,0.080078125,-0.080078125,-1.25,-0.28125,-0.0625,0.0,0.0,0.0
1664377836388,-1.0,0.080078125,-0.080078125,-1.25,-0.28125,-0.0625,0.0,0.0,0.0
1664377836428,-1.0136719,0.07128906,-0.076171875,0.21875,-0.03125,0.15625,0.0,0.0,0.0
1664377836429,-1.0136719,0.07128906,-0.076171875,0.21875,-0.03125,0.15625,0.0,0.0,0.0
1664377836467,-1.0097656,0.080078125,-0.0859375,-0.59375,0.03125,-0.25,0.0,0.0,0.0
1664377836467,-1.0097656,0.080078125,-0.0859375,-0.59375,0.03125,-0.25,0.0,0.0,0.0
1664377836507,-1.0029297,0.08105469,-0.06640625,0.21875,-0.34375,-0.0625,0.0,0.0,0.0
1664377836507,-1.0029297,0.08105469,-0.06640625,0.21875,-0.34375,-0.0625,0.0,0.0,0.0
1664377836547,-1.0107422,0.07324219,-0.06933594,-0.84375,-0.53125,-0.125,0.0,0.0,0.0
1664377836548,-1.0107422,0.07324219,-0.06933594,-0.84375,-0.53125,-0.125,0.0,0.0,0.0
1664377836587,-1.0029297,0.07714844,-0.08105469,0.875,-0.21875,0.03125,0.0,0.0,0.0
1664377836588,-1.0029297,0.07714844,-0.08105469,0.875,-0.21875,0.03125,0.0,0.0,0.0
1664377836627,-1.0117188,0.076171875,-0.07128906,0.15625,0.03125,-0.1875,-65.375,-9.5625,-141.9375
1664377836627,-1.0117188,0.076171875,-0.07128906,0.15625,0.03125,-0.1875,-65.375,-9.5625,-141.9375
1664377836669,-1.0068359,0.07910156,-0.08691406,-0.09375,-0.15625,0.0,0.0,0.0,0.0
1664377836669,-1.0068359,0.07910156,-0.08691406,-0.09375,-0.15625,0.0,0.0,0.0,0.0
1664377836707,-1.0097656,0.078125,-0.078125,0.5625,-0.21875,-0.0625,0.0,0.0,0.0
1664377836708,-1.0097656,0.078125,-0.078125,0.5625,-0.21875,-0.0625,0.0,0.0,0.0
1664377836747,-1.0097656,0.076171875,-0.0625,-0.21875,-0.65625,-0.125,0.0,0.0,0.0
1664377836747,-1.0097656,0.076171875,-0.0625,-0.21875,-0.65625,-0.125,0.0,0.0,0.0
1664377836787,-1.0058594,0.07714844,-0.08105469,0.21875,-0.15625,-0.125,0.0,0.0,0.0
1664377836789,-1.0058594,0.07714844,-0.08105469,0.21875,-0.15625,-0.125,0.0,0.0,0.0
1664377836827,-1.0107422,0.078125,-0.06640625,-0.09375,-0.46875,-0.1875,0.0,0.0,0.0
1664377836827,-1.0107422,0.078125,-0.06640625,-0.09375,-0.46875,-0.1875,0.0,0.0,0.0
1664377836867,-1.0048828,0.07519531,-0.06738281,-0.71875,-0.03125,-0.125,0.0,0.0,0.0
1664377836867,-1.0048828,0.07519531,-0.06738281,-0.71875,-0.03125,-0.125,0.0,0.0,0.0
1664377836928,-1.0097656,0.076171875,-0.06933594,-0.53125,-0.21875,0.0,0.0,0.0,0.0
1664377836928,-1.0097656,0.076171875,-0.06933594,-0.53125,-0.21875,0.0,0.0,0.0,0.0
1664377836946,-1.0136719,0.07519531,-0.06933594,-0.28125,-0.34375,-0.3125,0.0,0.0,0.0
1664377836946,-1.0136719,0.07519531,-0.06933594,-0.28125,-0.34375,-0.3125,0.0,0.0,0.0
1664377837007,-1.0039062,0.07714844,-0.0625,-0.46875,-0.03125,-0.1875,0.0,0.0,0.0
1664377837007,-1.0039062,0.07714844,-0.0625,-0.46875,-0.03125,-0.1875,0.0,0.0,0.0
1664377837027,-1.0039062,0.07714844,-0.068359375,-0.71875,-0.15625,0.03125,0.0,0.0,0.0
1664377837027,-1.0039062,0.07714844,-0.068359375,-0.71875,-0.15625,0.03125,0.0,0.0,0.0
1664377837068,-1.0117188,0.07519531,-0.07421875,-0.09375,-0.28125,0.09375,0.0,0.0,0.0
1664377837068,-1.0117188,0.07519531,-0.07421875,-0.09375,-0.28125,0.09375,0.0,0.0,0.0
1664377837127,-1.0058594,0.06640625,-0.0625,-1.625,-0.09375,-0.25,0.0,0.0,0.0
1664377837128,-1.0058594,0.06640625,-0.0625,-1.625,-0.09375,-0.25,0.0,0.0,0.0
1664377837146,-1.0126953,0.07910156,-0.076171875,0.21875,-0.15625,-0.25,-66.0,-9.25,-139.5625
1664377837146,-1.0126953,0.07910156,-0.076171875,0.21875,-0.15625,-0.25,-66.0,-9.25,-139.5625
1664377837187,-1.0039062,0.078125,-0.06640625,-0.84375,-0.34375,-0.3125,0.0,0.0,0.0
1664377837187,-1.0039062,0.078125,-0.06640625,-0.84375,-0.34375,-0.3125,0.0,0.0,0.0
1664377837228,-1.0019531,0.07519531,-0.064453125,0.5,-0.34375,0.0,0.0,0.0,0.0
1664377837228,-1.0019531,0.07519531,-0.064453125,0.5,-0.34375,0.0,0.0,0.0,0.0
1664377837267,-1.0097656,0.07714844,-0.0625,0.03125,-0.09375,-0.0625,0.0,0.0,0.0
1664377837268,-1.0097656,0.07714844,-0.0625,0.03125,-0.09375,-0.0625,0.0,0.0,0.0
1664377837307,-1.0126953,0.078125,-0.061523438,0.46875,-0.15625,0.03125,0.0,0.0,0.0
1664377837307,-1.0126953,0.078125,-0.061523438,0.46875,-0.15625,0.03125,0.0,0.0,0.0
1664377837348,-1.0058594,0.080078125,-0.076171875,0.6875,0.0625,-0.0625,0.0,0.0,0.0
1664377837348,-1.0058594,0.080078125,-0.076171875,0.6875,0.0625,-0.0625,0.0,0.0,0.0
1664377837387,-1.0117188,0.07421875,-0.060546875,-0.28125,-0.21875,-0.0625,0.0,0.0,0.0
1664377837387,-1.0117188,0.07421875,-0.060546875,-0.28125,-0.21875,-0.0625,0.0,0.0,0.0
1664377837427,-1.0048828,0.08105469,-0.07910156,0.46875,-0.21875,0.03125,0.0,0.0,0.0
1664377837427,-1.0048828,0.08105469,-0.07910156,0.46875,-0.21875,0.03125,0.0,0.0,0.0
1664377837467,-1.0087891,0.07421875,-0.07421875,0.09375,-0.15625,0.03125,0.0,0.0,0.0
1664377837467,-1.0087891,0.07421875,-0.07421875,0.09375,-0.15625,0.03125,0.0,0.0,0.0
1664377837507,-1.0097656,0.08300781,-0.07128906,-0.03125,-0.03125,-0.1875,0.0,0.0,0.0
1664377837507,-1.0097656,0.08300781,-0.07128906,-0.03125,-0.03125,-0.1875,0.0,0.0,0.0
1664377837548,-1.0058594,0.076171875,-0.07714844,-0.875,0.125,-0.0625,0.0,0.0,0.0
1664377837548,-1.0058594,0.076171875,-0.07714844,-0.875,0.125,-0.0625,0.0,0.0,0.0
1664377837587,-1.0166016,0.07421875,-0.059570312,-0.15625,0.125,0.09375,0.0,0.0,0.0
1664377837587,-1.0166016,0.07421875,-0.059570312,-0.15625,0.125,0.09375,0.0,0.0,0.0
1664377837627,-1.0029297,0.076171875,-0.060546875,-0.65625,0.25,-0.1875,-65.125,-8.375,-142.375
1664377837627,-1.0029297,0.076171875,-0.060546875,-0.65625,0.25,-0.1875,-65.125,-8.375,-142.375
1664377837667,-1.0214844,0.07910156,-0.064453125,0.09375,0.375,0.09375,0.0,0.0,0.0
1664377837667,-1.0214844,0.07910156,-0.064453125,0.09375,0.375,0.09375,0.0,0.0,0.0
1664377837708,-1.0136719,0.07910156,-0.06640625,-0.34375,0.0625,0.09375,0.0,0.0,0.0
1664377837710,-1.0136719,0.07910156,-0.06640625,-0.34375,0.0625,0.09375,0.0,0.0,0.0
1664377837767,-1.0048828,0.07714844,-0.061523438,-1.1875,0.1875,0.15625,0.0,0.0,0.0
1664377837767,-1.0048828,0.07714844,-0.061523438,-1.1875,0.1875,0.15625,0.0,0.0,0.0
1664377837787,-1.0126953,0.07714844,-0.07910156,-0.59375,-0.03125,0.0,0.0,0.0,0.0
1664377837787,-1.0126953,0.07714844,-0.07910156,-0.59375,-0.03125,0.0,0.0,0.0,0.0
1664377837827,-1.0097656,0.07421875,-0.08105469,-0.46875,-0.28125,0.0,0.0,0.0,0.0
1664377837827,-1.0097656,0.07421875,-0.08105469,-0.46875,-0.28125,0.0,0.0,0.0,0.0
1664377837867,-1.0117188,0.06933594,-0.07714844,1.25,-0.53125,0.03125,0.0,0.0,0.0
1664377837867,-1.0117188,0.06933594,-0.07714844,1.25,-0.53125,0.03125,0.0,0.0,0.0
1664377837908,-1.0087891,0.08203125,-0.07421875,-0.71875,0.125,0.09375,0.0,0.0,0.0
1664377837908,-1.0087891,0.08203125,-0.07421875,-0.71875,0.125,0.09375,0.0,0.0,0.0
1664377837947,-1.0087891,0.07421875,-0.0703125,1.75,0.1875,0.21875,0.0,0.0,0.0
1664377837948,-1.0087891,0.07421875,-0.0703125,1.75,0.1875,0.21875,0.0,0.0,0.0
1664377837987,-1.0058594,0.08984375,-0.08300781,0.28125,0.0625,0.09375,0.0,0.0,0.0
1664377837988,-1.0058594,0.08984375,-0.08300781,0.28125,0.0625,0.09375,0.0,0.0,0.0
1664377838028,-1.0136719,0.07421875,-0.07714844,0.5625,-0.21875,0.09375,0.0,0.0,0.0
1664377838028,-1.0136719,0.07421875,-0.07714844,0.5625,-0.21875,0.09375,0.0,0.0,0.0
1664377838068,-1.0146484,0.07910156,-0.08886719,0.46875,-0.15625,0.21875,0.0,0.0,0.0
1664377838068,-1.0146484,0.07910156,-0.08886719,0.46875,-0.15625,0.21875,0.0,0.0,0.0
1664377838107,-1.0097656,0.080078125,-0.07421875,0.03125,-0.03125,-0.0625,0.0,0.0,0.0
1664377838108,-1.0097656,0.080078125,-0.07421875,0.03125,-0.03125,-0.0625,0.0,0.0,0.0
1664377838148,-1.0097656,0.07714844,-0.0703125,0.15625,0.375,-0.0625,-66.4375,-9.5625,-141.9375
1664377838148,-1.0097656,0.07714844,-0.0703125,0.15625,0.375,-0.0625,-66.4375,-9.5625,-141.9375
1664377838187,-1.0048828,0.07910156,-0.08203125,-0.34375,0.5,0.09375,0.0,0.0,0.0
1664377838187,-1.0048828,0.07910156,-0.08203125,-0.34375,0.5,0.09375,0.0,0.0,0.0
1664377838227,-1.0097656,0.087890625,-0.07324219,-0.34375,0.125,0.09375,0.0,0.0,0.0
1664377838227,-1.0097656,0.087890625,-0.07324219,-0.34375,0.125,0.09375,0.0,0.0,0.0
1664377838270,-0.99316406,0.07519531,-0.07324219,-0.78125,0.3125,0.0,0.0,0.0,0.0
1664377838270,-0.99316406,0.07519531,-0.07324219,-0.78125,0.3125,0.0,0.0,0.0,0.0
1664377838308,-1.0136719,0.0703125,-0.0703125,-0.59375,0.625,0.03125,0.0,0.0,0.0
1664377838307,-1.0136719,0.0703125,-0.0703125,-0.59375,0.625,0.03125,0.0,0.0,0.0
1664377838347,-1.0029297,0.078125,-0.06347656,-0.03125,-0.53125,0.28125,0.0,0.0,0.0
1664377838347,-1.0029297,0.078125,-0.06347656,-0.03125,-0.53125,0.28125,0.0,0.0,0.0
1664377838389,-1.0019531,0.07128906,-0.06738281,0.21875,-0.71875,0.34375,0.0,0.0,0.0
1664377838389,-1.0019531,0.07128906,-0.06738281,0.21875,-0.71875,0.34375,0.0,0.0,0.0
1664377838426,-1.0195312,0.078125,-0.080078125,-0.03125,-0.03125,-0.1875,0.0,0.0,0.0
1664377838426,-1.0195312,0.078125,-0.080078125,-0.03125,-0.03125,-0.1875,0.0,0.0,0.0
1664377838468,-1.0136719,0.076171875,-0.07910156,1.78125,-0.28125,0.03125,0.0,0.0,0.0
1664377838468,-1.0136719,0.076171875,-0.07910156,1.78125,-0.28125,0.03125,0.0,0.0,0.0
1664377838526,-1.0097656,0.07324219,-0.06738281,1.0625,0.03125,0.09375,0.0,0.0,0.0
1664377838527,-1.0097656,0.07324219,-0.06738281,1.0625,0.03125,0.09375,0.0,0.0,0.0
1664377838547,-1.0087891,0.08105469,-0.07421875,2.15625,-0.28125,0.09375,0.0,0.0,0.0
1664377838548,-1.0087891,0.08105469,-0.07421875,2.15625,-0.28125,0.09375,0.0,0.0,0.0
1664377838587,-1.0029297,0.095703125,-0.07421875,1.125,0.6875,0.03125,0.0,0.0,0.0
1664377838589,-1.0029297,0.095703125,-0.07421875,1.125,0.6875,0.03125,0.0,0.0,0.0
1664377838629,-1.0087891,0.08300781,-0.06933594,1.5,0.1875,0.46875,-65.375,-10.0,-141.1875
1664377838629,-1.0087891,0.08300781,-0.06933594,1.5,0.1875,0.46875,-65.375,-10.0,-141.1875
1664377838668,-1.0117188,0.07910156,-0.07421875,1.375,0.03125,0.15625,0.0,0.0,0.0
1664377838668,-1.0117188,0.07910156,-0.07421875,1.375,0.03125,0.15625,0.0,0.0,0.0
1664377838707,-1.0136719,0.08300781,-0.06640625,0.8125,0.1875,0.21875,0.0,0.0,0.0
1664377838707,-1.0136719,0.08300781,-0.06640625,0.8125,0.1875,0.21875,0.0,0.0,0.0
1664377838748,-1.0117188,0.08496094,-0.08105469,0.625,0.3125,-0.0625,0.0,0.0,0.0
1664377838748,-1.0117188,0.08496094,-0.08105469,0.625,0.3125,-0.0625,0.0,0.0,0.0
1664377838788,-1.0029297,0.08203125,-0.07519531,0.09375,0.3125,0.0,0.0,0.0,0.0
1664377838789,-1.0029297,0.08203125,-0.07519531,0.09375,0.3125,0.0,0.0,0.0,0.0
1664377838828,-1.0068359,0.080078125,-0.0703125,-0.40625,0.25,-0.0625,0.0,0.0,0.0
1664377838828,-1.0068359,0.080078125,-0.0703125,-0.40625,0.25,-0.0625,0.0,0.0,0.0
1664377838868,-1.0146484,0.07324219,-0.09082031,-0.84375,0.3125,-0.0625,0.0,0.0,0.0
1664377838868,-1.0146484,0.07324219,-0.09082031,-0.84375,0.3125,-0.0625,0.0,0.0,0.0
1664377838907,-1.0097656,0.083984375,-0.080078125,-1.0,0.125,-0.125,0.0,0.0,0.0
1664377838907,-1.0097656,0.083984375,-0.080078125,-1.0,0.125,-0.125,0.0,0.0,0.0
1664377838946,-1.0107422,0.07324219,-0.06738281,-1.375,0.75,-0.0625,0.0,0.0,0.0
1664377838946,-1.0107422,0.07324219,-0.06738281,-1.375,0.75,-0.0625,0.0,0.0,0.0
1664377838988,-1.0117188,0.078125,-0.072265625,-0.40625,0.03125,0.28125,0.0,0.0,0.0
1664377838988,-1.0117188,0.078125,-0.072265625,-0.40625,0.03125,0.28125,0.0,0.0,0.0
1664377839028,-1.0039062,0.0703125,-0.0703125,-1.375,0.0625,-0.0625,0.0,0.0,0.0
1664377839028,-1.0039062,0.0703125,-0.0703125,-1.375,0.0625,-0.0625,0.0,0.0,0.0
1664377839067,-1.0107422,0.0703125,-0.076171875,-0.65625,0.1875,-0.125,0.0,0.0,0.0
1664377839067,-1.0107422,0.0703125,-0.076171875,-0.65625,0.1875,-0.125,0.0,0.0,0.0
1664377839108,-1.0097656,0.080078125,-0.08105469,-0.40625,-0.65625,0.09375,0.0,0.0,0.0
1664377839108,-1.0097656,0.080078125,-0.08105469,-0.40625,-0.65625,0.09375,0.0,0.0,0.0
1664377839148,-1.0,0.072265625,-0.076171875,-0.71875,-0.09375,-0.0625,-65.5625,-10.1875,-142.875
1664377839148,-1.0,0.072265625,-0.076171875,-0.71875,-0.09375,-0.0625,-65.5625,-10.1875,-142.875
1664377839187,-1.0078125,0.09082031,-0.078125,1.0625,0.125,0.03125,0.0,0.0,0.0
1664377839187,-1.0078125,0.09082031,-0.078125,1.0625,0.125,0.03125,0.0,0.0,0.0
1664377839228,-1.0029297,0.08105469,-0.078125,0.09375,-0.40625,0.15625,0.0,0.0,0.0
1664377839228,-1.0029297,0.08105469,-0.078125,0.09375,-0.40625,0.15625,0.0,0.0,0.0
1664377839288,-1.0078125,0.07714844,-0.076171875,0.21875,-0.09375,-0.0625,0.0,0.0,0.0
1664377839288,-1.0078125,0.07714844,-0.076171875,0.21875,-0.09375,-0.0625,0.0,0.0,0.0
1664377839306,-1.0087891,0.078125,-0.08691406,0.8125,-0.40625,0.0,0.0,0.0,0.0
1664377839306,-1.0087891,0.078125,-0.08691406,0.8125,-0.40625,0.0,0.0,0.0,0.0
1664377839348,-0.9980469,0.07714844,-0.0859375,0.21875,-0.28125,-0.0625,0.0,0.0,0.0
1664377839348,-0.9980469,0.07714844,-0.0859375,0.21875,-0.28125,-0.0625,0.0,0.0,0.0
1664377839387,-1.0097656,0.07714844,-0.0703125,0.625,-0.53125,0.0,0.0,0.0,0.0
1664377839387,-1.0097656,0.07714844,-0.0703125,0.625,-0.53125,0.0,0.0,0.0,0.0
1664377839427,-1.0107422,0.08203125,-0.07910156,-0.71875,-0.09375,-0.25,0.0,0.0,0.0
1664377839427,-1.0107422,0.08203125,-0.07910156,-0.71875,-0.09375,-0.25,0.0,0.0,0.0
1664377839467,-1.0058594,0.07421875,-0.076171875,-0.15625,-0.03125,-0.125,0.0,0.0,0.0
1664377839467,-1.0058594,0.07421875,-0.076171875,-0.15625,-0.03125,-0.125,0.0,0.0,0.0
1664377839507,-1.0078125,0.07519531,-0.07714844,-0.53125,-0.21875,-0.125,0.0,0.0,0.0
1664377839507,-1.0078125,0.07519531,-0.07714844,-0.53125,-0.21875,-0.125,0.0,0.0,0.0
1664377839568,-1.0048828,0.08105469,-0.07714844,-0.53125,0.25,-0.3125,0.0,0.0,0.0
1664377839568,-1.0048828,0.08105469,-0.07714844,-0.53125,0.25,-0.3125,0.0,0.0,0.0
1664377839587,-1.0166016,0.083984375,-0.068359375,-0.28125,-0.28125,-0.0625,0.0,0.0,0.0
1664377839587,-1.0166016,0.083984375,-0.068359375,-0.28125,-0.28125,-0.0625,0.0,0.0,0.0
1664377839627,-1.0068359,0.080078125,-0.08300781,-1.125,-0.15625,0.03125,-66.3125,-10.4375,-140.4375
1664377839627,-1.0068359,0.080078125,-0.08300781,-1.125,-0.15625,0.03125,-66.3125,-10.4375,-140.4375
1664377839687,-1.0117188,0.07324219,-0.06542969,-0.875,-0.21875,-0.125,0.0,0.0,0.0
1664377839688,-1.0117188,0.07324219,-0.06542969,-0.875,-0.21875,-0.125,0.0,0.0,0.0
1664377839707,-1.0058594,0.07714844,-0.07128906,-0.84375,0.1875,-0.4375,0.0,0.0,0.0
1664377839707,-1.0058594,0.07714844,-0.07128906,-0.84375,0.1875,-0.4375,0.0,0.0,0.0
1664377839747,-1.0078125,0.08203125,-0.072265625,-1.0,-0.71875,-0.1875,0.0,0.0,0.0
1664377839747,-1.0078125,0.08203125,-0.072265625,-1.0,-0.71875,-0.1875,0.0,0.0,0.0
1664377839787,-1.0117188,0.076171875,-0.07421875,-0.21875,-0.71875,-0.125,0.0,0.0,0.0
1664377839790,-1.0117188,0.076171875,-0.07421875,-0.21875,-0.71875,-0.125,0.0,0.0,0.0
1664377839827,-1.015625,0.07421875,-0.06738281,-0.40625,0.03125,0.0,0.0,0.0,0.0
1664377839828,-1.015625,0.07421875,-0.06738281,-0.40625,0.03125,0.0,0.0,0.0,0.0
1664377839867,-1.0166016,0.076171875,-0.078125,0.28125,-0.46875,-0.0625,0.0,0.0,0.0
1664377839867,-1.0166016,0.076171875,-0.078125,0.28125,-0.46875,-0.0625,0.0,0.0,0.0
1664377839908,-1.0029297,0.080078125,-0.06640625,-0.28125,-0.28125,-0.3125,0.0,0.0,0.0
1664377839907,-1.0029297,0.080078125,-0.06640625,-0.28125,-0.28125,-0.3125,0.0,0.0,0.0
1664377839947,-1.0097656,0.076171875,-0.076171875,0.8125,-0.28125,0.0,0.0,0.0,0.0
1664377839947,-1.0097656,0.076171875,-0.076171875,0.8125,-0.28125,0.0,0.0,0.0,0.0
1664377839988,-1.0068359,0.078125,-0.07324219,-0.21875,-0.65625,-0.125,0.0,0.0,0.0
1664377839988,-1.0068359,0.078125,-0.07324219,-0.21875,-0.65625,-0.125,0.0,0.0,0.0
1664377840047,-1.0048828,0.078125,-0.072265625,0.03125,-0.53125,-0.125,0.0,0.0,0.0
1664377840047,-1.0048828,0.078125,-0.072265625,0.03125,-0.53125,-0.125,0.0,0.0,0.0
1664377840067,-1.0117188,0.07324219,-0.06640625,0.15625,-0.28125,-0.125,0.0,0.0,0.0
1664377840066,-1.0117188,0.07324219,-0.06640625,0.15625,-0.28125,-0.125,0.0,0.0,0.0
1664377840109,-1.0175781,0.06738281,-0.076171875,-0.71875,-0.34375,0.09375,0.0,0.0,0.0
1664377840109,-1.0175781,0.06738281,-0.076171875,-0.71875,-0.34375,0.09375,0.0,0.0,0.0
1664377840147,-1.015625,0.08105469,-0.07714844,-0.34375,-0.34375,-0.125,-65.6875,-9.25,-142.25
1664377840149,-1.015625,0.08105469,-0.07714844,-0.34375,-0.34375,-0.125,-65.6875,-9.25,-142.25
1664377840187,-1.0019531,0.07324219,-0.06640625,-0.15625,0.125,-0.1875,0.0,0.0,0.0
1664377840187,-1.0019531,0.07324219,-0.06640625,-0.15625,0.125,-0.1875,0.0,0.0,0.0
1664377840227,-1.0019531,0.080078125,-0.07421875,-0.9375,-0.71875,-0.0625,0.0,0.0,0.0
1664377840227,-1.0019531,0.080078125,-0.07421875,-0.9375,-0.71875,-0.0625,0.0,0.0,0.0
1664377840267,-1.0039062,0.07324219,-0.07128906,0.40625,-0.34375,0.15625,0.0,0.0,0.0
1664377840267,-1.0039062,0.07324219,-0.07128906,0.40625,-0.34375,0.15625,0.0,0.0,0.0
1664377840307,-1.0117188,0.06640625,-0.072265625,-0.9375,-0.15625,0.0,0.0,0.0,0.0
1664377840307,-1.0117188,0.06640625,-0.072265625,-0.9375,-0.15625,0.0,0.0,0.0,0.0
1664377840347,-1.0087891,0.078125,-0.0546875,-0.59375,-0.03125,-0.1875,0.0,0.0,0.0
1664377840347,-1.0087891,0.078125,-0.0546875,-0.59375,-0.03125,-0.1875,0.0,0.0,0.0
1664377840387,-1.0068359,0.07128906,-0.07324219,-1.25,-0.40625,-0.125,0.0,0.0,0.0
1664377840388,-1.0068359,0.07128906,-0.07324219,-1.25,-0.40625,-0.125,0.0,0.0,0.0
1664377840427,-1.0107422,0.078125,-0.0546875,0.46875,-0.46875,0.03125,0.0,0.0,0.0
1664377840427,-1.0107422,0.078125,-0.0546875,0.46875,-0.46875,0.03125,0.0,0.0,0.0
1664377840468,-1.0107422,0.07324219,-0.06640625,-0.78125,0.03125,0.03125,0.0,0.0,0.0
1664377840470,-1.0107422,0.07324219,-0.06640625,-0.78125,0.03125,0.03125,0.0,0.0,0.0
1664377840507,-1.0048828,0.08203125,-0.064453125,0.875,0.25,-0.0625,0.0,0.0,0.0
1664377840507,-1.0048828,0.08203125,-0.064453125,0.875,0.25,-0.0625,0.0,0.0,0.0
1664377840547,-1.0068359,0.08203125,-0.08300781,-0.03125,-0.03125,0.0,0.0,0.0,0.0
1664377840548,-1.0068359,0.08203125,-0.08300781,-0.03125,-0.03125,0.0,0.0,0.0,0.0
1664377840588,-1.0019531,0.07128906,-0.06542969,-0.03125,-0.03125,0.03125,0.0,0.0,0.0
1664377840588,-1.0019531,0.07128906,-0.06542969,-0.03125,-0.03125,0.03125,0.0,0.0,0.0
1664377840627,-1.0078125,0.07421875,-0.078125,0.15625,-0.09375,-0.1875,-63.875,-9.25,-141.625
1664377840627,-1.0078125,0.07421875,-0.078125,0.15625,-0.09375,-0.1875,-63.875,-9.25,-141.625
1664377840668,-1.0107422,0.07421875,-0.061523438,-0.09375,-0.21875,0.09375,0.0,0.0,0.0
1664377840668,-1.0107422,0.07421875,-0.061523438,-0.09375,-0.21875,0.09375,0.0,0.0,0.0
1664377840708,-1.0087891,0.083984375,-0.06738281,-0.28125,0.0625,-0.25,0.0,0.0,0.0
1664377840707,-1.0087891,0.083984375,-0.06738281,-0.28125,0.0625,-0.25,0.0,0.0,0.0
1664377840749,-1.0078125,0.080078125,-0.076171875,-0.03125,-0.46875,0.03125,0.0,0.0,0.0
1664377840749,-1.0078125,0.080078125,-0.076171875,-0.03125,-0.46875,0.03125,0.0,0.0,0.0
1664377840807,-1.0107422,0.072265625,-0.064453125,-1.4375,-0.09375,-0.25,0.0,0.0,0.0
1664377840807,-1.0107422,0.072265625,-0.064453125,-1.4375,-0.09375,-0.25,0.0,0.0,0.0
1664377840827,-1.0087891,0.076171875,-0.057617188,-0.34375,0.125,-0.1875,0.0,0.0,0.0
1664377840827,-1.0087891,0.076171875,-0.057617188,-0.34375,0.125,-0.1875,0.0,0.0,0.0
1664377840867,-1.0107422,0.08300781,-0.07128906,0.34375,-0.40625,-0.0625,0.0,0.0,0.0
1664377840869,-1.0107422,0.08300781,-0.07128906,0.34375,-0.40625,-0.0625,0.0,0.0,0.0
1664377840907,-1.0107422,0.07910156,-0.0625,0.09375,-0.09375,0.09375,0.0,0.0,0.0
1664377840907,-1.0107422,0.07910156,-0.0625,0.09375,-0.09375,0.09375,0.0,0.0,0.0
1664377840948,-1.0009766,0.0703125,-0.07128906,-0.03125,0.1875,-0.125,0.0,0.0,0.0
1664377840948,-1.0009766,0.0703125,-0.07128906,-0.03125,0.1875,-0.125,0.0,0.0,0.0
1664377840987,-1.0146484,0.08300781,-0.059570312,0.09375,0.25,-0.0625,0.0,0.0,0.0
1664377840987,-1.0146484,0.08300781,-0.059570312,0.09375,0.25,-0.0625,0.0,0.0,0.0
1664377841028,-1.0078125,0.07421875,-0.076171875,-0.03125,-0.21875,0.03125,0.0,0.0,0.0
1664377841028,-1.0078125,0.07421875,-0.076171875,-0.03125,-0.21875,0.03125,0.0,0.0,0.0
1664377841068,-1.0117188,0.0859375,-0.06738281,1.0,-0.21875,0.0,0.0,0.0,0.0
1664377841068,-1.0117188,0.0859375,-0.06738281,1.0,-0.21875,0.0,0.0,0.0,0.0
1664377841107,-1.0097656,0.08691406,-0.07324219,-0.65625,-0.03125,0.09375,0.0,0.0,0.0
1664377841109,-1.0097656,0.08691406,-0.07324219,-0.65625,-0.03125,0.09375,0.0,0.0,0.0
1664377841149,-1.0097656,0.07519531,-0.07421875,0.625,-0.34375,0.28125,-66.875,-9.125,-142.125
1664377841150,-1.0097656,0.07519531,-0.07421875,0.625,-0.34375,0.28125,-66.875,-9.125,-142.125
1664377841188,-1.0048828,0.078125,-0.07421875,-0.65625,-0.15625,0.09375,0.0,0.0,0.0
1664377841188,-1.0048828,0.078125,-0.07421875,-0.65625,-0.15625,0.09375,0.0,0.0,0.0
1664377841227,-1.0146484,0.080078125,-0.07714844,0.09375,-0.46875,0.15625,0.0,0.0,0.0
1664377841227,-1.0146484,0.080078125,-0.07714844,0.09375,-0.46875,0.15625,0.0,0.0,0.0
1664377841268,-1.0058594,0.08105469,-0.07128906,-0.28125,-0.59375,0.15625,0.0,0.0,0.0
1664377841267,-1.0058594,0.08105469,-0.07128906,-0.28125,-0.59375,0.15625,0.0,0.0,0.0
1664377841307,-1.0078125,0.07714844,-0.07128906,-0.65625,-0.34375,0.09375,0.0,0.0,0.0
1664377841307,-1.0078125,0.07714844,-0.07128906,-0.65625,-0.34375,0.09375,0.0,0.0,0.0
1664377841350,-1.0136719,0.07910156,-0.087890625,-0.34375,-0.21875,-0.0625,0.0,0.0,0.0
1664377841350,-1.0136719,0.07910156,-0.087890625,-0.34375,-0.21875,-0.0625,0.0,0.0,0.0
1664377841388,-1.0117188,0.07714844,-0.07128906,-0.84375,-0.21875,0.03125,0.0,0.0,0.0
1664377841388,-1.0117188,0.07714844,-0.07128906,-0.84375,-0.21875,0.03125,0.0,0.0,0.0
1664377841447,-1.0126953,0.076171875,-0.059570312,0.40625,-0.15625,0.09375,0.0,0.0,0.0
1664377841447,-1.0126953,0.076171875,-0.059570312,0.40625,-0.15625,0.09375,0.0,0.0,0.0
1664377841467,-1.0146484,0.07324219,-0.072265625,-0.65625,0.0625,0.0,0.0,0.0,0.0
1664377841467,-1.0146484,0.07324219,-0.072265625,-0.65625,0.0625,0.0,0.0,0.0,0.0
1664377841507,-1.0234375,0.07910156,-0.07421875,-0.21875,0.5625,0.0,0.0,0.0,0.0
1664377841507,-1.0234375,0.07910156,-0.07421875,-0.21875,0.5625,0.0,0.0,0.0,0.0
1664377841568,-1.0078125,0.07519531,-0.07421875,0.5,-0.71875,0.15625,0.0,0.0,0.0
1664377841568,-1.0078125,0.07519531,-0.07421875,0.5,-0.71875,0.15625,0.0,0.0,0.0
1664377841586,-1.0136719,0.07324219,-0.06542969,-0.09375,0.03125,0.03125,0.0,0.0,0.0
1664377841586,-1.0136719,0.07324219,-0.06542969,-0.09375,0.03125,0.03125,0.0,0.0,0.0
1664377841628,-1.0068359,0.080078125,-0.0859375,0.09375,0.1875,-0.0625,-66.4375,-10.0,-142.6875
1664377841628,-1.0068359,0.080078125,-0.0859375,0.09375,0.1875,-0.0625,-66.4375,-10.0,-142.6875
1664377841667,-1.015625,0.068359375,-0.07421875,0.21875,-0.21875,0.15625,0.0,0.0,0.0
1664377841667,-1.015625,0.068359375,-0.07421875,0.21875,-0.21875,0.15625,0.0,0.0,0.0
1664377841710,-1.0097656,0.08105469,-0.06933594,0.6875,-0.40625,-0.1875,0.0,0.0,0.0
1664377841710,-1.0097656,0.08105469,-0.06933594,0.6875,-0.40625,-0.1875,0.0,0.0,0.0
1664377841748,-1.0058594,0.08203125,-0.07324219,0.40625,0.0625,-0.125,0.0,0.0,0.0
1664377841750,-1.0058594,0.08203125,-0.07324219,0.40625,0.0625,-0.125,0.0,0.0,0.0
1664377841788,-1.0126953,0.07421875,-0.06933594,0.75,0.03125,0.09375,0.0,0.0,0.0
1664377841788,-1.0126953,0.07421875,-0.06933594,0.75,0.03125,0.09375,0.0,0.0,0.0
1664377841827,-1.0009766,0.078125,-0.0625,0.8125,-0.09375,-0.125,0.0,0.0,0.0
1664377841827,-1.0009766,0.078125,-0.0625,0.8125,-0.09375,-0.125,0.0,0.0,0.0
1664377841868,-1.0087891,0.07128906,-0.052734375,0.875,-0.03125,0.0,0.0,0.0,0.0
1664377841867,-1.0087891,0.07128906,-0.052734375,0.875,-0.03125,0.0,0.0,0.0,0.0
1664377841907,-1.0029297,0.07324219,-0.072265625,0.03125,-0.09375,0.09375,0.0,0.0,0.0
1664377841907,-1.0029297,0.07324219,-0.072265625,0.03125,-0.09375,0.09375,0.0,0.0,0.0
1664377841947,-1.0107422,0.076171875,-0.0703125,0.5,-0.21875,0.0,0.0,0.0,0.0
1664377841948,-1.0107422,0.076171875,-0.0703125,0.5,-0.21875,0.0,0.0,0.0,0.0
1664377841990,-1.0214844,0.07324219,-0.07128906,-0.34375,0.0625,0.03125,0.0,0.0,0.0
1664377841990,-1.0214844,0.07324219,-0.07128906,-0.34375,0.0625,0.03125,0.0,0.0,0.0
1664377842030,-1.0097656,0.072265625,-0.080078125,-0.21875,0.1875,-0.125,0.0,0.0,0.0
1664377842030,-1.0097656,0.072265625,-0.080078125,-0.21875,0.1875,-0.125,0.0,0.0,0.0
1664377842067,-1.0039062,0.07324219,-0.06933594,-0.28125,0.1875,-0.125,0.0,0.0,0.0
1664377842067,-1.0039062,0.07324219,-0.06933594,-0.28125,0.1875,-0.125,0.0,0.0,0.0
1664377842107,-1.0078125,0.072265625,-0.0703125,0.03125,0.03125,-0.1875,0.0,0.0,0.0
1664377842107,-1.0078125,0.072265625,-0.0703125,0.03125,0.03125,-0.1875,0.0,0.0,0.0
1664377842148,-0.9980469,0.07421875,-0.0625,-1.125,0.6875,-0.25,-65.875,-9.4375,-142.125
1664377842148,-0.9980469,0.07421875,-0.0625,-1.125,0.6875,-0.25,-65.875,-9.4375,-142.125
1664377842186,-1.0078125,0.07519531,-0.07128906,-1.1875,-0.28125,-0.0625,0.0,0.0,0.0
1664377842186,-1.0078125,0.07519531,-0.07128906,-1.1875,-0.28125,-0.0625,0.0,0.0,0.0
1664377842228,-1.0097656,0.08203125,-0.056640625,0.34375,0.4375,0.0,0.0,0.0,0.0
1664377842228,-1.0097656,0.08203125,-0.056640625,0.34375,0.4375,0.0,0.0,0.0,0.0
1664377842267,-1.0039062,0.07324219,-0.0546875,-1.375,0.375,-0.25,0.0,0.0,0.0
1664377842267,-1.0039062,0.07324219,-0.0546875,-1.375,0.375,-0.25,0.0,0.0,0.0
1664377842326,-1.0166016,0.076171875,-0.06738281,-0.59375,0.25,-0.1875,0.0,0.0,0.0
1664377842327,-1.0166016,0.076171875,-0.06738281,-0.59375,0.25,-0.1875,0.0,0.0,0.0
1664377842347,-1.0107422,0.072265625,-0.064453125,-0.65625,-0.40625,-0.125,0.0,0.0,0.0
1664377842347,-1.0107422,0.072265625,-0.064453125,-0.65625,-0.40625,-0.125,0.0,0.0,0.0
1664377842386,-1.0068359,0.07128906,-0.0703125,0.34375,0.03125,-0.0625,0.0,0.0,0.0
1664377842386,-1.0068359,0.07128906,-0.0703125,0.34375,0.03125,-0.0625,0.0,0.0,0.0
1664377842427,-1.0019531,0.08105469,-0.078125,0.28125,0.5625,0.0,0.0,0.0,0.0
1664377842430,-1.0019531,0.08105469,-0.078125,0.28125,0.5625,0.0,0.0,0.0,0.0
1664377842467,-1.0078125,0.07714844,-0.056640625,0.75,0.1875,-0.0625,0.0,0.0,0.0
1664377842468,-1.0078125,0.07714844,-0.056640625,0.75,0.1875,-0.0625,0.0,0.0,0.0
1664377842508,-1.0029297,0.06738281,-0.064453125,-0.03125,0.0625,-0.1875,0.0,0.0,0.0
1664377842508,-1.0029297,0.06738281,-0.064453125,-0.03125,0.0625,-0.1875,0.0,0.0,0.0
1664377842547,-1.0019531,0.07421875,-0.064453125,0.40625,0.0625,0.0,0.0,0.0,0.0
1664377842549,-1.0019531,0.07421875,-0.064453125,0.40625,0.0625,0.0,0.0,0.0,0.0
1664377842588,-1.0117188,0.076171875,-0.07421875,0.09375,-0.15625,-0.0625,0.0,0.0,0.0
1664377842588,-1.0117188,0.076171875,-0.07421875,0.09375,-0.15625,-0.0625,0.0,0.0,0.0
1664377842627,-1.0078125,0.07910156,-0.06640625,-0.09375,-0.09375,0.03125,-64.625,-8.1875,-142.6875
1664377842627,-1.0078125,0.07910156,-0.06640625,-0.09375,-0.09375,0.03125,-64.625,-8.1875,-142.6875
1664377842667,-1.0117188,0.078125,-0.068359375,-0.09375,0.125,-0.0625,0.0,0.0,0.0
1664377842668,-1.0117188,0.078125,-0.068359375,-0.09375,0.125,-0.0625,0.0,0.0,0.0
1664377842707,-1.0126953,0.08984375,-0.06933594,-0.875,0.1875,-0.125,0.0,0.0,0.0
1664377842707,-1.0126953,0.08984375,-0.06933594,-0.875,0.1875,-0.125,0.0,0.0,0.0
1664377842747,-1.0097656,0.07910156,-0.07519531,-0.09375,-0.34375,-0.125,0.0,0.0,0.0
1664377842748,-1.0097656,0.07910156,-0.07519531,-0.09375,-0.34375,-0.125,0.0,0.0,0.0
1664377842787,-1.0097656,0.076171875,-0.07324219,-1.3125,0.1875,-0.1875,0.0,0.0,0.0
1664377842789,-1.0097656,0.076171875,-0.07324219,-1.3125,0.1875,-0.1875,0.0,0.0,0.0
1664377842828,-1.0117188,0.078125,-0.06542969,-0.15625,0.5,0.03125,0.0,0.0,0.0
1664377842828,-1.0117188,0.078125,-0.06542969,-0.15625,0.5,0.03125,0.0,0.0,0.0
1664377842867,-1.0039062,0.080078125,-0.06738281,-1.1875,-0.28125,0.09375,0.0,0.0,0.0
1664377842867,-1.0039062,0.080078125,-0.06738281,-1.1875,-0.28125,0.09375,0.0,0.0,0.0
1664377842907,-1.0009766,0.07324219,-0.052734375,-0.15625,0.125,0.0,0.0,0.0,0.0
1664377842910,-1.0009766,0.07324219,-0.052734375,-0.15625,0.125,0.0,0.0,0.0,0.0
1664377842947,-1.0029297,0.068359375,-0.06933594,-0.71875,0.375,-0.1875,0.0,0.0,0.0
1664377842947,-1.0029297,0.068359375,-0.06933594,-0.71875,0.375,-0.1875,0.0,0.0,0.0
1664377842987,-1.0039062,0.072265625,-0.06347656,-0.09375,-0.28125,0.0,0.0,0.0,0.0
1664377842990,-1.0039062,0.072265625,-0.06347656,-0.09375,-0.28125,0.0,0.0,0.0,0.0
1664377843029,-1.0019531,0.080078125,-0.07910156,-0.09375,-0.21875,0.09375,0.0,0.0,0.0
1664377843027,-1.0019531,0.080078125,-0.07910156,-0.09375,-0.21875,0.09375,0.0,0.0,0.0
1664377843088,-1.0097656,0.083984375,-0.06542969,0.8125,0.03125,0.21875,0.0,0.0,0.0
1664377843088,-1.0097656,0.083984375,-0.06542969,0.8125,0.03125,0.21875,0.0,0.0,0.0
1664377843107,-1.0166016,0.078125,-0.07128906,0.21875,0.0625,-0.0625,0.0,0.0,0.0
1664377843107,-1.0166016,0.078125,-0.07128906,0.21875,0.0625,-0.0625,0.0,0.0,0.0
1664377843147,-1.0019531,0.076171875,-0.078125,0.34375,0.1875,0.09375,-65.6875,-8.8125,-141.9375
1664377843151,-1.0019531,0.076171875,-0.078125,0.34375,0.1875,0.09375,-65.6875,-8.8125,-141.9375
1664377843187,-1.0029297,0.08105469,-0.07910156,0.40625,0.1875,0.03125,0.0,0.0,0.0
1664377843187,-1.0029297,0.08105469,-0.07910156,0.40625,0.1875,0.03125,0.0,0.0,0.0
1664377843227,-1.0097656,0.07910156,-0.06542969,-0.03125,-0.03125,0.03125,0.0,0.0,0.0
1664377843228,-1.0097656,0.07910156,-0.06542969,-0.03125,-0.03125,0.03125,0.0,0.0,0.0
1664377843267,-1.0136719,0.07910156,-0.07421875,0.40625,0.03125,-0.0625,0.0,0.0,0.0
1664377843267,-1.0136719,0.07910156,-0.07421875,0.40625,0.03125,-0.0625,0.0,0.0,0.0
1664377843307,-1.0146484,0.076171875,-0.06738281,-0.46875,-0.03125,0.03125,0.0,0.0,0.0
1664377843307,-1.0146484,0.076171875,-0.06738281,-0.46875,-0.03125,0.03125,0.0,0.0,0.0
1664377843348,-1.0078125,0.08203125,-0.09667969,-0.46875,0.125,0.0,0.0,0.0,0.0
1664377843348,-1.0078125,0.08203125,-0.09667969,-0.46875,0.125,0.0,0.0,0.0,0.0
1664377843387,-1.0126953,0.0859375,-0.0703125,-0.15625,0.125,-0.0625,0.0,0.0,0.0
1664377843393,-1.0126953,0.0859375,-0.0703125,-0.15625,0.125,-0.0625,0.0,0.0,0.0
1664377843428,-1.0019531,0.07324219,-0.06738281,-0.40625,-0.15625,0.09375,0.0,0.0,0.0
1664377843428,-1.0019531,0.07324219,-0.06738281,-0.40625,-0.15625,0.09375,0.0,0.0,0.0
1664377843467,-1.0029297,0.07519531,-0.08300781,-0.53125,0.0625,-0.0625,0.0,0.0,0.0
1664377843468,-1.0029297,0.07519531,-0.08300781,-0.53125,0.0625,-0.0625,0.0,0.0,0.0
1664377843508,-1.0185547,0.07519531,-0.08496094,0.15625,0.1875,0.0,0.0,0.0,0.0
1664377843507,-1.0185547,0.07519531,-0.08496094,0.15625,0.1875,0.0,0.0,0.0,0.0
1664377843550,-1.0107422,0.08105469,-0.080078125,-0.15625,-0.21875,0.09375,0.0,0.0,0.0
1664377843550,-1.0107422,0.08105469,-0.080078125,-0.15625,-0.21875,0.09375,0.0,0.0,0.0
1664377843588,-1.0107422,0.07714844,-0.06933594,0.03125,0.0625,0.09375,0.0,0.0,0.0
1664377843590,-1.0107422,0.07714844,-0.06933594,0.03125,0.0625,0.09375,0.0,0.0,0.0
1664377843627,-1.0087891,0.078125,-0.08496094,-0.34375,0.1875,0.0,-66.0,-9.25,-141.625
1664377843627,-1.0087891,0.078125,-0.08496094,-0.34375,0.1875,0.0,-66.0,-9.25,-141.625
1664377843667,-1.015625,0.07519531,-0.0859375,-0.78125,-0.59375,0.0,0.0,0.0,0.0
1664377843667,-1.015625,0.07519531,-0.0859375,-0.78125,-0.59375,0.0,0.0,0.0,0.0
1664377843707,-1.0107422,0.078125,-0.083984375,0.15625,-0.09375,0.09375,0.0,0.0,0.0
1664377843707,-1.0107422,0.078125,-0.083984375,0.15625,-0.09375,0.09375,0.0,0.0,0.0
1664377843747,-1.0039062,0.080078125,-0.08105469,0.03125,0.03125,0.03125,0.0,0.0,0.0
1664377843747,-1.0039062,0.080078125,-0.08105469,0.03125,0.03125,0.03125,0.0,0.0,0.0
1664377843787,-1.0175781,0.07519531,-0.08203125,-0.09375,-0.03125,0.0,0.0,0.0,0.0
1664377843787,-1.0175781,0.07519531,-0.08203125,-0.09375,-0.03125,0.0,0.0,0.0,0.0
1664377843848,-1.0039062,0.080078125,-0.052734375,0.6875,-0.09375,0.09375,0.0,0.0,0.0
1664377843848,-1.0039062,0.080078125,-0.052734375,0.6875,-0.09375,0.09375,0.0,0.0,0.0
1664377843867,-1.0117188,0.07421875,-0.0703125,0.09375,-0.34375,0.0,0.0,0.0,0.0
1664377843867,-1.0117188,0.07421875,-0.0703125,0.09375,-0.34375,0.0,0.0,0.0,0.0
1664377843909,-1.0117188,0.076171875,-0.06738281,-0.34375,-0.46875,0.0,0.0,0.0,0.0
1664377843910,-1.0117188,0.076171875,-0.06738281,-0.34375,-0.46875,0.0,0.0,0.0,0.0
1664377843949,-1.0068359,0.080078125,-0.07714844,0.15625,-0.71875,0.15625,0.0,0.0,0.0
1664377843949,-1.0068359,0.080078125,-0.07714844,0.15625,-0.71875,0.15625,0.0,0.0,0.0
1664377843987,-1.0078125,0.08691406,-0.080078125,-0.09375,-0.21875,0.03125,0.0,0.0,0.0
1664377843987,-1.0078125,0.08691406,-0.080078125,-0.09375,-0.21875,0.03125,0.0,0.0,0.0
1664377844028,-1.0097656,0.07421875,-0.080078125,0.21875,-0.34375,0.03125,0.0,0.0,0.0
1664377844028,-1.0097656,0.07421875,-0.080078125,0.21875,-0.34375,0.03125,0.0,0.0,0.0
1664377844067,-1.0107422,0.08105469,-0.078125,-0.15625,-0.21875,0.09375,0.0,0.0,0.0
1664377844067,-1.0107422,0.08105469,-0.078125,-0.15625,-0.21875,0.09375,0.0,0.0,0.0
1664377844107,-1.0107422,0.07421875,-0.0703125,0.15625,-0.40625,0.09375,0.0,0.0,0.0
1664377844107,-1.0107422,0.07421875,-0.0703125,0.15625,-0.40625,0.09375,0.0,0.0,0.0
1664377844148,-1.0029297,0.07128906,-0.07519531,-0.03125,0.125,0.0,-67.375,-10.1875,-141.375
1664377844148,-1.0029297,0.07128906,-0.07519531,-0.03125,0.125,0.0,-67.375,-10.1875,-141.375
1664377844188,-1.0224609,0.080078125,-0.07910156,-0.21875,-0.09375,-0.0625,0.0,0.0,0.0
1664377844187,-1.0224609,0.080078125,-0.07910156,-0.21875,-0.09375,-0.0625,0.0,0.0,0.0
1664377844228,-1.0029297,0.087890625,-0.0703125,-0.21875,-0.40625,0.09375,0.0,0.0,0.0
1664377844230,-1.0029297,0.087890625,-0.0703125,-0.21875,-0.40625,0.09375,0.0,0.0,0.0
1664377844268,-1.0058594,0.068359375,-0.072265625,-1.1875,0.25,-0.0625,0.0,0.0,0.0
1664377844268,-1.0058594,0.068359375,-0.072265625,-1.1875,0.25,-0.0625,0.0,0.0,0.0
1664377844308,-1.0117188,0.08691406,-0.07519531,-0.53125,0.0625,-0.0625,0.0,0.0,0.0
1664377844308,-1.0117188,0.08691406,-0.07519531,-0.53125,0.0625,-0.0625,0.0,0.0,0.0
1664377844348,-1.0068359,0.0859375,-0.064453125,-0.875,-0.53125,-0.125,0.0,0.0,0.0
1664377844348,-1.0068359,0.0859375,-0.064453125,-0.875,-0.53125,-0.125,0.0,0.0,0.0
1664377844388,-1.0048828,0.07324219,-0.061523438,0.34375,-0.21875,0.21875,0.0,0.0,0.0
1664377844388,-1.0048828,0.07324219,-0.061523438,0.34375,-0.21875,0.21875,0.0,0.0,0.0
1664377844426,-1.0048828,0.07714844,-0.07519531,-0.15625,0.1875,0.15625,0.0,0.0,0.0
1664377844426,-1.0048828,0.07714844,-0.07519531,-0.15625,0.1875,0.15625,0.0,0.0,0.0
1664377844468,-1.0126953,0.07910156,-0.07324219,0.875,-0.15625,0.0,0.0,0.0,0.0
1664377844468,-1.0126953,0.07910156,-0.07324219,0.875,-0.15625,0.0,0.0,0.0,0.0
1664377844508,-1.0068359,0.08886719,-0.0703125,0.15625,-0.28125,-0.1875,0.0,0.0,0.0
1664377844508,-1.0068359,0.08886719,-0.0703125,0.15625,-0.28125,-0.1875,0.0,0.0,0.0
1664377844548,-1.0126953,0.07324219,-0.06542969,0.6875,-0.09375,0.0,0.0,0.0,0.0
1664377844548,-1.0126953,0.07324219,-0.06542969,0.6875,-0.09375,0.0,0.0,0.0,0.0
1664377844608,-1.0048828,0.08691406,-0.06738281,0.5,-0.34375,0.09375,0.0,0.0,0.0
1664377844608,-1.0048828,0.08691406,-0.06738281,0.5,-0.34375,0.09375,0.0,0.0,0.0
1664377844627,-1.0087891,0.07714844,-0.08300781,-0.40625,-0.21875,-0.125,-66.0,-8.1875,-142.25
1664377844627,-1.0087891,0.07714844,-0.08300781,-0.40625,-0.21875,-0.125,-66.0,-8.1875,-142.25
1664377844668,-1.0097656,0.078125,-0.07519531,0.46875,0.5,0.03125,0.0,0.0,0.0
1664377844668,-1.0097656,0.078125,-0.07519531,0.46875,0.5,0.03125,0.0,0.0,0.0
1664377844708,-1.0107422,0.078125,-0.07128906,-0.09375,0.3125,0.0,0.0,0.0,0.0
1664377844708,-1.0107422,0.078125,-0.07128906,-0.09375,0.3125,0.0,0.0,0.0,0.0
1664377844747,-1.0048828,0.07910156,-0.08105469,0.09375,0.0625,-0.0625,0.0,0.0,0.0
1664377844748,-1.0048828,0.07910156,-0.08105469,0.09375,0.0625,-0.0625,0.0,0.0,0.0
1664377844807,-1.0107422,0.083984375,-0.061523438,0.21875,0.6875,-0.0625,0.0,0.0,0.0
1664377844807,-1.0107422,0.083984375,-0.061523438,0.21875,0.6875,-0.0625,0.0,0.0,0.0
1664377844827,-1.0107422,0.08984375,-0.08496094,-0.28125,0.8125,-0.25,0.0,0.0,0.0
1664377844829,-1.0107422,0.08984375,-0.08496094,-0.28125,0.8125,-0.25,0.0,0.0,0.0
1664377844869,-1.0048828,0.06738281,-0.06933594,-0.34375,-0.28125,-0.125,0.0,0.0,0.0
1664377844871,-1.0048828,0.06738281,-0.06933594,-0.34375,-0.28125,-0.125,0.0,0.0,0.0
1664377844907,-1.0078125,0.07910156,-0.06542969,0.875,0.25,0.15625,0.0,0.0,0.0
1664377844907,-1.0078125,0.07910156,-0.06542969,0.875,0.25,0.15625,0.0,0.0,0.0
1664377844947,-1.0097656,0.08300781,-0.07128906,-0.28125,0.75,-0.4375,0.0,0.0,0.0
1664377844947,-1.0097656,0.08300781,-0.07128906,-0.28125,0.75,-0.4375,0.0,0.0,0.0
1664377844988,-1.0107422,0.08496094,-0.06347656,0.28125,0.125,0.03125,0.0,0.0,0.0
1664377844988,-1.0107422,0.08496094,-0.06347656,0.28125,0.125,0.03125,0.0,0.0,0.0
1664377845027,-1.0039062,0.07421875,-0.07910156,-0.03125,0.25,-0.0625,0.0,0.0,0.0
1664377845028,-1.0039062,0.07421875,-0.07910156,-0.03125,0.25,-0.0625,0.0,0.0,0.0
1664377845067,-0.9980469,0.07910156,-0.059570312,0.9375,0.0625,-0.0625,0.0,0.0,0.0
1664377845067,-0.9980469,0.07910156,-0.059570312,0.9375,0.0625,-0.0625,0.0,0.0,0.0
1664377845108,-1.0087891,0.08105469,-0.061523438,-0.21875,0.4375,0.0,0.0,0.0,0.0
1664377845108,-1.0087891,0.08105469,-0.061523438,-0.21875,0.4375,0.0,0.0,0.0,0.0
1664377845149,-1.0166016,0.08300781,-0.080078125,0.75,0.03125,0.03125,-65.375,-9.25,-141.9375
1664377845150,-1.0166016,0.08300781,-0.080078125,0.75,0.03125,0.03125,-65.375,-9.25,-141.9375
1664377845187,-1.0068359,0.07910156,-0.078125,0.46875,0.375,-0.0625,0.0,0.0,0.0
1664377845190,-1.0068359,0.07910156,-0.078125,0.46875,0.375,-0.0625,0.0,0.0,0.0
1664377845227,-1.0068359,0.07324219,-0.08886719,-0.59375,0.25,-0.125,0.0,0.0,0.0
1664377845227,-1.0068359,0.07324219,-0.08886719,-0.59375,0.25,-0.125,0.0,0.0,0.0
1664377845268,-1.0126953,0.06933594,-0.0859375,-0.03125,0.0625,0.0,0.0,0.0,0.0
1664377845268,-1.0126953,0.06933594,-0.0859375,-0.03125,0.0625,0.0,0.0,0.0,0.0
1664377845307,-1.0048828,0.078125,-0.08691406,0.15625,0.25,-0.0625,0.0,0.0,0.0
1664377845310,-1.0048828,0.078125,-0.08691406,0.15625,0.25,-0.0625,0.0,0.0,0.0
1664377845368,-1.0146484,0.08496094,-0.0859375,-0.5,0.3125,-0.125,0.0,0.0,0.0
1664377845369,-1.0146484,0.08496094,-0.0859375,-0.5,0.3125,-0.125,0.0,0.0,0.0
1664377845387,-1.0087891,0.07421875,-0.08496094,-0.09375,0.25,-0.125,0.0,0.0,0.0
1664377845387,-1.0087891,0.07421875,-0.08496094,-0.09375,0.25,-0.125,0.0,0.0,0.0
1664377845429,-1.0068359,0.0859375,-0.08203125,-0.375,0.03125,-0.0625,0.0,0.0,0.0
1664377845429,-1.0068359,0.0859375,-0.08203125,-0.375,0.03125,-0.0625,0.0,0.0,0.0
1664377845468,-1.0019531,0.07714844,-0.08300781,-0.03125,0.25,-0.0625,0.0,0.0,0.0
1664377845470,-1.0019531,0.07714844,-0.08300781,-0.03125,0.25,-0.0625,0.0,0.0,0.0
1664377845508,-1.0097656,0.078125,-0.06738281,-1.0,-0.40625,0.0,0.0,0.0,0.0
1664377845508,-1.0097656,0.078125,-0.06738281,-1.0,-0.40625,0.0,0.0,0.0,0.0
1664377845547,-1.0136719,0.07910156,-0.07421875,-0.1875,0.15625,0.1875,0.0,0.0,0.0
1664377845547,-1.0136719,0.07910156,-0.07421875,-0.1875,0.15625,0.1875,0.0,0.0,0.0
1664377845588,-1.0097656,0.080078125,-0.07910156,-0.75,-0.03125,-0.1875,0.0,0.0,0.0
1664377845588,-1.0097656,0.080078125,-0.07910156,-0.75,-0.03125,-0.1875,0.0,0.0,0.0
1664377845627,-1.0068359,0.072265625,-0.08886719,-0.8125,-0.53125,-0.0625,-64.5,-10.1875,-143.4375
1664377845627,-1.0068359,0.072265625,-0.08886719,-0.8125,-0.53125,-0.0625,-64.5,-10.1875,-143.4375
1664377845668,-1.0087891,0.07714844,-0.08886719,-0.375,-0.71875,0.1875,0.0,0.0,0.0
1664377845667,-1.0087891,0.07714844,-0.08886719,-0.375,-0.71875,0.1875,0.0,0.0,0.0
1664377845709,-1.0146484,0.07324219,-0.078125,1.3125,-0.34375,-0.0625,0.0,0.0,0.0
1664377845709,-1.0146484,0.07324219,-0.078125,1.3125,-0.34375,-0.0625,0.0,0.0,0.0
1664377845747,-1.0136719,0.08203125,-0.07910156,0.21875,-0.09375,-0.0625,0.0,0.0,0.0
1664377845747,-1.0136719,0.08203125,-0.07910156,0.21875,-0.09375,-0.0625,0.0,0.0,0.0
1664377845787,-1.0068359,0.08691406,-0.08496094,-0.03125,-0.40625,0.125,0.0,0.0,0.0
1664377845787,-1.0068359,0.08691406,-0.08496094,-0.03125,-0.40625,0.125,0.0,0.0,0.0
1664377845827,-1.0107422,0.072265625,-0.08203125,0.34375,-0.46875,0.0625,0.0,0.0,0.0
1664377845827,-1.0107422,0.072265625,-0.08203125,0.34375,-0.46875,0.0625,0.0,0.0,0.0
1664377845868,-1.0087891,0.068359375,-0.095703125,0.34375,-0.15625,-0.28125,0.0,0.0,0.0
1664377845867,-1.0087891,0.068359375,-0.095703125,0.34375,-0.15625,-0.28125,0.0,0.0,0.0
1664377845907,-1.0058594,0.07910156,-0.08203125,0.46875,-0.15625,-0.0625,0.0,0.0,0.0
1664377845907,-1.0058594,0.07910156,-0.08203125,0.46875,-0.15625,-0.0625,0.0,0.0,0.0
1664377845947,-1.0039062,0.07910156,-0.08300781,-0.6875,-1.03125,0.125,0.0,0.0,0.0
1664377845948,-1.0039062,0.07910156,-0.08300781,-0.6875,-1.03125,0.125,0.0,0.0,0.0
1664377845989,-1.0009766,0.08203125,-0.07519531,0.21875,-0.59375,-0.0625,0.0,0.0,0.0
1664377845989,-1.0009766,0.08203125,-0.07519531,0.21875,-0.59375,-0.0625,0.0,0.0,0.0
1664377846030,-1.0107422,0.0859375,-0.08105469,-0.9375,-0.40625,-0.1875,0.0,0.0,0.0
1664377846029,-1.0107422,0.0859375,-0.08105469,-0.9375,-0.40625,-0.1875,0.0,0.0,0.0
1664377846067,-1.0029297,0.078125,-0.07714844,-0.875,-0.21875,-0.125,0.0,0.0,0.0
1664377846069,-1.0029297,0.078125,-0.07714844,-0.875,-0.21875,-0.125,0.0,0.0,0.0
1664377846128,-1.0048828,0.08203125,-0.080078125,-0.25,-0.34375,-0.125,0.0,0.0,0.0
1664377846128,-1.0048828,0.08203125,-0.080078125,-0.25,-0.34375,-0.125,0.0,0.0,0.0
1664377846146,-1.0136719,0.064453125,-0.064453125,-0.75,-0.53125,0.0,-65.125,-9.125,-141.375
1664377846146,-1.0136719,0.064453125,-0.064453125,-0.75,-0.53125,0.0,-65.125,-9.125,-141.375
1664377846187,-1.0107422,0.08300781,-0.076171875,-1.0625,-0.65625,-0.125,0.0,0.0,0.0
1664377846187,-1.0107422,0.08300781,-0.076171875,-1.0625,-0.65625,-0.125,0.0,0.0,0.0
1664377846227,-1.0019531,0.07910156,-0.07421875,0.03125,-0.65625,-0.125,0.0,0.0,0.0
1664377846227,-1.0019531,0.07910156,-0.07421875,0.03125,-0.65625,-0.125,0.0,0.0,0.0
1664377846267,-1.0019531,0.07910156,-0.07519531,-1.125,-0.40625,-0.28125,0.0,0.0,0.0
1664377846267,-1.0019531,0.07910156,-0.07519531,-1.125,-0.40625,-0.28125,0.0,0.0,0.0
1664377846307,-1.0068359,0.0859375,-0.080078125,0.34375,-0.78125,-0.125,0.0,0.0,0.0
1664377846307,-1.0068359,0.0859375,-0.080078125,0.34375,-0.78125,-0.125,0.0,0.0,0.0
1664377846347,-1.0058594,0.06933594,-0.078125,-0.03125,-0.84375,-0.1875,0.0,0.0,0.0
1664377846348,-1.0058594,0.06933594,-0.078125,-0.03125,-0.84375,-0.1875,0.0,0.0,0.0
1664377846387,-1.0048828,0.07910156,-0.068359375,0.53125,-0.71875,0.0,0.0,0.0,0.0
1664377846391,-1.0048828,0.07910156,-0.068359375,0.53125,-0.71875,0.0,0.0,0.0,0.0
1664377846426,-1.0097656,0.08203125,-0.07324219,0.46875,-0.40625,-0.125,0.0,0.0,0.0
1664377846426,-1.0097656,0.08203125,-0.07324219,0.46875,-0.40625,-0.125,0.0,0.0,0.0
1664377846468,-1.0107422,0.08300781,-0.06933594,-0.25,-0.59375,-0.125,0.0,0.0,0.0
1664377846468,-1.0107422,0.08300781,-0.06933594,-0.25,-0.59375,-0.125,0.0,0.0,0.0
1664377846507,-1.0087891,0.08105469,-0.08300781,0.59375,-0.46875,-0.0625,0.0,0.0,0.0
1664377846507,-1.0087891,0.08105469,-0.08300781,0.59375,-0.46875,-0.0625,0.0,0.0,0.0
1664377846548,-1.0048828,0.07421875,-0.08300781,0.59375,-0.09375,-0.0625,0.0,0.0,0.0
1664377846548,-1.0048828,0.07421875,-0.08300781,0.59375,-0.09375,-0.0625,0.0,0.0,0.0
1664377846588,-1.0107422,0.07910156,-0.076171875,-0.625,-0.28125,-0.21875,0.0,0.0,0.0
1664377846588,-1.0107422,0.07910156,-0.076171875,-0.625,-0.28125,-0.21875,0.0,0.0,0.0
1664377846627,-0.99902344,0.0859375,-0.08300781,-0.6875,-0.40625,-0.21875,-66.625,-9.4375,-142.125
1664377846627,-0.99902344,0.0859375,-0.08300781,-0.6875,-0.40625,-0.21875,-66.625,-9.4375,-142.125
1664377846667,-1.0097656,0.07714844,-0.076171875,-0.25,-0.53125,-0.0625,0.0,0.0,0.0
1664377846667,-1.0097656,0.07714844,-0.076171875,-0.25,-0.53125,-0.0625,0.0,0.0,0.0
1664377846709,-1.0058594,0.08203125,-0.0703125,-1.375,0.375,-0.21875,0.0,0.0,0.0
1664377846710,-1.0058594,0.08203125,-0.0703125,-1.375,0.375,-0.21875,0.0,0.0,0.0
1664377846767,-1.0166016,0.076171875,-0.064453125,0.34375,-0.34375,0.0625,0.0,0.0,0.0
1664377846767,-1.0166016,0.076171875,-0.064453125,0.34375,-0.34375,0.0625,0.0,0.0,0.0
1664377846788,-1.0117188,0.08105469,-0.064453125,-1.65625,-0.90625,-0.21875,0.0,0.0,0.0
1664377846787,-1.0117188,0.08105469,-0.064453125,-1.65625,-0.90625,-0.21875,0.0,0.0,0.0
1664377846827,-1.0126953,0.07519531,-0.07421875,-0.3125,-0.15625,-0.125,0.0,0.0,0.0
1664377846827,-1.0126953,0.07519531,-0.07421875,-0.3125,-0.15625,-0.125,0.0,0.0,0.0
1664377846887,-1.0058594,0.07519531,-0.072265625,-0.5,-0.90625,-0.0625,0.0,0.0,0.0
1664377846888,-1.0058594,0.07519531,-0.072265625,-0.5,-0.90625,-0.0625,0.0,0.0,0.0
1664377846907,-1.0126953,0.076171875,-0.0703125,0.53125,-0.03125,-0.125,0.0,0.0,0.0
1664377846908,-1.0126953,0.076171875,-0.0703125,0.53125,-0.03125,-0.125,0.0,0.0,0.0
1664377846950,-1.0117188,0.08203125,-0.076171875,-1.1875,-0.53125,-0.0625,0.0,0.0,0.0
1664377846950,-1.0117188,0.08203125,-0.076171875,-1.1875,-0.53125,-0.0625,0.0,0.0,0.0
1664377846987,-1.0126953,0.072265625,-0.07421875,-0.15625,-0.59375,-0.125,0.0,0.0,0.0
1664377846987,-1.0126953,0.072265625,-0.07421875,-0.15625,-0.59375,-0.125,0.0,0.0,0.0
1664377847029,-1.0087891,0.076171875,-0.076171875,0.03125,-0.78125,-0.0625,0.0,0.0,0.0
1664377847029,-1.0087891,0.076171875,-0.076171875,0.03125,-0.78125,-0.0625,0.0,0.0,0.0
1664377847068,-1.0175781,0.07519531,-0.06640625,-0.09375,-0.53125,-0.125,0.0,0.0,0.0
1664377847068,-1.0175781,0.07519531,-0.06640625,-0.09375,-0.53125,-0.125,0.0,0.0,0.0
1664377847107,-1.0039062,0.080078125,-0.07421875,0.28125,-0.78125,0.0,0.0,0.0,0.0
1664377847108,-1.0039062,0.080078125,-0.07421875,0.28125,-0.78125,0.0,0.0,0.0,0.0
1664377847148,-1.0166016,0.06640625,-0.06347656,0.15625,-0.84375,-0.0625,-65.875,-9.6875,-142.125
1664377847148,-1.0166016,0.06640625,-0.06347656,0.15625,-0.84375,-0.0625,-65.875,-9.6875,-142.125
1664377847189,-1.0097656,0.0859375,-0.07421875,1.125,-0.90625,0.0,0.0,0.0,0.0
1664377847189,-1.0097656,0.0859375,-0.07421875,1.125,-0.90625,0.0,0.0,0.0,0.0
1664377847227,-1.0087891,0.07910156,-0.07324219,-0.03125,-0.78125,-0.125,0.0,0.0,0.0
1664377847227,-1.0087891,0.07910156,-0.07324219,-0.03125,-0.78125,-0.125,0.0,0.0,0.0
1664377847269,-1.0,0.08105469,-0.072265625,-0.03125,-1.03125,-0.0625,0.0,0.0,0.0
1664377847269,-1.0,0.08105469,-0.072265625,-0.03125,-1.03125,-0.0625,0.0,0.0,0.0
1664377847309,-1.0058594,0.07714844,-0.072265625,0.46875,-0.90625,-0.125,0.0,0.0,0.0
1664377847308,-1.0058594,0.07714844,-0.072265625,0.46875,-0.90625,-0.125,0.0,0.0,0.0
1664377847367,-1.0097656,0.0703125,-0.06347656,-0.625,-0.90625,-0.34375,0.0,0.0,0.0
1664377847367,-1.0097656,0.0703125,-0.06347656,-0.625,-0.90625,-0.34375,0.0,0.0,0.0
1664377847388,-1.0029297,0.07128906,-0.068359375,0.03125,-0.59375,-0.34375,0.0,0.0,0.0
1664377847388,-1.0029297,0.07128906,-0.068359375,0.03125,-0.59375,-0.34375,0.0,0.0,0.0
1664377847427,-1.0136719,0.080078125,-0.06640625,0.21875,-1.375,-0.0625,0.0,0.0,0.0
1664377847427,-1.0136719,0.080078125,-0.06640625,0.21875,-1.375,-0.0625,0.0,0.0,0.0
1664377847468,-0.9980469,0.07324219,-0.06738281,-0.375,-0.53125,-0.34375,0.0,0.0,0.0
1664377847468,-0.9980469,0.07324219,-0.06738281,-0.375,-0.53125,-0.34375,0.0,0.0,0.0
1664377847509,-1.0117188,0.0859375,-0.072265625,1.375,-0.40625,-0.1875,0.0,0.0,0.0
1664377847509,-1.0117188,0.0859375,-0.072265625,1.375,-0.40625,-0.1875,0.0,0.0,0.0
1664377847547,-1.0039062,0.07324219,-0.08105469,-0.25,-0.28125,-0.0625,0.0,0.0,0.0
1664377847547,-1.0039062,0.07324219,-0.08105469,-0.25,-0.28125,-0.0625,0.0,0.0,0.0
1664377847588,-1.0107422,0.08300781,-0.06738281,1.09375,-0.46875,0.0,0.0,0.0,0.0
1664377847587,-1.0107422,0.08300781,-0.06738281,1.09375,-0.46875,0.0,0.0,0.0,0.0
1664377847648,-1.0058594,0.080078125,-0.064453125,-0.15625,0.1875,-0.1875,-65.6875,-8.1875,-141.625
1664377847648,-1.0058594,0.080078125,-0.064453125,-0.15625,0.1875,-0.1875,-65.6875,-8.1875,-141.625
1664377847667,-1.0224609,0.080078125,-0.068359375,0.53125,-0.40625,-0.28125,0.0,0.0,0.0
1664377847667,-1.0224609,0.080078125,-0.068359375,0.53125,-0.40625,-0.28125,0.0,0.0,0.0
1664377847708,-1.0019531,0.07910156,-0.06640625,-0.15625,-0.96875,-0.28125,0.0,0.0,0.0
1664377847708,-1.0019531,0.07910156,-0.06640625,-0.15625,-0.96875,-0.28125,0.0,0.0,0.0
1664377847747,-1.0058594,0.07714844,-0.059570312,-0.15625,-0.90625,-0.125,0.0,0.0,0.0
1664377847748,-1.0058594,0.07714844,-0.059570312,-0.15625,-0.90625,-0.125,0.0,0.0,0.0
1664377847787,-1.0087891,0.07421875,-0.057617188,-0.4375,-0.84375,-0.28125,0.0,0.0,0.0
1664377847788,-1.0087891,0.07421875,-0.057617188,-0.4375,-0.84375,-0.28125,0.0,0.0,0.0
1664377847827,-1.0107422,0.076171875,-0.06347656,-0.15625,-0.84375,-0.21875,0.0,0.0,0.0
1664377847827,-1.0107422,0.076171875,-0.06347656,-0.15625,-0.84375,-0.21875,0.0,0.0,0.0
1664377847867,-1.0107422,0.06933594,-0.055664062,0.59375,-0.65625,-0.1875,0.0,0.0,0.0
1664377847868,-1.0107422,0.06933594,-0.055664062,0.59375,-0.65625,-0.1875,0.0,0.0,0.0
1664377847907,-1.0048828,0.07128906,-0.064453125,-0.9375,-0.71875,-0.21875,0.0,0.0,0.0
1664377847907,-1.0048828,0.07128906,-0.064453125,-0.9375,-0.71875,-0.21875,0.0,0.0,0.0
1664377847947,-1.0048828,0.0703125,-0.0703125,-0.09375,-0.34375,-0.28125,0.0,0.0,0.0
1664377847947,-1.0048828,0.0703125,-0.0703125,-0.09375,-0.34375,-0.28125,0.0,0.0,0.0
1664377847988,-1.0117188,0.076171875,-0.06933594,1.375,-0.71875,0.0625,0.0,0.0,0.0
1664377847988,-1.0117188,0.076171875,-0.06933594,1.375,-0.71875,0.0625,0.0,0.0,0.0
1664377848028,-0.99902344,0.064453125,-0.0703125,-2.15625,-0.46875,-0.40625,0.0,0.0,0.0
1664377848028,-0.99902344,0.064453125,-0.0703125,-2.15625,-0.46875,-0.40625,0.0,0.0,0.0
1664377848067,-1.0019531,0.07519531,-0.07324219,1.03125,-0.78125,-0.1875,0.0,0.0,0.0
1664377848067,-1.0019531,0.07519531,-0.07324219,1.03125,-0.78125,-0.1875,0.0,0.0,0.0
1664377848108,-1.0039062,0.072265625,-0.061523438,0.84375,-0.40625,-0.0625,0.0,0.0,0.0
1664377848108,-1.0039062,0.072265625,-0.061523438,0.84375,-0.40625,-0.0625,0.0,0.0,0.0
