# Sensor type: Thingy
# Activity type: Movement
# Activity code: 9
# Subject id: s1800825
# Notes: 
timestamp,accel_x,accel_y,accel_z,gyro_x,gyro_y,gyro_z,mag_x,mag_y,mag_z
1664378418098,-1.0107422,0.12597656,0.041015625,1.625,7.53125,-0.75,0.0,0.0,0.0
1664378418098,-1.0107422,0.12597656,0.041015625,1.625,7.53125,-0.75,0.0,0.0,0.0
1664378418138,-1.0361328,0.1484375,0.01171875,-3.78125,7.78125,-2.5625,-65.6875,3.0625,-152.625
1664378418138,-1.0361328,0.1484375,0.01171875,-3.78125,7.78125,-2.5625,-65.6875,3.0625,-152.625
1664378418178,-0.99121094,0.08496094,0.01171875,-2.6875,1.6875,-0.8125,0.0,0.0,0.0
1664378418178,-0.99121094,0.08496094,0.01171875,-2.6875,1.6875,-0.8125,0.0,0.0,0.0
1664378418217,-1.0498047,0.11425781,0.0029296875,2.0625,4.0,-1.84375,0.0,0.0,0.0
1664378418217,-1.0498047,0.11425781,0.0029296875,2.0625,4.0,-1.84375,0.0,0.0,0.0
1664378418258,-1.0068359,0.171875,-0.040039062,1.8125,-11.875,-1.40625,0.0,0.0,0.0
1664378418258,-1.0068359,0.171875,-0.040039062,1.8125,-11.875,-1.40625,0.0,0.0,0.0
1664378418298,-1.0380859,0.25878906,-0.12402344,-8.0,-0.15625,-1.09375,0.0,0.0,0.0
1664378418298,-1.0380859,0.25878906,-0.12402344,-8.0,-0.15625,-1.09375,0.0,0.0,0.0
1664378418338,-1.0390625,0.37597656,-0.15429688,-17.09375,-6.25,9.09375,0.0,0.0,0.0
1664378418338,-1.0390625,0.37597656,-0.15429688,-17.09375,-6.25,9.09375,0.0,0.0,0.0
1664378418398,-1.0263672,0.26953125,-0.0126953125,-5.0625,-25.0625,23.0,0.0,0.0,0.0
1664378418398,-1.0263672,0.26953125,-0.0126953125,-5.0625,-25.0625,23.0,0.0,0.0,0.0
1664378418418,-0.9785156,0.15820312,0.19042969,-15.75,-63.03125,26.40625,0.0,0.0,0.0
1664378418418,-0.9785156,0.15820312,0.19042969,-15.75,-63.03125,26.40625,0.0,0.0,0.0
1664378418458,-0.83496094,0.15722656,0.26757812,-79.25,-47.875,25.03125,0.0,0.0,0.0
1664378418459,-0.83496094,0.15722656,0.26757812,-79.25,-47.875,25.03125,0.0,0.0,0.0
1664378418497,-0.9355469,0.14746094,0.08984375,-118.0,57.46875,23.0625,0.0,0.0,0.0
1664378418498,-0.9355469,0.14746094,0.08984375,-118.0,57.46875,23.0625,0.0,0.0,0.0
1664378418537,-1.0136719,0.25097656,0.18261719,-37.3125,-4.625,35.21875,0.0,0.0,0.0
1664378418537,-1.0136719,0.25097656,0.18261719,-37.3125,-4.625,35.21875,0.0,0.0,0.0
1664378418577,-0.76953125,0.16210938,0.24511719,-72.53125,26.34375,15.0625,0.0,0.0,0.0
1664378418577,-0.76953125,0.16210938,0.24511719,-72.53125,26.34375,15.0625,0.0,0.0,0.0
1664378418617,-0.93359375,0.25195312,0.18066406,-125.5625,48.3125,-10.5625,0.0,0.0,0.0
1664378418617,-0.93359375,0.25195312,0.18066406,-125.5625,48.3125,-10.5625,0.0,0.0,0.0
1664378418658,-0.8515625,0.07714844,0.17773438,-109.25,10.875,-20.53125,-65.125,8.875,-150.0625
1664378418658,-0.8515625,0.07714844,0.17773438,-109.25,10.875,-20.53125,-65.125,8.875,-150.0625
1664378418697,-1.3544922,0.10839844,0.16210938,-93.53125,31.9375,-31.4375,0.0,0.0,0.0
1664378418697,-1.3544922,0.10839844,0.16210938,-93.53125,31.9375,-31.4375,0.0,0.0,0.0
1664378418737,-0.96484375,0.36035156,-0.083984375,-100.90625,-15.46875,-16.0,0.0,0.0,0.0
1664378418737,-0.96484375,0.36035156,-0.083984375,-100.90625,-15.46875,-16.0,0.0,0.0,0.0
1664378418777,-0.9863281,0.05078125,-0.083984375,-136.0625,35.65625,10.5625,0.0,0.0,0.0
1664378418777,-0.9863281,0.05078125,-0.083984375,-136.0625,35.65625,10.5625,0.0,0.0,0.0
1664378418818,-1.2021484,0.33789062,-0.115234375,-111.84375,-18.96875,11.71875,0.0,0.0,0.0
1664378418819,-1.2021484,0.33789062,-0.115234375,-111.84375,-18.96875,11.71875,0.0,0.0,0.0
1664378418859,-0.91503906,-0.15136719,-0.0146484375,-179.8125,24.5,16.03125,0.0,0.0,0.0
1664378418859,-0.91503906,-0.15136719,-0.0146484375,-179.8125,24.5,16.03125,0.0,0.0,0.0
1664378418898,-1.0722656,-0.064453125,-0.13476562,-195.625,30.40625,3.78125,0.0,0.0,0.0
1664378418898,-1.0722656,-0.064453125,-0.13476562,-195.625,30.40625,3.78125,0.0,0.0,0.0
1664378418937,-1.0654297,0.140625,-0.1484375,-153.9375,8.4375,19.71875,0.0,0.0,0.0
1664378418937,-1.0654297,0.140625,-0.1484375,-153.9375,8.4375,19.71875,0.0,0.0,0.0
1664378418978,-1.0146484,0.068359375,-0.0703125,-179.46875,-0.46875,32.40625,0.0,0.0,0.0
1664378418981,-1.0146484,0.068359375,-0.0703125,-179.46875,-0.46875,32.40625,0.0,0.0,0.0
1664378419018,-1.0458984,-0.11328125,-0.10449219,-186.96875,12.0,39.3125,0.0,0.0,0.0
1664378419019,-1.0458984,-0.11328125,-0.10449219,-186.96875,12.0,39.3125,0.0,0.0,0.0
1664378419058,-1.0087891,9.765625E-4,-0.20703125,-214.125,4.3125,47.0,0.0,0.0,0.0
1664378419058,-1.0087891,9.765625E-4,-0.20703125,-214.125,4.3125,47.0,0.0,0.0,0.0
1664378419098,-1.1708984,-0.059570312,-0.27441406,-226.28125,-4.75,55.28125,0.0,0.0,0.0
1664378419101,-1.1708984,-0.059570312,-0.27441406,-226.28125,-4.75,55.28125,0.0,0.0,0.0
1664378419159,-0.8544922,0.109375,-0.18652344,-227.0,-17.0,77.1875,-66.0,13.6875,-139.25
1664378419159,-0.8544922,0.109375,-0.18652344,-227.0,-17.0,77.1875,-66.0,13.6875,-139.25
1664378419177,-1.1679688,0.060546875,-0.052734375,-211.6875,22.0625,88.96875,0.0,0.0,0.0
1664378419177,-1.1679688,0.060546875,-0.052734375,-211.6875,22.0625,88.96875,0.0,0.0,0.0
1664378419218,-1.3144531,-0.76953125,0.40625,-230.34375,62.84375,30.875,0.0,0.0,0.0
1664378419218,-1.3144531,-0.76953125,0.40625,-230.34375,62.84375,30.875,0.0,0.0,0.0
1664378419258,-0.8300781,0.5966797,-0.09082031,-51.03125,-13.78125,76.84375,0.0,0.0,0.0
1664378419258,-0.8300781,0.5966797,-0.09082031,-51.03125,-13.78125,76.84375,0.0,0.0,0.0
1664378419299,-0.55566406,0.5185547,0.13476562,-282.65625,68.5625,64.5,0.0,0.0,0.0
1664378419299,-0.55566406,0.5185547,0.13476562,-282.65625,68.5625,64.5,0.0,0.0,0.0
1664378419339,-1.2548828,-0.3017578,0.033203125,-426.28125,180.4375,26.65625,0.0,0.0,0.0
1664378419339,-1.2548828,-0.3017578,0.033203125,-426.28125,180.4375,26.65625,0.0,0.0,0.0
1664378419380,-0.8808594,0.021484375,-0.1953125,-287.84375,50.4375,10.4375,0.0,0.0,0.0
1664378419380,-0.8808594,0.021484375,-0.1953125,-287.84375,50.4375,10.4375,0.0,0.0,0.0
1664378419419,-1.1728516,0.21679688,0.2783203,-152.1875,35.1875,29.15625,0.0,0.0,0.0
1664378419421,-1.1728516,0.21679688,0.2783203,-152.1875,35.1875,29.15625,0.0,0.0,0.0
1664378419458,-1.1796875,0.328125,0.080078125,-327.28125,104.15625,9.9375,0.0,0.0,0.0
1664378419458,-1.1796875,0.328125,0.080078125,-327.28125,104.15625,9.9375,0.0,0.0,0.0
1664378419497,-1.390625,0.4736328,-0.42578125,-303.0,19.25,47.0,0.0,0.0,0.0
1664378419497,-1.390625,0.4736328,-0.42578125,-303.0,19.25,47.0,0.0,0.0,0.0
1664378419539,-0.578125,-0.2734375,-0.25390625,-264.65625,-124.3125,57.59375,0.0,0.0,0.0
1664378419539,-0.578125,-0.2734375,-0.25390625,-264.65625,-124.3125,57.59375,0.0,0.0,0.0
1664378419577,-1.3642578,-0.33398438,-0.27148438,-158.53125,115.4375,56.625,0.0,0.0,0.0
1664378419577,-1.3642578,-0.33398438,-0.27148438,-158.53125,115.4375,56.625,0.0,0.0,0.0
1664378419618,-1.3710938,-0.26464844,0.44433594,-216.25,66.8125,4.8125,0.0,0.0,0.0
1664378419618,-1.3710938,-0.26464844,0.44433594,-216.25,66.8125,4.8125,0.0,0.0,0.0
1664378419660,-0.8076172,0.05078125,-0.09863281,-205.46875,34.8125,23.1875,-63.625,0.5,-126.375
1664378419660,-0.8076172,0.05078125,-0.09863281,-205.46875,34.8125,23.1875,-63.625,0.5,-126.375
1664378419697,-1.1132812,0.13378906,-0.21875,-281.9375,64.90625,27.8125,0.0,0.0,0.0
1664378419698,-1.1132812,0.13378906,-0.21875,-281.9375,64.90625,27.8125,0.0,0.0,0.0
1664378419739,-1.0429688,0.08105469,-0.24121094,-229.0625,-30.4375,74.75,0.0,0.0,0.0
1664378419741,-1.0429688,0.08105469,-0.24121094,-229.0625,-30.4375,74.75,0.0,0.0,0.0
1664378419778,-1.1445312,0.13769531,-0.2919922,-250.25,-20.375,100.34375,0.0,0.0,0.0
1664378419778,-1.1445312,0.13769531,-0.2919922,-250.25,-20.375,100.34375,0.0,0.0,0.0
1664378419818,-0.94140625,-0.67285156,0.061523438,-220.90625,59.34375,78.78125,0.0,0.0,0.0
1664378419818,-0.94140625,-0.67285156,0.061523438,-220.90625,59.34375,78.78125,0.0,0.0,0.0
1664378419858,-0.96875,-0.15039062,0.3623047,-195.875,93.53125,27.40625,0.0,0.0,0.0
1664378419859,-0.96875,-0.15039062,0.3623047,-195.875,93.53125,27.40625,0.0,0.0,0.0
1664378419919,-1.109375,0.59277344,0.099609375,-71.65625,25.53125,80.1875,0.0,0.0,0.0
1664378419919,-1.109375,0.59277344,0.099609375,-71.65625,25.53125,80.1875,0.0,0.0,0.0
1664378419938,-0.69140625,0.22363281,0.07421875,-225.40625,-15.0625,53.40625,0.0,0.0,0.0
1664378419938,-0.69140625,0.22363281,0.07421875,-225.40625,-15.0625,53.40625,0.0,0.0,0.0
1664378419981,-0.98535156,-0.25878906,0.23242188,-287.84375,159.15625,31.5,0.0,0.0,0.0
1664378419981,-0.98535156,-0.25878906,0.23242188,-287.84375,159.15625,31.5,0.0,0.0,0.0
1664378420019,-0.99609375,0.19726562,0.36914062,-150.84375,44.71875,26.90625,0.0,0.0,0.0
1664378420018,-0.99609375,0.19726562,0.36914062,-150.84375,44.71875,26.90625,0.0,0.0,0.0
1664378420059,-0.8017578,0.23730469,0.09863281,-229.625,65.625,13.25,0.0,0.0,0.0
1664378420061,-0.8017578,0.23730469,0.09863281,-229.625,65.625,13.25,0.0,0.0,0.0
1664378420099,-1.7041016,0.36621094,-0.11035156,-290.90625,143.53125,27.9375,0.0,0.0,0.0
1664378420099,-1.7041016,0.36621094,-0.11035156,-290.90625,143.53125,27.9375,0.0,0.0,0.0
1664378420139,-0.7988281,0.3173828,-0.038085938,-131.0625,-301.625,31.59375,-66.625,2.75,-149.3125
1664378420139,-0.7988281,0.3173828,-0.038085938,-131.0625,-301.625,31.59375,-66.625,2.75,-149.3125
1664378420178,-0.64746094,-1.6015625,-0.119140625,-250.625,85.84375,1.875,0.0,0.0,0.0
1664378420178,-0.64746094,-1.6015625,-0.119140625,-250.625,85.84375,1.875,0.0,0.0,0.0
1664378420218,-1.8125,0.515625,-0.0234375,-94.3125,193.375,7.0,0.0,0.0,0.0
1664378420218,-1.8125,0.515625,-0.0234375,-94.3125,193.375,7.0,0.0,0.0,0.0
1664378420238,-0.50878906,0.09277344,0.6171875,-91.6875,-102.875,34.78125,0.0,0.0,0.0
1664378420238,-0.50878906,0.09277344,0.6171875,-91.6875,-102.875,34.78125,0.0,0.0,0.0
1664378420298,-1.2021484,-0.4267578,0.009765625,-267.78125,153.40625,-18.3125,0.0,0.0,0.0
1664378420298,-1.2021484,-0.4267578,0.009765625,-267.78125,153.40625,-18.3125,0.0,0.0,0.0
1664378420339,-0.89941406,0.20703125,-0.099609375,-90.78125,-35.0,33.625,0.0,0.0,0.0
1664378420339,-0.89941406,0.20703125,-0.099609375,-90.78125,-35.0,33.625,0.0,0.0,0.0
1664378420378,-1.0888672,-0.06738281,0.5830078,-23.375,-12.0,34.96875,0.0,0.0,0.0
1664378420381,-1.0888672,-0.06738281,0.5830078,-23.375,-12.0,34.96875,0.0,0.0,0.0
1664378420418,-1.0371094,-0.53125,0.19042969,-97.4375,28.53125,-2.03125,0.0,0.0,0.0
1664378420418,-1.0371094,-0.53125,0.19042969,-97.4375,28.53125,-2.03125,0.0,0.0,0.0
1664378420458,-0.765625,0.38476562,0.0146484375,108.5,-11.25,6.53125,0.0,0.0,0.0
1664378420458,-0.765625,0.38476562,0.0146484375,108.5,-11.25,6.53125,0.0,0.0,0.0
1664378420499,-0.92871094,0.7246094,0.6171875,146.53125,-90.96875,30.25,0.0,0.0,0.0
1664378420499,-0.92871094,0.7246094,0.6171875,146.53125,-90.96875,30.25,0.0,0.0,0.0
1664378420538,-0.45703125,-0.041992188,0.43164062,-95.90625,34.375,-19.125,0.0,0.0,0.0
1664378420538,-0.45703125,-0.041992188,0.43164062,-95.90625,34.375,-19.125,0.0,0.0,0.0
1664378420579,-1.0302734,0.17480469,0.09082031,-50.25,116.53125,-62.09375,0.0,0.0,0.0
1664378420579,-1.0302734,0.17480469,0.09082031,-50.25,116.53125,-62.09375,0.0,0.0,0.0
1664378420618,-1.9775391,1.2626953,0.12597656,96.3125,10.84375,17.75,0.0,0.0,0.0
1664378420618,-1.9775391,1.2626953,0.12597656,96.3125,10.84375,17.75,0.0,0.0,0.0
1664378420678,-0.31347656,0.19238281,0.63183594,-99.9375,-107.8125,39.65625,-66.3125,6.0625,-147.625
1664378420678,-0.31347656,0.19238281,0.63183594,-99.9375,-107.8125,39.65625,-66.3125,6.0625,-147.625
1664378420698,-0.84277344,-0.028320312,0.05078125,-105.65625,104.28125,-11.59375,0.0,0.0,0.0
1664378420698,-0.84277344,-0.028320312,0.05078125,-105.65625,104.28125,-11.59375,0.0,0.0,0.0
1664378420738,-0.9667969,0.22949219,0.3515625,75.5,-39.90625,-6.84375,0.0,0.0,0.0
1664378420738,-0.9667969,0.22949219,0.3515625,75.5,-39.90625,-6.84375,0.0,0.0,0.0
1664378420778,-0.98046875,0.34472656,0.375,-20.15625,29.4375,-9.53125,0.0,0.0,0.0
1664378420778,-0.98046875,0.34472656,0.375,-20.15625,29.4375,-9.53125,0.0,0.0,0.0
1664378420819,-0.93652344,0.09863281,0.16894531,-8.25,19.1875,1.21875,0.0,0.0,0.0
1664378420819,-0.93652344,0.09863281,0.16894531,-8.25,19.1875,1.21875,0.0,0.0,0.0
1664378420838,-0.9003906,0.15917969,0.3017578,35.21875,-5.03125,2.6875,0.0,0.0,0.0
1664378420838,-0.9003906,0.15917969,0.3017578,35.21875,-5.03125,2.6875,0.0,0.0,0.0
1664378420898,-0.9003906,0.119140625,0.12695312,-28.46875,25.0,-8.625,0.0,0.0,0.0
1664378420898,-0.9003906,0.119140625,0.12695312,-28.46875,25.0,-8.625,0.0,0.0,0.0
1664378420918,-1.0039062,0.0703125,0.11230469,23.78125,12.125,1.40625,0.0,0.0,0.0
1664378420918,-1.0039062,0.0703125,0.11230469,23.78125,12.125,1.40625,0.0,0.0,0.0
1664378420978,-1.0332031,0.099609375,0.0859375,-2.5625,15.59375,9.625,0.0,0.0,0.0
1664378420978,-1.0332031,0.099609375,0.0859375,-2.5625,15.59375,9.625,0.0,0.0,0.0
1664378420998,-1.0341797,0.0087890625,0.08203125,3.90625,22.96875,3.65625,0.0,0.0,0.0
1664378420998,-1.0341797,0.0087890625,0.08203125,3.90625,22.96875,3.65625,0.0,0.0,0.0
1664378421039,-1.0810547,-0.0087890625,-0.0146484375,7.3125,9.78125,-1.03125,0.0,0.0,0.0
1664378421039,-1.0810547,-0.0087890625,-0.0146484375,7.3125,9.78125,-1.03125,0.0,0.0,0.0
1664378421078,-1.0810547,-0.099609375,-0.11621094,11.84375,2.65625,-11.84375,0.0,0.0,0.0
1664378421078,-1.0810547,-0.099609375,-0.11621094,11.84375,2.65625,-11.84375,0.0,0.0,0.0
1664378421138,-1.0722656,-0.14453125,0.043945312,44.125,-14.5,-7.09375,-66.0,6.5,-150.1875
1664378421138,-1.0722656,-0.14453125,0.043945312,44.125,-14.5,-7.09375,-66.0,6.5,-150.1875
1664378421158,-1.015625,0.08203125,-0.2421875,32.28125,-10.40625,-16.125,0.0,0.0,0.0
1664378421158,-1.015625,0.08203125,-0.2421875,32.28125,-10.40625,-16.125,0.0,0.0,0.0
1664378421198,-1.0644531,0.07128906,0.061523438,47.65625,19.1875,-2.9375,0.0,0.0,0.0
1664378421199,-1.0644531,0.07128906,0.061523438,47.65625,19.1875,-2.9375,0.0,0.0,0.0
1664378421239,-1.09375,0.001953125,-0.12695312,19.8125,-10.34375,-4.84375,0.0,0.0,0.0
1664378421239,-1.09375,0.001953125,-0.12695312,19.8125,-10.34375,-4.84375,0.0,0.0,0.0
1664378421278,-1.0253906,0.07324219,0.049804688,26.34375,4.0625,-7.09375,0.0,0.0,0.0
1664378421278,-1.0253906,0.07324219,0.049804688,26.34375,4.0625,-7.09375,0.0,0.0,0.0
1664378421318,-1.0429688,-0.06542969,-0.018554688,2.5625,0.28125,-6.125,0.0,0.0,0.0
1664378421318,-1.0429688,-0.06542969,-0.018554688,2.5625,0.28125,-6.125,0.0,0.0,0.0
1664378421359,-1.0800781,0.005859375,0.043945312,19.53125,0.21875,-7.875,0.0,0.0,0.0
1664378421359,-1.0800781,0.005859375,0.043945312,19.53125,0.21875,-7.875,0.0,0.0,0.0
1664378421399,-1.0087891,-0.025390625,0.030273438,7.9375,-7.0,-2.375,0.0,0.0,0.0
1664378421399,-1.0087891,-0.025390625,0.030273438,7.9375,-7.0,-2.375,0.0,0.0,0.0
1664378421438,-1.0732422,-0.047851562,0.0087890625,15.5,-4.625,-2.8125,0.0,0.0,0.0
1664378421440,-1.0732422,-0.047851562,0.0087890625,15.5,-4.625,-2.8125,0.0,0.0,0.0
1664378421479,-0.9560547,-0.01171875,-0.0107421875,36.65625,5.65625,-2.8125,0.0,0.0,0.0
1664378421481,-0.9560547,-0.01171875,-0.0107421875,36.65625,5.65625,-2.8125,0.0,0.0,0.0
1664378421519,-1.0195312,0.037109375,0.06640625,34.09375,1.25,-4.15625,0.0,0.0,0.0
1664378421519,-1.0195312,0.037109375,0.06640625,34.09375,1.25,-4.15625,0.0,0.0,0.0
1664378421559,-0.93066406,0.14941406,-0.036132812,5.65625,8.875,-8.75,0.0,0.0,0.0
1664378421559,-0.93066406,0.14941406,-0.036132812,5.65625,8.875,-8.75,0.0,0.0,0.0
1664378421599,-0.9941406,0.18945312,-0.00390625,-8.4375,21.3125,0.125,0.0,0.0,0.0
1664378421599,-0.9941406,0.18945312,-0.00390625,-8.4375,21.3125,0.125,0.0,0.0,0.0
1664378421658,-0.9658203,0.0703125,0.040039062,-20.28125,3.25,1.09375,-66.3125,3.1875,-153.5
1664378421659,-0.9658203,0.0703125,0.040039062,-20.28125,3.25,1.09375,-66.3125,3.1875,-153.5
1664378421678,-0.9902344,0.08496094,-0.041015625,-38.21875,13.5625,-4.03125,0.0,0.0,0.0
1664378421678,-0.9902344,0.08496094,-0.041015625,-38.21875,13.5625,-4.03125,0.0,0.0,0.0
1664378421719,-0.96777344,0.16015625,-0.045898438,-36.15625,3.6875,-2.4375,0.0,0.0,0.0
1664378421719,-0.96777344,0.16015625,-0.045898438,-36.15625,3.6875,-2.4375,0.0,0.0,0.0
1664378421759,-0.9970703,0.055664062,0.0703125,-32.96875,-8.9375,3.09375,0.0,0.0,0.0
1664378421759,-0.9970703,0.055664062,0.0703125,-32.96875,-8.9375,3.09375,0.0,0.0,0.0
1664378421798,-0.98828125,0.08300781,0.030273438,-32.59375,-3.34375,2.90625,0.0,0.0,0.0
1664378421798,-0.98828125,0.08300781,0.030273438,-32.59375,-3.34375,2.90625,0.0,0.0,0.0
1664378421839,-0.98046875,-0.047851562,0.11816406,-11.4375,-10.53125,6.34375,0.0,0.0,0.0
1664378421839,-0.98046875,-0.047851562,0.11816406,-11.4375,-10.53125,6.34375,0.0,0.0,0.0
1664378421878,-0.9707031,0.060546875,0.09765625,-9.53125,-10.59375,0.53125,0.0,0.0,0.0
1664378421878,-0.9707031,0.060546875,0.09765625,-9.53125,-10.59375,0.53125,0.0,0.0,0.0
1664378421918,-0.8857422,0.16210938,0.25097656,28.75,-26.875,-3.5625,0.0,0.0,0.0
1664378421918,-0.8857422,0.16210938,0.25097656,28.75,-26.875,-3.5625,0.0,0.0,0.0
1664378421959,-1.0429688,0.26464844,0.13183594,2.625,22.5625,-2.75,0.0,0.0,0.0
1664378421959,-1.0429688,0.26464844,0.13183594,2.625,22.5625,-2.75,0.0,0.0,0.0
1664378421998,-0.88378906,0.29296875,0.10546875,9.15625,6.0,-8.125,0.0,0.0,0.0
1664378421998,-0.88378906,0.29296875,0.10546875,9.15625,6.0,-8.125,0.0,0.0,0.0
1664378422041,-1.1767578,0.23242188,0.24316406,41.75,0.875,2.8125,0.0,0.0,0.0
1664378422041,-1.1767578,0.23242188,0.24316406,41.75,0.875,2.8125,0.0,0.0,0.0
1664378422079,-0.92578125,0.26464844,0.16601562,10.0,7.15625,-5.875,0.0,0.0,0.0
1664378422081,-0.92578125,0.26464844,0.16601562,10.0,7.15625,-5.875,0.0,0.0,0.0
1664378422139,-1.1279297,0.32226562,0.068359375,9.6875,1.25,-4.28125,-64.1875,2.5625,-153.625
1664378422139,-1.1279297,0.32226562,0.068359375,9.6875,1.25,-4.28125,-64.1875,2.5625,-153.625
1664378422159,-0.95703125,0.29003906,0.047851562,-4.15625,-15.28125,-0.25,0.0,0.0,0.0
1664378422159,-0.95703125,0.29003906,0.047851562,-4.15625,-15.28125,-0.25,0.0,0.0,0.0
1664378422199,-1.0615234,0.28222656,0.033203125,-2.28125,-7.1875,3.28125,0.0,0.0,0.0
1664378422199,-1.0615234,0.28222656,0.033203125,-2.28125,-7.1875,3.28125,0.0,0.0,0.0
1664378422239,-1.0,0.29003906,0.026367188,2.5625,-20.1875,3.34375,0.0,0.0,0.0
1664378422238,-1.0,0.29003906,0.026367188,2.5625,-20.1875,3.34375,0.0,0.0,0.0
1664378422278,-1.1064453,0.203125,0.09277344,-23.5,-9.3125,-1.84375,0.0,0.0,0.0
1664378422278,-1.1064453,0.203125,0.09277344,-23.5,-9.3125,-1.84375,0.0,0.0,0.0
1664378422319,-0.95214844,0.33691406,0.12597656,-11.96875,-12.0,2.1875,0.0,0.0,0.0
1664378422319,-0.95214844,0.33691406,0.12597656,-11.96875,-12.0,2.1875,0.0,0.0,0.0
1664378422359,-0.984375,0.19433594,0.15527344,-11.5,4.3125,8.40625,0.0,0.0,0.0
1664378422359,-0.984375,0.19433594,0.15527344,-11.5,4.3125,8.40625,0.0,0.0,0.0
1664378422398,-1.0439453,0.25976562,0.12792969,-8.3125,-3.03125,-0.4375,0.0,0.0,0.0
1664378422398,-1.0439453,0.25976562,0.12792969,-8.3125,-3.03125,-0.4375,0.0,0.0,0.0
1664378422439,-0.90527344,0.21484375,0.24414062,1.625,-33.84375,-1.40625,0.0,0.0,0.0
1664378422439,-0.90527344,0.21484375,0.24414062,1.625,-33.84375,-1.40625,0.0,0.0,0.0
1664378422479,-0.99316406,0.17480469,0.09472656,-2.75,1.5,-7.46875,0.0,0.0,0.0
1664378422479,-0.99316406,0.17480469,0.09472656,-2.75,1.5,-7.46875,0.0,0.0,0.0
1664378422518,-0.9550781,0.25,0.109375,29.46875,-0.28125,-10.09375,0.0,0.0,0.0
1664378422519,-0.9550781,0.25,0.109375,29.46875,-0.28125,-10.09375,0.0,0.0,0.0
1664378422559,-0.9765625,0.19140625,0.11816406,13.40625,10.34375,-9.96875,0.0,0.0,0.0
1664378422559,-0.9765625,0.19140625,0.11816406,13.40625,10.34375,-9.96875,0.0,0.0,0.0
1664378422599,-1.0195312,0.22265625,0.020507812,1.15625,6.75,-5.375,0.0,0.0,0.0
1664378422600,-1.0195312,0.22265625,0.020507812,1.15625,6.75,-5.375,0.0,0.0,0.0
1664378422659,-0.89746094,0.09765625,0.1328125,11.875,-0.59375,-1.53125,-65.375,1.8125,-150.9375
1664378422659,-0.89746094,0.09765625,0.1328125,11.875,-0.59375,-1.53125,-65.375,1.8125,-150.9375
1664378422678,-0.98046875,0.0625,0.12890625,2.375,13.21875,-3.375,0.0,0.0,0.0
1664378422678,-0.98046875,0.0625,0.12890625,2.375,13.21875,-3.375,0.0,0.0,0.0
1664378422719,-0.99316406,0.06347656,0.095703125,7.4375,9.84375,-0.8125,0.0,0.0,0.0
1664378422719,-0.99316406,0.06347656,0.095703125,7.4375,9.84375,-0.8125,0.0,0.0,0.0
1664378422758,-0.92871094,0.024414062,0.20117188,34.46875,-1.8125,-1.59375,0.0,0.0,0.0
1664378422761,-0.92871094,0.024414062,0.20117188,34.46875,-1.8125,-1.59375,0.0,0.0,0.0
1664378422798,-1.078125,-0.037109375,-0.06738281,-8.0,26.28125,-4.59375,0.0,0.0,0.0
1664378422798,-1.078125,-0.037109375,-0.06738281,-8.0,26.28125,-4.59375,0.0,0.0,0.0
1664378422838,-0.89941406,0.30859375,-0.021484375,20.4375,-16.9375,6.78125,0.0,0.0,0.0
1664378422838,-0.89941406,0.30859375,-0.021484375,20.4375,-16.9375,6.78125,0.0,0.0,0.0
1664378422878,-1.0654297,-0.059570312,0.3310547,-41.28125,-6.1875,18.59375,0.0,0.0,0.0
1664378422881,-1.0654297,-0.059570312,0.3310547,-41.28125,-6.1875,18.59375,0.0,0.0,0.0
1664378422958,-1.0869141,-0.28515625,-0.15332031,-49.8125,21.3125,5.375,0.0,0.0,0.0
1664378422958,-1.0869141,-0.28515625,-0.15332031,-49.8125,21.3125,5.375,0.0,0.0,0.0
1664378422978,-0.9892578,-0.16308594,0.2939453,35.9375,-26.53125,5.0625,0.0,0.0,0.0
1664378422978,-0.9892578,-0.16308594,0.2939453,35.9375,-26.53125,5.0625,0.0,0.0,0.0
1664378423139,-1.0742188,-0.109375,-0.09472656,1.5,7.09375,-5.0625,-66.0,3.0625,-148.875
1664378423139,-1.0742188,-0.109375,-0.09472656,1.5,7.09375,-5.0625,-66.0,3.0625,-148.875
1664378423141,-0.96875,-0.045898438,0.2421875,17.875,-30.75,-2.03125,0.0,0.0,0.0
1664378423143,-0.96875,-0.045898438,0.2421875,17.875,-30.75,-2.03125,0.0,0.0,0.0
1664378423143,-1.0830078,-0.0703125,-0.16308594,15.90625,-3.15625,-3.5,0.0,0.0,0.0
1664378423145,-0.9863281,0.119140625,0.09667969,10.5625,-9.625,0.65625,0.0,0.0,0.0
1664378423144,-1.0830078,-0.0703125,-0.16308594,15.90625,-3.15625,-3.5,0.0,0.0,0.0
1664378423150,-0.9863281,0.119140625,0.09667969,10.5625,-9.625,0.65625,0.0,0.0,0.0
1664378423158,-1.0302734,-0.03515625,-0.12011719,7.75,-2.53125,3.34375,0.0,0.0,0.0
1664378423158,-1.0302734,-0.03515625,-0.12011719,7.75,-2.53125,3.34375,0.0,0.0,0.0
1664378423197,-1.0761719,-0.083984375,0.08984375,-1.15625,13.8125,-4.03125,0.0,0.0,0.0
1664378423197,-1.0761719,-0.083984375,0.08984375,-1.15625,13.8125,-4.03125,0.0,0.0,0.0
1664378423239,-1.0585938,-0.033203125,0.20117188,18.71875,-6.3125,-9.59375,0.0,0.0,0.0
1664378423239,-1.0585938,-0.033203125,0.20117188,18.71875,-6.3125,-9.59375,0.0,0.0,0.0
1664378423278,-1.1376953,-0.23339844,0.07519531,10.125,-10.28125,-14.46875,0.0,0.0,0.0
1664378423278,-1.1376953,-0.23339844,0.07519531,10.125,-10.28125,-14.46875,0.0,0.0,0.0
1664378423318,-0.9550781,-0.08886719,0.064453125,34.96875,-16.09375,-12.40625,0.0,0.0,0.0
1664378423318,-0.9550781,-0.08886719,0.064453125,34.96875,-16.09375,-12.40625,0.0,0.0,0.0
1664378423358,-1.0595703,-0.059570312,0.09765625,20.375,-0.40625,-6.40625,0.0,0.0,0.0
1664378423358,-1.0595703,-0.059570312,0.09765625,20.375,-0.40625,-6.40625,0.0,0.0,0.0
1664378423398,-0.9736328,-0.001953125,0.032226562,21.96875,5.875,-6.125,0.0,0.0,0.0
1664378423398,-0.9736328,-0.001953125,0.032226562,21.96875,5.875,-6.125,0.0,0.0,0.0
1664378423438,-0.99121094,0.111328125,0.07324219,14.8125,20.84375,1.28125,0.0,0.0,0.0
1664378423438,-0.99121094,0.111328125,0.07324219,14.8125,20.84375,1.28125,0.0,0.0,0.0
1664378423479,-0.9873047,0.029296875,0.07910156,-10.625,5.53125,3.78125,0.0,0.0,0.0
1664378423479,-0.9873047,0.029296875,0.07910156,-10.625,5.53125,3.78125,0.0,0.0,0.0
1664378423518,-1.0361328,0.0126953125,0.053710938,5.0625,10.34375,-0.1875,0.0,0.0,0.0
1664378423518,-1.0361328,0.0126953125,0.053710938,5.0625,10.34375,-0.1875,0.0,0.0,0.0
1664378423559,-0.9921875,0.09375,0.1640625,0.90625,3.1875,5.0625,0.0,0.0,0.0
1664378423559,-0.9921875,0.09375,0.1640625,0.90625,3.1875,5.0625,0.0,0.0,0.0
1664378423598,-0.95996094,-0.018554688,-0.024414062,3.53125,7.65625,3.15625,0.0,0.0,0.0
1664378423598,-0.95996094,-0.018554688,-0.024414062,3.53125,7.65625,3.15625,0.0,0.0,0.0
1664378423659,-1.0039062,0.11425781,-0.01171875,21.65625,21.8125,1.875,-66.4375,2.3125,-151.25
1664378423659,-1.0039062,0.11425781,-0.01171875,21.65625,21.8125,1.875,-66.4375,2.3125,-151.25
1664378423678,-1.1367188,0.18457031,0.15136719,-15.40625,6.5625,7.5625,0.0,0.0,0.0
1664378423678,-1.1367188,0.18457031,0.15136719,-15.40625,6.5625,7.5625,0.0,0.0,0.0
1664378423719,-0.9091797,0.10253906,-0.1171875,-38.78125,-29.5625,-0.8125,0.0,0.0,0.0
1664378423719,-0.9091797,0.10253906,-0.1171875,-38.78125,-29.5625,-0.8125,0.0,0.0,0.0
1664378423758,-1.0205078,0.12988281,0.016601562,-5.9375,11.0625,2.90625,0.0,0.0,0.0
1664378423758,-1.0205078,0.12988281,0.016601562,-5.9375,11.0625,2.90625,0.0,0.0,0.0
1664378423799,-0.8515625,-0.0048828125,0.1328125,-15.21875,-25.65625,9.5625,0.0,0.0,0.0
1664378423799,-0.8515625,-0.0048828125,0.1328125,-15.21875,-25.65625,9.5625,0.0,0.0,0.0
1664378423838,-0.9453125,-0.056640625,0.23632812,5.125,40.84375,9.09375,0.0,0.0,0.0
1664378423838,-0.9453125,-0.056640625,0.23632812,5.125,40.84375,9.09375,0.0,0.0,0.0
1664378423879,-0.9716797,0.125,0.21484375,13.0625,9.71875,7.125,0.0,0.0,0.0
1664378423879,-0.9716797,0.125,0.21484375,13.0625,9.71875,7.125,0.0,0.0,0.0
1664378423922,-1.0439453,-0.10449219,0.1328125,30.75,36.09375,-11.65625,0.0,0.0,0.0
1664378423922,-1.0439453,-0.10449219,0.1328125,30.75,36.09375,-11.65625,0.0,0.0,0.0
1664378423958,-0.9453125,0.171875,-0.024414062,59.4375,12.65625,-7.21875,0.0,0.0,0.0
1664378423958,-0.9453125,0.171875,-0.024414062,59.4375,12.65625,-7.21875,0.0,0.0,0.0
1664378423998,-1.1054688,0.41601562,0.052734375,46.25,21.8125,1.6875,0.0,0.0,0.0
1664378423998,-1.1054688,0.41601562,0.052734375,46.25,21.8125,1.6875,0.0,0.0,0.0
1664378424039,-1.0439453,0.19628906,-0.030273438,0.46875,12.125,6.875,0.0,0.0,0.0
1664378424039,-1.0439453,0.19628906,-0.030273438,0.46875,12.125,6.875,0.0,0.0,0.0
1664378424078,-1.0234375,0.20898438,-0.15722656,-19.25,-10.03125,-6.0625,0.0,0.0,0.0
1664378424078,-1.0234375,0.20898438,-0.15722656,-19.25,-10.03125,-6.0625,0.0,0.0,0.0
1664378424138,-0.8642578,0.34179688,-0.07128906,-4.46875,-11.4375,-14.15625,-63.625,-0.5625,-154.125
1664378424138,-0.8642578,0.34179688,-0.07128906,-4.46875,-11.4375,-14.15625,-63.625,-0.5625,-154.125
1664378424159,-1.1640625,0.14160156,0.1015625,8.15625,46.15625,4.09375,0.0,0.0,0.0
1664378424159,-1.1640625,0.14160156,0.1015625,8.15625,46.15625,4.09375,0.0,0.0,0.0
1664378424198,-0.95703125,0.13769531,0.043945312,-6.0625,3.03125,-6.59375,0.0,0.0,0.0
1664378424201,-0.95703125,0.13769531,0.043945312,-6.0625,3.03125,-6.59375,0.0,0.0,0.0
1664378424241,-1.09375,0.23535156,-0.14941406,31.78125,3.5625,-3.375,0.0,0.0,0.0
1664378424241,-1.09375,0.23535156,-0.14941406,31.78125,3.5625,-3.375,0.0,0.0,0.0
1664378424278,-1.0878906,0.3876953,-0.11621094,5.40625,-21.09375,-4.03125,0.0,0.0,0.0
1664378424278,-1.0878906,0.3876953,-0.11621094,5.40625,-21.09375,-4.03125,0.0,0.0,0.0
1664378424319,-0.96972656,0.34179688,-0.11230469,-2.21875,-14.3125,5.59375,0.0,0.0,0.0
1664378424323,-0.96972656,0.34179688,-0.11230469,-2.21875,-14.3125,5.59375,0.0,0.0,0.0
1664378424359,-0.9785156,0.24902344,-0.048828125,-16.78125,-4.1875,5.375,0.0,0.0,0.0
1664378424359,-0.9785156,0.24902344,-0.048828125,-16.78125,-4.1875,5.375,0.0,0.0,0.0
1664378424399,-1.0166016,0.22167969,0.0,-21.0,-2.21875,3.96875,0.0,0.0,0.0
1664378424399,-1.0166016,0.22167969,0.0,-21.0,-2.21875,3.96875,0.0,0.0,0.0
1664378424438,-1.0048828,0.15625,0.053710938,-16.5,8.8125,4.75,0.0,0.0,0.0
1664378424438,-1.0048828,0.15625,0.053710938,-16.5,8.8125,4.75,0.0,0.0,0.0
1664378424479,-1.0488281,0.20214844,0.00390625,-22.65625,-3.6875,0.78125,0.0,0.0,0.0
1664378424480,-1.0488281,0.20214844,0.00390625,-22.65625,-3.6875,0.78125,0.0,0.0,0.0
1664378424519,-0.953125,0.22460938,0.0146484375,-23.15625,-6.75,1.46875,0.0,0.0,0.0
1664378424519,-0.953125,0.22460938,0.0146484375,-23.15625,-6.75,1.46875,0.0,0.0,0.0
1664378424559,-1.0400391,0.23828125,-0.009765625,-30.71875,4.0,0.46875,0.0,0.0,0.0
1664378424558,-1.0400391,0.23828125,-0.009765625,-30.71875,4.0,0.46875,0.0,0.0,0.0
1664378424601,-0.99316406,0.16699219,-0.03125,-43.40625,-4.75,-1.59375,0.0,0.0,0.0
1664378424600,-0.99316406,0.16699219,-0.03125,-43.40625,-4.75,-1.59375,0.0,0.0,0.0
1664378424659,-1.0107422,0.13574219,-0.07519531,-57.15625,-12.4375,-0.75,-65.375,0.0625,-155.125
1664378424658,-1.0107422,0.13574219,-0.07519531,-57.15625,-12.4375,-0.75,-65.375,0.0625,-155.125
1664378424678,-0.95410156,-0.009765625,-0.020507812,-30.28125,-21.6875,-1.09375,0.0,0.0,0.0
1664378424678,-0.95410156,-0.009765625,-0.020507812,-30.28125,-21.6875,-1.09375,0.0,0.0,0.0
1664378424719,-1.0498047,-0.01171875,-0.053710938,-27.34375,-3.4375,-0.0625,0.0,0.0,0.0
1664378424719,-1.0498047,-0.01171875,-0.053710938,-27.34375,-3.4375,-0.0625,0.0,0.0,0.0
1664378424759,-0.98046875,-0.026367188,-0.051757812,-11.1875,-22.96875,2.0,0.0,0.0,0.0
1664378424758,-0.98046875,-0.026367188,-0.051757812,-11.1875,-22.96875,2.0,0.0,0.0,0.0
1664378424799,-1.0244141,-0.095703125,0.0146484375,10.59375,-7.34375,-0.125,0.0,0.0,0.0
1664378424799,-1.0244141,-0.095703125,0.0146484375,10.59375,-7.34375,-0.125,0.0,0.0,0.0
1664378424839,-1.0263672,-0.07519531,-0.04296875,23.59375,-13.53125,-1.65625,0.0,0.0,0.0
1664378424839,-1.0263672,-0.07519531,-0.04296875,23.59375,-13.53125,-1.65625,0.0,0.0,0.0
1664378424880,-0.98046875,-0.076171875,-0.064453125,40.6875,-12.84375,-5.375,0.0,0.0,0.0
1664378424879,-0.98046875,-0.076171875,-0.064453125,40.6875,-12.84375,-5.375,0.0,0.0,0.0
1664378424918,-1.0048828,-0.0087890625,-0.15039062,47.09375,-3.15625,-8.0,0.0,0.0,0.0
1664378424918,-1.0048828,-0.0087890625,-0.15039062,47.09375,-3.15625,-8.0,0.0,0.0,0.0
1664378424959,-0.9824219,0.07421875,-0.109375,58.9375,-8.6875,-3.59375,0.0,0.0,0.0
1664378424958,-0.9824219,0.07421875,-0.109375,58.9375,-8.6875,-3.59375,0.0,0.0,0.0
1664378424999,-0.9189453,0.046875,-0.08886719,63.90625,-1.5,-4.09375,0.0,0.0,0.0
1664378424999,-0.9189453,0.046875,-0.08886719,63.90625,-1.5,-4.09375,0.0,0.0,0.0
1664378425039,-0.9707031,0.09472656,0.025390625,92.21875,19.25,13.78125,0.0,0.0,0.0
1664378425039,-0.9707031,0.09472656,0.025390625,92.21875,19.25,13.78125,0.0,0.0,0.0
1664378425078,-1.0390625,-0.15820312,0.30273438,123.84375,-41.78125,11.15625,0.0,0.0,0.0
1664378425078,-1.0390625,-0.15820312,0.30273438,123.84375,-41.78125,11.15625,0.0,0.0,0.0
1664378425138,-0.96875,-0.18261719,0.2421875,128.28125,41.03125,-6.71875,-66.75,-0.25,-149.125
1664378425138,-0.96875,-0.18261719,0.2421875,128.28125,41.03125,-6.71875,-66.75,-0.25,-149.125
1664378425159,-1.2275391,0.171875,0.20410156,150.625,-8.9375,29.78125,0.0,0.0,0.0
1664378425159,-1.2275391,0.171875,0.20410156,150.625,-8.9375,29.78125,0.0,0.0,0.0
1664378425199,-0.7529297,0.5058594,0.11035156,140.78125,-167.5625,70.96875,0.0,0.0,0.0
1664378425200,-0.7529297,0.5058594,0.11035156,140.78125,-167.5625,70.96875,0.0,0.0,0.0
1664378425239,-1.0019531,0.5957031,-0.20410156,94.59375,-124.25,78.65625,0.0,0.0,0.0
1664378425241,-1.0019531,0.5957031,-0.20410156,94.59375,-124.25,78.65625,0.0,0.0,0.0
1664378425278,-1.0126953,0.0087890625,0.60839844,41.6875,9.84375,-6.34375,0.0,0.0,0.0
1664378425279,-1.0126953,0.0087890625,0.60839844,41.6875,9.84375,-6.34375,0.0,0.0,0.0
1664378425319,-0.8154297,0.20117188,0.038085938,22.9375,-1.125,-28.21875,0.0,0.0,0.0
1664378425319,-0.8154297,0.20117188,0.038085938,22.9375,-1.125,-28.21875,0.0,0.0,0.0
1664378425359,-0.6933594,0.36621094,-0.15332031,112.28125,14.6875,-1.96875,0.0,0.0,0.0
1664378425359,-0.6933594,0.36621094,-0.15332031,112.28125,14.6875,-1.96875,0.0,0.0,0.0
1664378425398,-0.7167969,0.7480469,0.16015625,66.75,54.84375,29.09375,0.0,0.0,0.0
1664378425399,-0.7167969,0.7480469,0.16015625,66.75,54.84375,29.09375,0.0,0.0,0.0
1664378425439,-0.6660156,0.49023438,0.24902344,25.5,79.0,54.375,0.0,0.0,0.0
1664378425439,-0.6660156,0.49023438,0.24902344,25.5,79.0,54.375,0.0,0.0,0.0
1664378425478,-1.1923828,-0.203125,0.49316406,-37.125,86.4375,20.1875,0.0,0.0,0.0
1664378425478,-1.1923828,-0.203125,0.49316406,-37.125,86.4375,20.1875,0.0,0.0,0.0
1664378425519,-1.1318359,0.2578125,-0.013671875,6.40625,73.21875,-30.21875,0.0,0.0,0.0
1664378425521,-1.1318359,0.2578125,-0.013671875,6.40625,73.21875,-30.21875,0.0,0.0,0.0
1664378425560,-0.95703125,0.71484375,0.046875,134.03125,29.5625,48.15625,0.0,0.0,0.0
1664378425561,-0.95703125,0.71484375,0.046875,134.03125,29.5625,48.15625,0.0,0.0,0.0
1664378425598,-1.2861328,0.4169922,0.15039062,-29.4375,-18.65625,9.4375,0.0,0.0,0.0
1664378425598,-1.2861328,0.4169922,0.15039062,-29.4375,-18.65625,9.4375,0.0,0.0,0.0
1664378425659,-0.8935547,0.140625,-0.30371094,-40.65625,105.8125,-17.09375,-66.75,8.0,-151.25
1664378425659,-0.8935547,0.140625,-0.30371094,-40.65625,105.8125,-17.09375,-66.75,8.0,-151.25
1664378425678,-1.234375,0.42871094,-0.041015625,9.03125,8.21875,5.1875,0.0,0.0,0.0
1664378425677,-1.234375,0.42871094,-0.041015625,9.03125,8.21875,5.1875,0.0,0.0,0.0
1664378425719,-0.9794922,0.4248047,-0.24707031,-3.5625,1.0,-2.625,0.0,0.0,0.0
1664378425719,-0.9794922,0.4248047,-0.24707031,-3.5625,1.0,-2.625,0.0,0.0,0.0
1664378425758,-0.99609375,0.4111328,-0.25976562,-23.28125,-8.34375,-1.71875,0.0,0.0,0.0
1664378425760,-0.99609375,0.4111328,-0.25976562,-23.28125,-8.34375,-1.71875,0.0,0.0,0.0
1664378425799,-1.0761719,0.33496094,-0.083984375,-19.3125,-31.21875,-2.9375,0.0,0.0,0.0
1664378425799,-1.0761719,0.33496094,-0.083984375,-19.3125,-31.21875,-2.9375,0.0,0.0,0.0
1664378425838,-1.0566406,0.38671875,-0.03125,-16.3125,-37.21875,-5.5,0.0,0.0,0.0
1664378425838,-1.0566406,0.38671875,-0.03125,-16.3125,-37.21875,-5.5,0.0,0.0,0.0
1664378425878,-0.89453125,0.36328125,-0.111328125,-14.78125,-24.09375,-10.25,0.0,0.0,0.0
1664378425880,-0.89453125,0.36328125,-0.111328125,-14.78125,-24.09375,-10.25,0.0,0.0,0.0
1664378425919,-0.8642578,0.39746094,-0.17382812,-6.40625,-57.40625,1.21875,0.0,0.0,0.0
1664378425919,-0.8642578,0.39746094,-0.17382812,-6.40625,-57.40625,1.21875,0.0,0.0,0.0
1664378425958,-1.0419922,0.37597656,0.22460938,-20.6875,-75.65625,-3.3125,0.0,0.0,0.0
1664378425958,-1.0419922,0.37597656,0.22460938,-20.6875,-75.65625,-3.3125,0.0,0.0,0.0
1664378425998,-0.94921875,0.390625,0.24804688,-30.71875,-1.8125,-20.8125,0.0,0.0,0.0
1664378425998,-0.94921875,0.390625,0.24804688,-30.71875,-1.8125,-20.8125,0.0,0.0,0.0
1664378426038,-0.95703125,0.40429688,0.1796875,-37.90625,67.40625,-15.28125,0.0,0.0,0.0
1664378426038,-0.95703125,0.40429688,0.1796875,-37.90625,67.40625,-15.28125,0.0,0.0,0.0
1664378426078,-0.89746094,0.3779297,0.2939453,-65.625,-27.4375,-7.15625,0.0,0.0,0.0
1664378426079,-0.89746094,0.3779297,0.2939453,-65.625,-27.4375,-7.15625,0.0,0.0,0.0
1664378426138,-0.95214844,0.0625,0.41503906,-65.375,11.875,-25.40625,-66.4375,5.4375,-147.1875
1664378426139,-0.95214844,0.0625,0.41503906,-65.375,11.875,-25.40625,-66.4375,5.4375,-147.1875
1664378426159,-0.73339844,-0.015625,0.54785156,-107.625,56.25,-55.90625,0.0,0.0,0.0
1664378426159,-0.73339844,-0.015625,0.54785156,-107.625,56.25,-55.90625,0.0,0.0,0.0
1664378426198,-1.2451172,-0.09082031,0.21289062,-38.59375,45.375,-52.75,0.0,0.0,0.0
1664378426198,-1.2451172,-0.09082031,0.21289062,-38.59375,45.375,-52.75,0.0,0.0,0.0
1664378426238,-1.0947266,0.6269531,0.08984375,40.21875,-8.09375,-26.4375,0.0,0.0,0.0
1664378426238,-1.0947266,0.6269531,0.08984375,40.21875,-8.09375,-26.4375,0.0,0.0,0.0
1664378426279,-0.6982422,0.17871094,0.32226562,-5.625,-69.125,-7.875,0.0,0.0,0.0
1664378426279,-0.6982422,0.17871094,0.32226562,-5.625,-69.125,-7.875,0.0,0.0,0.0
1664378426319,-0.88378906,0.11425781,-0.20703125,-138.4375,92.6875,-59.59375,0.0,0.0,0.0
1664378426319,-0.88378906,0.11425781,-0.20703125,-138.4375,92.6875,-59.59375,0.0,0.0,0.0
1664378426358,-0.7685547,0.42089844,-0.24707031,-45.53125,-58.625,-55.125,0.0,0.0,0.0
1664378426358,-0.7685547,0.42089844,-0.24707031,-45.53125,-58.625,-55.125,0.0,0.0,0.0
1664378426399,-0.9970703,0.22851562,-0.19433594,-35.15625,-26.15625,7.375,0.0,0.0,0.0
1664378426399,-0.9970703,0.22851562,-0.19433594,-35.15625,-26.15625,7.375,0.0,0.0,0.0
1664378426441,-0.9628906,0.2607422,-0.20214844,-35.53125,57.71875,17.25,0.0,0.0,0.0
1664378426441,-0.9628906,0.2607422,-0.20214844,-35.53125,57.71875,17.25,0.0,0.0,0.0
1664378426479,-1.0,0.05078125,0.0234375,12.0625,38.125,13.90625,0.0,0.0,0.0
1664378426479,-1.0,0.05078125,0.0234375,12.0625,38.125,13.90625,0.0,0.0,0.0
1664378426518,-1.0791016,-0.06738281,-0.09082031,-30.28125,-4.0,2.25,0.0,0.0,0.0
1664378426518,-1.0791016,-0.06738281,-0.09082031,-30.28125,-4.0,2.25,0.0,0.0,0.0
1664378426558,-0.9941406,0.3408203,-0.20898438,-11.25,-15.15625,-8.4375,0.0,0.0,0.0
1664378426559,-0.9941406,0.3408203,-0.20898438,-11.25,-15.15625,-8.4375,0.0,0.0,0.0
1664378426598,-1.0,0.13183594,-0.052734375,-12.40625,14.75,-3.5625,0.0,0.0,0.0
1664378426598,-1.0,0.13183594,-0.052734375,-12.40625,14.75,-3.5625,0.0,0.0,0.0
1664378426659,-1.0986328,-0.005859375,0.203125,14.21875,-14.9375,-5.25,-65.375,-1.0,-153.0625
1664378426659,-1.0986328,-0.005859375,0.203125,14.21875,-14.9375,-5.25,-65.375,-1.0,-153.0625
1664378426678,-1.0087891,-0.068359375,-0.12109375,-13.875,9.5,-11.71875,0.0,0.0,0.0
1664378426678,-1.0087891,-0.068359375,-0.12109375,-13.875,9.5,-11.71875,0.0,0.0,0.0
1664378426718,-1.0527344,0.265625,-0.26953125,12.8125,-33.0625,-6.125,0.0,0.0,0.0
1664378426719,-1.0527344,0.265625,-0.26953125,12.8125,-33.0625,-6.125,0.0,0.0,0.0
1664378426758,-1.0205078,0.2763672,-0.14257812,9.4375,34.625,-5.5,0.0,0.0,0.0
1664378426758,-1.0205078,0.2763672,-0.14257812,9.4375,34.625,-5.5,0.0,0.0,0.0
1664378426799,-0.9746094,0.034179688,-0.047851562,17.625,-12.25,-7.40625,0.0,0.0,0.0
1664378426801,-0.9746094,0.034179688,-0.047851562,17.625,-12.25,-7.40625,0.0,0.0,0.0
1664378426838,-1.1357422,-9.765625E-4,-0.0625,14.5625,27.0,-4.40625,0.0,0.0,0.0
1664378426838,-1.1357422,-9.765625E-4,-0.0625,14.5625,27.0,-4.40625,0.0,0.0,0.0
1664378426878,-0.99609375,0.171875,-0.06738281,16.53125,-13.875,-0.125,0.0,0.0,0.0
1664378426878,-0.99609375,0.171875,-0.06738281,16.53125,-13.875,-0.125,0.0,0.0,0.0
1664378426919,-1.0380859,0.08105469,-0.09472656,17.375,9.375,-4.71875,0.0,0.0,0.0
1664378426919,-1.0380859,0.08105469,-0.09472656,17.375,9.375,-4.71875,0.0,0.0,0.0
1664378426958,-1.0322266,0.125,-0.109375,16.03125,2.84375,2.25,0.0,0.0,0.0
1664378426957,-1.0322266,0.125,-0.109375,16.03125,2.84375,2.25,0.0,0.0,0.0
1664378426998,-1.0244141,0.123046875,-0.08984375,14.875,7.84375,3.90625,0.0,0.0,0.0
1664378426999,-1.0244141,0.123046875,-0.08984375,14.875,7.84375,3.90625,0.0,0.0,0.0
1664378427042,-1.0185547,0.06933594,-0.0859375,9.09375,-9.0625,2.375,0.0,0.0,0.0
1664378427042,-1.0185547,0.06933594,-0.0859375,9.09375,-9.0625,2.375,0.0,0.0,0.0
1664378427078,-1.0273438,0.12792969,-0.11621094,8.84375,1.5,4.21875,0.0,0.0,0.0
1664378427080,-1.0273438,0.12792969,-0.11621094,8.84375,1.5,4.21875,0.0,0.0,0.0
1664378427138,-1.015625,0.12890625,-0.1015625,13.40625,-7.71875,4.75,-65.6875,-3.875,-153.375
1664378427138,-1.015625,0.12890625,-0.1015625,13.40625,-7.71875,4.75,-65.6875,-3.875,-153.375
1664378427158,-1.0400391,0.13769531,-0.13183594,0.53125,1.4375,8.0,0.0,0.0,0.0
1664378427158,-1.0400391,0.13769531,-0.13183594,0.53125,1.4375,8.0,0.0,0.0,0.0
1664378427198,-0.9404297,0.15429688,-0.099609375,3.09375,-6.875,14.6875,0.0,0.0,0.0
1664378427198,-0.9404297,0.15429688,-0.099609375,3.09375,-6.875,14.6875,0.0,0.0,0.0
1664378427239,-1.0400391,0.115234375,-0.09375,12.8125,4.53125,16.28125,0.0,0.0,0.0
1664378427239,-1.0400391,0.115234375,-0.09375,12.8125,4.53125,16.28125,0.0,0.0,0.0
1664378427279,-1.0605469,0.12109375,-0.021484375,10.5625,-25.5625,10.96875,0.0,0.0,0.0
1664378427278,-1.0605469,0.12109375,-0.021484375,10.5625,-25.5625,10.96875,0.0,0.0,0.0
1664378427318,-0.9580078,0.099609375,-0.01953125,-3.5,-23.28125,1.9375,0.0,0.0,0.0
1664378427318,-0.9580078,0.099609375,-0.01953125,-3.5,-23.28125,1.9375,0.0,0.0,0.0
1664378427361,-0.86328125,0.046875,-0.036132812,21.15625,-10.40625,7.5,0.0,0.0,0.0
1664378427361,-0.86328125,0.046875,-0.036132812,21.15625,-10.40625,7.5,0.0,0.0,0.0
1664378427398,-0.9121094,0.22070312,0.03515625,50.21875,6.875,25.8125,0.0,0.0,0.0
1664378427401,-0.9121094,0.22070312,0.03515625,50.21875,6.875,25.8125,0.0,0.0,0.0
1664378427438,-1.0498047,0.2421875,0.045898438,26.71875,-28.59375,20.6875,0.0,0.0,0.0
1664378427438,-1.0498047,0.2421875,0.045898438,26.71875,-28.59375,20.6875,0.0,0.0,0.0
1664378427480,-0.69628906,0.25683594,-0.032226562,-0.4375,17.78125,17.21875,0.0,0.0,0.0
1664378427479,-0.69628906,0.25683594,-0.032226562,-0.4375,17.78125,17.21875,0.0,0.0,0.0
1664378427518,-1.2636719,0.076171875,0.40234375,38.75,-24.625,38.6875,0.0,0.0,0.0
1664378427518,-1.2636719,0.076171875,0.40234375,38.75,-24.625,38.6875,0.0,0.0,0.0
1664378427559,-0.67871094,0.099609375,-0.032226562,-4.40625,36.40625,14.21875,0.0,0.0,0.0
1664378427559,-0.67871094,0.099609375,-0.032226562,-4.40625,36.40625,14.21875,0.0,0.0,0.0
1664378427599,-1.2226562,0.2626953,0.42773438,37.84375,-5.21875,32.46875,0.0,0.0,0.0
1664378427599,-1.2226562,0.2626953,0.42773438,37.84375,-5.21875,32.46875,0.0,0.0,0.0
1664378427657,-0.8027344,0.16503906,0.09667969,21.09375,22.3125,10.90625,-67.375,3.5,-148.6875
1664378427657,-0.8027344,0.16503906,0.09667969,21.09375,22.3125,10.90625,-67.375,3.5,-148.6875
1664378427678,-0.7832031,0.41796875,0.009765625,27.5625,-11.9375,25.03125,0.0,0.0,0.0
1664378427680,-0.7832031,0.41796875,0.009765625,27.5625,-11.9375,25.03125,0.0,0.0,0.0
1664378427721,-1.0634766,0.18847656,0.39648438,37.21875,0.15625,20.0,0.0,0.0,0.0
1664378427719,-1.0634766,0.18847656,0.39648438,37.21875,0.15625,20.0,0.0,0.0,0.0
1664378427759,-0.91015625,0.32128906,0.052734375,-24.71875,21.03125,12.625,0.0,0.0,0.0
1664378427759,-0.91015625,0.32128906,0.052734375,-24.71875,21.03125,12.625,0.0,0.0,0.0
1664378427799,-1.0253906,0.1484375,0.1171875,34.34375,10.59375,9.4375,0.0,0.0,0.0
1664378427798,-1.0253906,0.1484375,0.1171875,34.34375,10.59375,9.4375,0.0,0.0,0.0
1664378427840,-0.96484375,0.3544922,0.13671875,53.15625,16.75,12.375,0.0,0.0,0.0
1664378427840,-0.96484375,0.3544922,0.13671875,53.15625,16.75,12.375,0.0,0.0,0.0
1664378427879,-1.2529297,0.40625,0.025390625,28.5625,35.25,11.21875,0.0,0.0,0.0
1664378427879,-1.2529297,0.40625,0.025390625,28.5625,35.25,11.21875,0.0,0.0,0.0
1664378427919,-1.0761719,0.34765625,-0.020507812,20.5,5.8125,6.53125,0.0,0.0,0.0
1664378427919,-1.0761719,0.34765625,-0.020507812,20.5,5.8125,6.53125,0.0,0.0,0.0
1664378427959,-1.109375,0.25585938,0.005859375,-2.15625,26.875,-4.71875,0.0,0.0,0.0
1664378427959,-1.109375,0.25585938,0.005859375,-2.15625,26.875,-4.71875,0.0,0.0,0.0
1664378427999,-1.0097656,0.35546875,-0.14160156,-2.15625,15.40625,-4.90625,0.0,0.0,0.0
1664378427999,-1.0097656,0.35546875,-0.14160156,-2.15625,15.40625,-4.90625,0.0,0.0,0.0
1664378428038,-1.0478516,0.32128906,-0.051757812,-1.40625,-4.375,4.4375,0.0,0.0,0.0
1664378428038,-1.0478516,0.32128906,-0.051757812,-1.40625,-4.375,4.4375,0.0,0.0,0.0
1664378428079,-1.1054688,0.3251953,-0.049804688,-16.5625,-4.75,-3.3125,0.0,0.0,0.0
1664378428078,-1.1054688,0.3251953,-0.049804688,-16.5625,-4.75,-3.3125,0.0,0.0,0.0
1664378428138,-1.015625,0.2607422,-0.0234375,-21.75,-18.78125,-8.4375,-65.875,5.3125,-153.1875
1664378428138,-1.015625,0.2607422,-0.0234375,-21.75,-18.78125,-8.4375,-65.875,5.3125,-153.1875
1664378428158,-1.0263672,0.29785156,-0.10449219,-16.5625,-12.5,-9.84375,0.0,0.0,0.0
1664378428158,-1.0263672,0.29785156,-0.10449219,-16.5625,-12.5,-9.84375,0.0,0.0,0.0
1664378428199,-0.99121094,0.3388672,-0.0234375,-7.65625,-2.0625,-7.5625,0.0,0.0,0.0
1664378428200,-0.99121094,0.3388672,-0.0234375,-7.65625,-2.0625,-7.5625,0.0,0.0,0.0
1664378428238,-1.09375,0.2939453,0.10449219,-31.5625,-33.1875,-12.75,0.0,0.0,0.0
1664378428238,-1.09375,0.2939453,0.10449219,-31.5625,-33.1875,-12.75,0.0,0.0,0.0
1664378428278,-1.0585938,0.27441406,0.068359375,-37.71875,-7.34375,-21.3125,0.0,0.0,0.0
1664378428279,-1.0585938,0.27441406,0.068359375,-37.71875,-7.34375,-21.3125,0.0,0.0,0.0
1664378428319,-1.0136719,0.23242188,0.16992188,-40.90625,-29.8125,-24.375,0.0,0.0,0.0
1664378428319,-1.0136719,0.23242188,0.16992188,-40.90625,-29.8125,-24.375,0.0,0.0,0.0
1664378428359,-0.9794922,0.19335938,0.107421875,-48.90625,-12.59375,-29.125,0.0,0.0,0.0
1664378428359,-0.9794922,0.19335938,0.107421875,-48.90625,-12.59375,-29.125,0.0,0.0,0.0
1664378428398,-0.83496094,0.13085938,0.13574219,-38.65625,41.21875,-22.15625,0.0,0.0,0.0
1664378428398,-0.83496094,0.13085938,0.13574219,-38.65625,41.21875,-22.15625,0.0,0.0,0.0
1664378428439,-1.1054688,0.16699219,0.2763672,-5.6875,-36.15625,-13.3125,0.0,0.0,0.0
1664378428439,-1.1054688,0.16699219,0.2763672,-5.6875,-36.15625,-13.3125,0.0,0.0,0.0
1664378428479,-0.9394531,0.25878906,0.20019531,-40.96875,4.40625,-27.0,0.0,0.0,0.0
1664378428479,-0.9394531,0.25878906,0.20019531,-40.96875,4.40625,-27.0,0.0,0.0,0.0
1664378428518,-0.9140625,-0.0068359375,0.22753906,-63.71875,-5.78125,-24.0,0.0,0.0,0.0
1664378428518,-0.9140625,-0.0068359375,0.22753906,-63.71875,-5.78125,-24.0,0.0,0.0,0.0
1664378428559,-1.0234375,0.11230469,0.123046875,-21.3125,5.21875,-9.15625,0.0,0.0,0.0
1664378428559,-1.0234375,0.11230469,0.123046875,-21.3125,5.21875,-9.15625,0.0,0.0,0.0
1664378428597,-0.8544922,0.11621094,0.111328125,-30.46875,-18.21875,-10.3125,0.0,0.0,0.0
1664378428598,-0.8544922,0.11621094,0.111328125,-30.46875,-18.21875,-10.3125,0.0,0.0,0.0
1664378428658,-0.85058594,-0.020507812,-0.029296875,-31.875,19.75,-12.71875,-66.4375,-1.0,-150.9375
1664378428658,-0.85058594,-0.020507812,-0.029296875,-31.875,19.75,-12.71875,-66.4375,-1.0,-150.9375
1664378428678,-1.0390625,0.16503906,-0.20605469,-46.03125,9.25,-22.96875,0.0,0.0,0.0
1664378428678,-1.0390625,0.16503906,-0.20605469,-46.03125,9.25,-22.96875,0.0,0.0,0.0
1664378428719,-0.80566406,0.21386719,-0.15722656,-7.75,-25.4375,-15.875,0.0,0.0,0.0
1664378428719,-0.80566406,0.21386719,-0.15722656,-7.75,-25.4375,-15.875,0.0,0.0,0.0
1664378428758,-0.77441406,0.076171875,-0.13476562,-7.03125,4.84375,-3.5625,0.0,0.0,0.0
1664378428759,-0.77441406,0.076171875,-0.13476562,-7.03125,4.84375,-3.5625,0.0,0.0,0.0
1664378428799,-1.0791016,0.19628906,-0.18066406,28.375,31.09375,-0.75,0.0,0.0,0.0
1664378428799,-1.0791016,0.19628906,-0.18066406,28.375,31.09375,-0.75,0.0,0.0,0.0
1664378428839,-1.0585938,0.09082031,-0.009765625,36.1875,33.0,-2.625,0.0,0.0,0.0
1664378428839,-1.0585938,0.09082031,-0.009765625,36.1875,33.0,-2.625,0.0,0.0,0.0
1664378428879,-1.2177734,0.05078125,-0.025390625,9.375,5.65625,-2.6875,0.0,0.0,0.0
1664378428880,-1.2177734,0.05078125,-0.025390625,9.375,5.65625,-2.6875,0.0,0.0,0.0
1664378428919,-1.0625,0.15527344,-0.16894531,-10.75,-4.4375,-8.84375,0.0,0.0,0.0
1664378428919,-1.0625,0.15527344,-0.16894531,-10.75,-4.4375,-8.84375,0.0,0.0,0.0
1664378428959,-0.859375,0.30664062,-0.1953125,-25.09375,-32.09375,-6.0625,0.0,0.0,0.0
1664378428959,-0.859375,0.30664062,-0.1953125,-25.09375,-32.09375,-6.0625,0.0,0.0,0.0
1664378428998,-0.99902344,0.13476562,-0.11621094,-24.5,45.1875,-0.3125,0.0,0.0,0.0
1664378428998,-0.99902344,0.13476562,-0.11621094,-24.5,45.1875,-0.3125,0.0,0.0,0.0
1664378429038,-1.1152344,-0.032226562,0.033203125,20.125,13.75,-0.3125,0.0,0.0,0.0
1664378429038,-1.1152344,-0.032226562,0.033203125,20.125,13.75,-0.3125,0.0,0.0,0.0
1664378429079,-1.0634766,0.024414062,-0.0078125,-13.9375,-1.75,-10.375,0.0,0.0,0.0
1664378429078,-1.0634766,0.024414062,-0.0078125,-13.9375,-1.75,-10.375,0.0,0.0,0.0
1664378429139,-1.0097656,0.14160156,-0.14257812,-2.8125,-16.9375,-8.96875,-64.5,-2.6875,-155.3125
1664378429139,-1.0097656,0.14160156,-0.14257812,-2.8125,-16.9375,-8.96875,-64.5,-2.6875,-155.3125
1664378429158,-1.0400391,0.19238281,-0.20214844,-1.71875,-2.40625,-3.0625,0.0,0.0,0.0
1664378429158,-1.0400391,0.19238281,-0.20214844,-1.71875,-2.40625,-3.0625,0.0,0.0,0.0
1664378429199,-1.0332031,0.15039062,-0.11328125,4.0625,1.375,-2.5,0.0,0.0,0.0
1664378429198,-1.0332031,0.15039062,-0.11328125,4.0625,1.375,-2.5,0.0,0.0,0.0
1664378429239,-1.046875,0.09765625,-0.08984375,2.0625,-11.5625,-3.0625,0.0,0.0,0.0
1664378429238,-1.046875,0.09765625,-0.08984375,2.0625,-11.5625,-3.0625,0.0,0.0,0.0
1664378429278,-0.9873047,0.13964844,-0.13867188,-11.0625,-4.25,-0.3125,0.0,0.0,0.0
1664378429278,-0.9873047,0.13964844,-0.13867188,-11.0625,-4.25,-0.3125,0.0,0.0,0.0
1664378429319,-1.0371094,0.13183594,-0.11425781,11.15625,1.25,1.40625,0.0,0.0,0.0
1664378429319,-1.0371094,0.13183594,-0.11425781,11.15625,1.25,1.40625,0.0,0.0,0.0
1664378429357,-1.0,0.038085938,-0.07714844,5.0,-3.9375,5.3125,0.0,0.0,0.0
1664378429358,-1.0,0.038085938,-0.07714844,5.0,-3.9375,5.3125,0.0,0.0,0.0
1664378429398,-1.0029297,0.020507812,-0.049804688,21.15625,3.03125,4.875,0.0,0.0,0.0
1664378429398,-1.0029297,0.020507812,-0.049804688,21.15625,3.03125,4.875,0.0,0.0,0.0
1664378429439,-0.953125,0.0,0.030273438,34.78125,4.65625,4.25,0.0,0.0,0.0
1664378429439,-0.953125,0.0,0.030273438,34.78125,4.65625,4.25,0.0,0.0,0.0
1664378429478,-1.0947266,-0.036132812,0.07324219,47.34375,-11.3125,11.09375,0.0,0.0,0.0
1664378429478,-1.0947266,-0.036132812,0.07324219,47.34375,-11.3125,11.09375,0.0,0.0,0.0
1664378429518,-0.9873047,-0.08886719,0.14453125,45.28125,-18.78125,8.15625,0.0,0.0,0.0
1664378429518,-0.9873047,-0.08886719,0.14453125,45.28125,-18.78125,8.15625,0.0,0.0,0.0
1664378429558,-1.0195312,-0.013671875,0.24804688,75.71875,-10.21875,1.15625,0.0,0.0,0.0
1664378429558,-1.0195312,-0.013671875,0.24804688,75.71875,-10.21875,1.15625,0.0,0.0,0.0
1664378429599,-0.953125,0.064453125,0.5,75.625,-37.03125,-3.71875,0.0,0.0,0.0
1664378429599,-0.953125,0.064453125,0.5,75.625,-37.03125,-3.71875,0.0,0.0,0.0
1664378429659,-0.9140625,-0.24316406,0.27148438,15.78125,39.875,-6.40625,-65.375,-4.1875,-150.625
1664378429659,-0.9140625,-0.24316406,0.27148438,15.78125,39.875,-6.40625,-65.375,-4.1875,-150.625
1664378429677,-1.0205078,-0.21289062,0.21679688,116.5625,10.71875,12.5,0.0,0.0,0.0
1664378429677,-1.0205078,-0.21289062,0.21679688,116.5625,10.71875,12.5,0.0,0.0,0.0
1664378429739,-1.0986328,0.04296875,0.19238281,132.9375,-9.0625,11.96875,0.0,0.0,0.0
1664378429739,-1.0986328,0.04296875,0.19238281,132.9375,-9.0625,11.96875,0.0,0.0,0.0
1664378429759,-1.1494141,0.041992188,-0.18066406,84.40625,-12.125,-19.21875,0.0,0.0,0.0
1664378429759,-1.1494141,0.041992188,-0.18066406,84.40625,-12.125,-19.21875,0.0,0.0,0.0
1664378429799,-0.8125,0.2705078,-0.1640625,106.5,-89.03125,-5.25,0.0,0.0,0.0
1664378429799,-0.8125,0.2705078,-0.1640625,106.5,-89.03125,-5.25,0.0,0.0,0.0
1664378429838,-1.2216797,0.16113281,0.13183594,177.71875,-34.9375,14.875,0.0,0.0,0.0
1664378429838,-1.2216797,0.16113281,0.13183594,177.71875,-34.9375,14.875,0.0,0.0,0.0
1664378429878,-1.1601562,0.045898438,0.2578125,120.96875,-86.21875,8.59375,0.0,0.0,0.0
1664378429878,-1.1601562,0.045898438,0.2578125,120.96875,-86.21875,8.59375,0.0,0.0,0.0
1664378429918,-0.9160156,0.045898438,0.16601562,87.15625,-71.8125,-4.03125,0.0,0.0,0.0
1664378429918,-0.9160156,0.045898438,0.16601562,87.15625,-71.8125,-4.03125,0.0,0.0,0.0
1664378429958,-0.9326172,0.083984375,0.0146484375,96.4375,-51.5,-10.5625,0.0,0.0,0.0
1664378429958,-0.9326172,0.083984375,0.0146484375,96.4375,-51.5,-10.5625,0.0,0.0,0.0
1664378429998,-0.9121094,-0.01953125,0.052734375,113.5625,-10.59375,-20.40625,0.0,0.0,0.0
1664378429999,-0.9121094,-0.01953125,0.052734375,113.5625,-10.59375,-20.40625,0.0,0.0,0.0
1664378430038,-0.9121094,0.06640625,0.057617188,160.28125,-19.0625,-33.40625,0.0,0.0,0.0
1664378430039,-0.9121094,0.06640625,0.057617188,160.28125,-19.0625,-33.40625,0.0,0.0,0.0
1664378430078,-0.8125,0.16992188,-0.020507812,189.875,-24.9375,-37.65625,0.0,0.0,0.0
1664378430079,-0.8125,0.16992188,-0.020507812,189.875,-24.9375,-37.65625,0.0,0.0,0.0
1664378430139,-0.8984375,0.19140625,-0.076171875,158.0,46.65625,-46.46875,-64.5,-7.3125,-133.125
1664378430139,-0.8984375,0.19140625,-0.076171875,158.0,46.65625,-46.46875,-64.5,-7.3125,-133.125
1664378430159,-1.1435547,0.1640625,-0.032226562,186.375,-11.3125,-38.34375,0.0,0.0,0.0
1664378430159,-1.1435547,0.1640625,-0.032226562,186.375,-11.3125,-38.34375,0.0,0.0,0.0
1664378430199,-1.0136719,-0.26367188,0.09667969,187.90625,-21.75,-35.34375,0.0,0.0,0.0
1664378430201,-1.0136719,-0.26367188,0.09667969,187.90625,-21.75,-35.34375,0.0,0.0,0.0
1664378430258,-1.0332031,-0.060546875,-0.19140625,149.875,100.625,-16.5,0.0,0.0,0.0
1664378430258,-1.0332031,-0.060546875,-0.19140625,149.875,100.625,-16.5,0.0,0.0,0.0
1664378430299,-1.0019531,0.32910156,-0.078125,223.25,0.28125,-10.25,0.0,0.0,0.0
1664378430299,-1.0019531,0.32910156,-0.078125,223.25,0.28125,-10.25,0.0,0.0,0.0
1664378430317,-1.0605469,0.13476562,0.46679688,227.46875,-82.875,-12.03125,0.0,0.0,0.0
1664378430317,-1.0605469,0.13476562,0.46679688,227.46875,-82.875,-12.03125,0.0,0.0,0.0
1664378430359,-0.9394531,-0.3076172,0.3095703,75.71875,42.4375,-24.71875,0.0,0.0,0.0
1664378430359,-0.9394531,-0.3076172,0.3095703,75.71875,42.4375,-24.71875,0.0,0.0,0.0
1664378430398,-0.99121094,-0.37597656,-0.068359375,167.34375,32.875,-8.1875,0.0,0.0,0.0
1664378430399,-0.99121094,-0.37597656,-0.068359375,167.34375,32.875,-8.1875,0.0,0.0,0.0
1664378430439,-1.0673828,-0.22851562,0.03125,228.1875,0.75,3.34375,0.0,0.0,0.0
1664378430439,-1.0673828,-0.22851562,0.03125,228.1875,0.75,3.34375,0.0,0.0,0.0
1664378430482,-1.0283203,-0.17773438,-0.115234375,189.625,-10.90625,7.4375,0.0,0.0,0.0
1664378430482,-1.0283203,-0.17773438,-0.115234375,189.625,-10.90625,7.4375,0.0,0.0,0.0
1664378430520,-1.0302734,-0.14257812,-0.2705078,198.96875,-41.34375,-4.03125,0.0,0.0,0.0
1664378430520,-1.0302734,-0.14257812,-0.2705078,198.96875,-41.34375,-4.03125,0.0,0.0,0.0
1664378430559,-1.0126953,0.043945312,-0.21972656,252.5625,-112.46875,-42.96875,0.0,0.0,0.0
1664378430559,-1.0126953,0.043945312,-0.21972656,252.5625,-112.46875,-42.96875,0.0,0.0,0.0
1664378430598,-1.5830078,0.6591797,-0.2890625,178.75,38.84375,-30.9375,0.0,0.0,0.0
1664378430598,-1.5830078,0.6591797,-0.2890625,178.75,38.84375,-30.9375,0.0,0.0,0.0
1664378430640,-1.3320312,-0.18066406,0.32226562,331.59375,-223.96875,-10.875,-63.75,5.5625,-133.375
1664378430640,-1.3320312,-0.18066406,0.32226562,331.59375,-223.96875,-10.875,-63.75,5.5625,-133.375
1664378430679,-0.5029297,-0.061523438,0.265625,248.46875,-136.09375,-21.96875,0.0,0.0,0.0
1664378430679,-0.5029297,-0.061523438,0.265625,248.46875,-136.09375,-21.96875,0.0,0.0,0.0
1664378430720,-0.75390625,-0.07714844,-0.08496094,84.53125,27.125,-26.875,0.0,0.0,0.0
1664378430720,-0.75390625,-0.07714844,-0.08496094,84.53125,27.125,-26.875,0.0,0.0,0.0
1664378430758,-1.2128906,0.028320312,-0.4453125,110.15625,37.25,-68.0,0.0,0.0,0.0
1664378430758,-1.2128906,0.028320312,-0.4453125,110.15625,37.25,-68.0,0.0,0.0,0.0
1664378430801,-0.8613281,0.37402344,-0.2861328,202.3125,-85.0,-45.84375,0.0,0.0,0.0
1664378430801,-0.8613281,0.37402344,-0.2861328,202.3125,-85.0,-45.84375,0.0,0.0,0.0
1664378430840,-0.7050781,0.3076172,-0.16601562,204.6875,16.75,-32.84375,0.0,0.0,0.0
1664378430840,-0.7050781,0.3076172,-0.16601562,204.6875,16.75,-32.84375,0.0,0.0,0.0
1664378430879,-1.5976562,0.20019531,-0.328125,108.15625,253.0625,-14.09375,0.0,0.0,0.0
1664378430881,-1.5976562,0.20019531,-0.328125,108.15625,253.0625,-14.09375,0.0,0.0,0.0
1664378430919,-1.171875,-0.23144531,0.52734375,392.03125,-274.09375,44.84375,0.0,0.0,0.0
1664378430919,-1.171875,-0.23144531,0.52734375,392.03125,-274.09375,44.84375,0.0,0.0,0.0
1664378430959,-0.7158203,0.05078125,0.73828125,206.90625,37.625,-47.375,0.0,0.0,0.0
1664378430959,-0.7158203,0.05078125,0.73828125,206.90625,37.625,-47.375,0.0,0.0,0.0
1664378430998,-1.1269531,-0.06738281,-0.046875,7.875,131.5,-49.5,0.0,0.0,0.0
1664378430999,-1.1269531,-0.06738281,-0.046875,7.875,131.5,-49.5,0.0,0.0,0.0
1664378431039,-0.9033203,0.09472656,-0.11425781,127.1875,-36.0,-3.3125,0.0,0.0,0.0
1664378431039,-0.9033203,0.09472656,-0.11425781,127.1875,-36.0,-3.3125,0.0,0.0,0.0
1664378431079,-1.1025391,-0.17773438,0.3408203,198.28125,-54.21875,11.09375,0.0,0.0,0.0
1664378431079,-1.1025391,-0.17773438,0.3408203,198.28125,-54.21875,11.09375,0.0,0.0,0.0
1664378431138,-0.8808594,-0.38671875,0.16308594,87.34375,14.1875,-7.46875,-63.875,12.9375,-145.375
1664378431138,-0.8808594,-0.38671875,0.16308594,87.34375,14.1875,-7.46875,-63.875,12.9375,-145.375
1664378431159,-1.1357422,-0.22558594,-0.20703125,138.96875,56.1875,-4.03125,0.0,0.0,0.0
1664378431160,-1.1357422,-0.22558594,-0.20703125,138.96875,56.1875,-4.03125,0.0,0.0,0.0
1664378431199,-1.0771484,0.09765625,-0.21191406,172.78125,-44.46875,4.75,0.0,0.0,0.0
1664378431199,-1.0771484,0.09765625,-0.21191406,172.78125,-44.46875,4.75,0.0,0.0,0.0
1664378431239,-0.81640625,0.034179688,-0.14453125,204.40625,-81.15625,-22.21875,0.0,0.0,0.0
1664378431239,-0.81640625,0.034179688,-0.14453125,204.40625,-81.15625,-22.21875,0.0,0.0,0.0
1664378431280,-1.3759766,0.44140625,-0.1796875,167.59375,13.46875,-23.8125,0.0,0.0,0.0
1664378431280,-1.3759766,0.44140625,-0.1796875,167.59375,13.46875,-23.8125,0.0,0.0,0.0
1664378431319,-1.3583984,0.15625,0.20703125,254.375,-228.25,-17.28125,0.0,0.0,0.0
1664378431319,-1.3583984,0.15625,0.20703125,254.375,-228.25,-17.28125,0.0,0.0,0.0
1664378431359,-0.6376953,-0.025390625,0.111328125,138.46875,-46.375,-19.71875,0.0,0.0,0.0
1664378431359,-0.6376953,-0.025390625,0.111328125,138.46875,-46.375,-19.71875,0.0,0.0,0.0
1664378431398,-0.9746094,0.095703125,-0.18066406,2.78125,42.5,-30.15625,0.0,0.0,0.0
1664378431398,-0.9746094,0.095703125,-0.18066406,2.78125,42.5,-30.15625,0.0,0.0,0.0
1664378431439,-0.9550781,0.11621094,-0.25195312,113.28125,-11.8125,-31.3125,0.0,0.0,0.0
1664378431439,-0.9550781,0.11621094,-0.25195312,113.28125,-11.8125,-31.3125,0.0,0.0,0.0
1664378431479,-0.86328125,0.23535156,-0.19433594,207.09375,-85.96875,-9.65625,0.0,0.0,0.0
1664378431481,-0.86328125,0.23535156,-0.19433594,207.09375,-85.96875,-9.65625,0.0,0.0,0.0
1664378431518,-0.8876953,0.10058594,-0.099609375,130.125,76.0,-32.90625,0.0,0.0,0.0
1664378431520,-0.8876953,0.10058594,-0.099609375,130.125,76.0,-32.90625,0.0,0.0,0.0
1664378431559,-1.9267578,0.5263672,0.17773438,189.375,-12.4375,30.75,0.0,0.0,0.0
1664378431559,-1.9267578,0.5263672,0.17773438,189.375,-12.4375,30.75,0.0,0.0,0.0
1664378431598,-0.45214844,0.15722656,0.111328125,28.75,-1.1875,0.0625,0.0,0.0,0.0
1664378431598,-0.45214844,0.15722656,0.111328125,28.75,-1.1875,0.0625,0.0,0.0,0.0
1664378431638,-0.9716797,0.01953125,0.38476562,43.25,-39.9375,5.84375,-65.6875,4.0625,-152.625
1664378431641,-0.9716797,0.01953125,0.38476562,43.25,-39.9375,5.84375,-65.6875,4.0625,-152.625
1664378431679,-1.0986328,-0.2529297,0.07910156,-1.71875,56.78125,-17.78125,0.0,0.0,0.0
1664378431679,-1.0986328,-0.2529297,0.07910156,-1.71875,56.78125,-17.78125,0.0,0.0,0.0
1664378431719,-0.9580078,-0.0068359375,0.1953125,108.4375,-28.28125,4.9375,0.0,0.0,0.0
1664378431719,-0.9580078,-0.0068359375,0.1953125,108.4375,-28.28125,4.9375,0.0,0.0,0.0
1664378431758,-1.0117188,0.013671875,0.078125,22.6875,-4.375,1.15625,0.0,0.0,0.0
1664378431761,-1.0117188,0.013671875,0.078125,22.6875,-4.375,1.15625,0.0,0.0,0.0
1664378431799,-1.1132812,0.028320312,-0.047851562,9.5,22.25,5.0,0.0,0.0,0.0
1664378431800,-1.1132812,0.028320312,-0.047851562,9.5,22.25,5.0,0.0,0.0,0.0
1664378431839,-0.8847656,-0.025390625,-0.07128906,43.875,-15.78125,0.59375,0.0,0.0,0.0
1664378431838,-0.8847656,-0.025390625,-0.07128906,43.875,-15.78125,0.59375,0.0,0.0,0.0
1664378431878,-1.0722656,0.21386719,0.0859375,93.8125,-12.78125,-5.8125,0.0,0.0,0.0
1664378431878,-1.0722656,0.21386719,0.0859375,93.8125,-12.78125,-5.8125,0.0,0.0,0.0
1664378431918,-1.1386719,0.119140625,0.45507812,66.9375,-87.25,-0.0625,0.0,0.0,0.0
1664378431918,-1.1386719,0.119140625,0.45507812,66.9375,-87.25,-0.0625,0.0,0.0,0.0
1664378431959,-0.8173828,-9.765625E-4,-0.029296875,-74.96875,96.28125,-24.84375,0.0,0.0,0.0
1664378431959,-0.8173828,-9.765625E-4,-0.029296875,-74.96875,96.28125,-24.84375,0.0,0.0,0.0
1664378431998,-1.0205078,0.16308594,-0.2421875,-6.84375,24.9375,-3.375,0.0,0.0,0.0
1664378431998,-1.0205078,0.16308594,-0.2421875,-6.84375,24.9375,-3.375,0.0,0.0,0.0
1664378432040,-0.9736328,0.31640625,-0.10058594,37.65625,4.1875,8.125,0.0,0.0,0.0
1664378432040,-0.9736328,0.31640625,-0.10058594,37.65625,4.1875,8.125,0.0,0.0,0.0
1664378432079,-0.7753906,-0.11035156,0.24023438,-29.96875,-17.125,-1.96875,0.0,0.0,0.0
1664378432079,-0.7753906,-0.11035156,0.24023438,-29.96875,-17.125,-1.96875,0.0,0.0,0.0
1664378432118,-1.1367188,0.11230469,0.045898438,-59.28125,27.4375,-6.96875,-65.6875,0.5,-154.6875
1664378432118,-1.1367188,0.11230469,0.045898438,-59.28125,27.4375,-6.96875,-65.6875,0.5,-154.6875
1664378432158,-0.9638672,0.14746094,-0.00390625,-59.65625,-26.21875,-8.0625,0.0,0.0,0.0
1664378432158,-0.9638672,0.14746094,-0.00390625,-59.65625,-26.21875,-8.0625,0.0,0.0,0.0
1664378432199,-1.0244141,0.072265625,0.21972656,-19.375,-24.6875,-6.1875,0.0,0.0,0.0
1664378432199,-1.0244141,0.072265625,0.21972656,-19.375,-24.6875,-6.1875,0.0,0.0,0.0
1664378432259,-1.0117188,0.19726562,0.017578125,-66.1875,26.8125,-19.1875,0.0,0.0,0.0
1664378432259,-1.0117188,0.19726562,0.017578125,-66.1875,26.8125,-19.1875,0.0,0.0,0.0
1664378432300,-1.0439453,0.296875,0.0126953125,-37.625,3.25,-2.625,0.0,0.0,0.0
1664378432302,-1.0439453,0.296875,0.0126953125,-37.625,3.25,-2.625,0.0,0.0,0.0
1664378432318,-1.0117188,0.13476562,0.12011719,-34.75,-14.9375,2.1875,0.0,0.0,0.0
1664378432318,-1.0117188,0.13476562,0.12011719,-34.75,-14.9375,2.1875,0.0,0.0,0.0
1664378432358,-0.98828125,-0.026367188,0.0390625,-63.25,23.90625,-7.5625,0.0,0.0,0.0
1664378432359,-0.98828125,-0.026367188,0.0390625,-63.25,23.90625,-7.5625,0.0,0.0,0.0
1664378432398,-1.0664062,0.15429688,0.18261719,-22.09375,-3.28125,-0.6875,0.0,0.0,0.0
1664378432398,-1.0664062,0.15429688,0.18261719,-22.09375,-3.28125,-0.6875,0.0,0.0,0.0
1664378432438,-0.9765625,0.047851562,0.08300781,-22.65625,15.21875,7.5,0.0,0.0,0.0
1664378432439,-0.9765625,0.047851562,0.08300781,-22.65625,15.21875,7.5,0.0,0.0,0.0
1664378432478,-1.0322266,0.13183594,0.17285156,-14.65625,-0.28125,7.1875,0.0,0.0,0.0
1664378432479,-1.0322266,0.13183594,0.17285156,-14.65625,-0.28125,7.1875,0.0,0.0,0.0
1664378432518,-1.0507812,0.12402344,0.15625,0.84375,-9.0625,7.1875,0.0,0.0,0.0
1664378432518,-1.0507812,0.12402344,0.15625,0.84375,-9.0625,7.1875,0.0,0.0,0.0
1664378432559,-1.0390625,0.103515625,0.2109375,0.96875,-6.3125,3.09375,0.0,0.0,0.0
1664378432559,-1.0390625,0.103515625,0.2109375,0.96875,-6.3125,3.09375,0.0,0.0,0.0
1664378432598,-1.0097656,0.10058594,0.2841797,4.8125,-23.40625,4.15625,0.0,0.0,0.0
1664378432598,-1.0097656,0.10058594,0.2841797,4.8125,-23.40625,4.15625,0.0,0.0,0.0
1664378432638,-0.9560547,0.0029296875,0.20800781,1.09375,-2.40625,-3.78125,-65.875,1.6875,-151.375
1664378432638,-0.9560547,0.0029296875,0.20800781,1.09375,-2.40625,-3.78125,-65.875,1.6875,-151.375
1664378432681,-0.9921875,0.17773438,0.13085938,12.75,10.03125,-4.90625,0.0,0.0,0.0
1664378432681,-0.9921875,0.17773438,0.13085938,12.75,10.03125,-4.90625,0.0,0.0,0.0
1664378432718,-1.0048828,0.08203125,0.14355469,14.03125,3.1875,-8.8125,0.0,0.0,0.0
1664378432718,-1.0048828,0.08203125,0.14355469,14.03125,3.1875,-8.8125,0.0,0.0,0.0
1664378432758,-1.0214844,0.005859375,0.1015625,24.09375,3.75,-13.3125,0.0,0.0,0.0
1664378432758,-1.0214844,0.005859375,0.1015625,24.09375,3.75,-13.3125,0.0,0.0,0.0
1664378432799,-0.94628906,0.111328125,0.078125,34.34375,-3.40625,-7.15625,0.0,0.0,0.0
1664378432799,-0.94628906,0.111328125,0.078125,34.34375,-3.40625,-7.15625,0.0,0.0,0.0
1664378432838,-1.0195312,0.078125,0.038085938,18.375,-1.8125,0.71875,0.0,0.0,0.0
1664378432838,-1.0195312,0.078125,0.038085938,18.375,-1.8125,0.71875,0.0,0.0,0.0
1664378432878,-1.0322266,0.09375,-0.02734375,-3.625,-0.84375,-4.9375,0.0,0.0,0.0
1664378432878,-1.0322266,0.09375,-0.02734375,-3.625,-0.84375,-4.9375,0.0,0.0,0.0
1664378432918,-0.953125,0.05078125,0.047851562,7.625,-8.53125,-3.5625,0.0,0.0,0.0
1664378432919,-0.953125,0.05078125,0.047851562,7.625,-8.53125,-3.5625,0.0,0.0,0.0
1664378432959,-0.9707031,-0.059570312,0.07519531,-0.0625,2.78125,-5.8125,0.0,0.0,0.0
1664378432959,-0.9707031,-0.059570312,0.07519531,-0.0625,2.78125,-5.8125,0.0,0.0,0.0
1664378432998,-1.0195312,0.09375,-0.08203125,0.84375,5.53125,-7.34375,0.0,0.0,0.0
1664378432998,-1.0195312,0.09375,-0.08203125,0.84375,5.53125,-7.34375,0.0,0.0,0.0
1664378433040,-0.9560547,0.1484375,0.09082031,3.34375,-1.125,6.03125,0.0,0.0,0.0
1664378433041,-0.9560547,0.1484375,0.09082031,3.34375,-1.125,6.03125,0.0,0.0,0.0
1664378433078,-0.95996094,0.0087890625,0.045898438,-19.65625,4.71875,6.21875,0.0,0.0,0.0
1664378433078,-0.95996094,0.0087890625,0.045898438,-19.65625,4.71875,6.21875,0.0,0.0,0.0
1664378433119,-1.0166016,-0.080078125,0.009765625,-2.75,17.84375,2.6875,-64.625,0.8125,-153.0625
1664378433119,-1.0166016,-0.080078125,0.009765625,-2.75,17.84375,2.6875,-64.625,0.8125,-153.0625
1664378433159,-1.0947266,0.056640625,0.09277344,-11.375,-3.34375,2.5625,0.0,0.0,0.0
1664378433159,-1.0947266,0.056640625,0.09277344,-11.375,-3.34375,2.5625,0.0,0.0,0.0
1664378433198,-1.125,-0.08105469,0.021484375,-33.71875,-9.96875,5.125,0.0,0.0,0.0
1664378433198,-1.125,-0.08105469,0.021484375,-33.71875,-9.96875,5.125,0.0,0.0,0.0
1664378433239,-1.0478516,-0.24511719,0.037109375,-22.03125,-50.9375,14.625,0.0,0.0,0.0
1664378433239,-1.0478516,-0.24511719,0.037109375,-22.03125,-50.9375,14.625,0.0,0.0,0.0
1664378433281,-1.0576172,-0.25683594,-0.021484375,8.53125,-37.625,6.09375,0.0,0.0,0.0
1664378433281,-1.0576172,-0.25683594,-0.021484375,8.53125,-37.625,6.09375,0.0,0.0,0.0
1664378433319,-1.0664062,-0.3984375,-0.033203125,26.84375,-44.78125,3.84375,0.0,0.0,0.0
1664378433320,-1.0664062,-0.3984375,-0.033203125,26.84375,-44.78125,3.84375,0.0,0.0,0.0
1664378433360,-1.0908203,-0.24316406,0.0078125,62.90625,-26.875,1.40625,0.0,0.0,0.0
1664378433360,-1.0908203,-0.24316406,0.0078125,62.90625,-26.875,1.40625,0.0,0.0,0.0
1664378433400,-1.1074219,-0.16210938,-0.0078125,75.78125,-23.78125,2.96875,0.0,0.0,0.0
1664378433400,-1.1074219,-0.16210938,-0.0078125,75.78125,-23.78125,2.96875,0.0,0.0,0.0
1664378433438,-1.0458984,-0.03515625,-0.018554688,75.65625,-17.0625,0.71875,0.0,0.0,0.0
1664378433438,-1.0458984,-0.03515625,-0.018554688,75.65625,-17.0625,0.71875,0.0,0.0,0.0
1664378433479,-1.0087891,-0.05078125,-0.0078125,54.5,-4.90625,0.59375,0.0,0.0,0.0
1664378433479,-1.0087891,-0.05078125,-0.0078125,54.5,-4.90625,0.59375,0.0,0.0,0.0
1664378433519,-1.0253906,0.02734375,0.12207031,40.6875,14.96875,-4.84375,0.0,0.0,0.0
1664378433519,-1.0253906,0.02734375,0.12207031,40.6875,14.96875,-4.84375,0.0,0.0,0.0
1664378433559,-0.99121094,0.048828125,0.12109375,30.1875,4.125,-6.59375,0.0,0.0,0.0
1664378433559,-0.99121094,0.048828125,0.12109375,30.1875,4.125,-6.59375,0.0,0.0,0.0
1664378433601,-0.83203125,0.14746094,0.12597656,40.15625,-6.875,-8.3125,0.0,0.0,0.0
1664378433601,-0.83203125,0.14746094,0.12597656,40.15625,-6.875,-8.3125,0.0,0.0,0.0
1664378433641,-0.95703125,0.20410156,0.27441406,43.8125,10.71875,-6.96875,-65.125,0.625,-147.625
1664378433642,-0.95703125,0.20410156,0.27441406,43.8125,10.71875,-6.96875,-65.125,0.625,-147.625
1664378433679,-0.9824219,0.13867188,0.17578125,12.3125,-6.5625,4.6875,0.0,0.0,0.0
1664378433679,-0.9824219,0.13867188,0.17578125,12.3125,-6.5625,4.6875,0.0,0.0,0.0
1664378433719,-0.92871094,0.20898438,0.044921875,32.28125,-5.46875,16.15625,0.0,0.0,0.0
1664378433719,-0.92871094,0.20898438,0.044921875,32.28125,-5.46875,16.15625,0.0,0.0,0.0
1664378433759,-0.9824219,0.30566406,0.16113281,19.53125,-6.9375,14.875,0.0,0.0,0.0
1664378433759,-0.9824219,0.30566406,0.16113281,19.53125,-6.9375,14.875,0.0,0.0,0.0
1664378433799,-0.90722656,0.08886719,0.013671875,-35.09375,0.75,14.34375,0.0,0.0,0.0
1664378433799,-0.90722656,0.08886719,0.013671875,-35.09375,0.75,14.34375,0.0,0.0,0.0
1664378433840,-1.1259766,0.017578125,-0.16308594,-54.03125,35.4375,10.125,0.0,0.0,0.0
1664378433840,-1.1259766,0.017578125,-0.16308594,-54.03125,35.4375,10.125,0.0,0.0,0.0
1664378433880,-0.9326172,0.22949219,-0.20703125,12.6875,-32.09375,36.90625,0.0,0.0,0.0
1664378433881,-0.9326172,0.22949219,-0.20703125,12.6875,-32.09375,36.90625,0.0,0.0,0.0
1664378433921,-0.95996094,0.5341797,-0.095703125,52.96875,15.15625,30.8125,0.0,0.0,0.0
1664378433921,-0.95996094,0.5341797,-0.095703125,52.96875,15.15625,30.8125,0.0,0.0,0.0
1664378433959,-1.3535156,0.6064453,0.6064453,95.375,-81.03125,17.21875,0.0,0.0,0.0
1664378433961,-1.3535156,0.6064453,0.6064453,95.375,-81.03125,17.21875,0.0,0.0,0.0
1664378433998,-0.9941406,0.27246094,0.75097656,-35.28125,-67.71875,47.125,0.0,0.0,0.0
1664378433998,-0.9941406,0.27246094,0.75097656,-35.28125,-67.71875,47.125,0.0,0.0,0.0
1664378434039,-0.9765625,0.06738281,0.3486328,5.84375,-74.1875,43.5,0.0,0.0,0.0
1664378434039,-0.9765625,0.06738281,0.3486328,5.84375,-74.1875,43.5,0.0,0.0,0.0
1664378434079,-0.4267578,0.48535156,0.19726562,37.71875,-59.125,7.875,0.0,0.0,0.0
1664378434079,-0.4267578,0.48535156,0.19726562,37.71875,-59.125,7.875,0.0,0.0,0.0
1664378434118,-0.9248047,0.16113281,0.55078125,16.40625,16.125,13.65625,-67.625,8.5625,-137.0
1664378434118,-0.9248047,0.16113281,0.55078125,16.40625,16.125,13.65625,-67.625,8.5625,-137.0
1664378434160,-0.64941406,0.2890625,0.29101562,57.96875,-34.28125,8.40625,0.0,0.0,0.0
1664378434160,-0.64941406,0.2890625,0.29101562,57.96875,-34.28125,8.40625,0.0,0.0,0.0
1664378434199,-0.80566406,0.29296875,0.32421875,35.625,9.65625,-2.75,0.0,0.0,0.0
1664378434199,-0.80566406,0.29296875,0.32421875,35.625,9.65625,-2.75,0.0,0.0,0.0
1664378434239,-0.7783203,0.45507812,0.28320312,13.0,-2.46875,-6.53125,0.0,0.0,0.0
1664378434240,-0.7783203,0.45507812,0.28320312,13.0,-2.46875,-6.53125,0.0,0.0,0.0
1664378434278,-0.8691406,0.4951172,0.28808594,-1.96875,-5.71875,-15.625,0.0,0.0,0.0
1664378434278,-0.8691406,0.4951172,0.28808594,-1.96875,-5.71875,-15.625,0.0,0.0,0.0
1664378434319,-0.87402344,0.36328125,0.2763672,-30.59375,-0.59375,1.53125,0.0,0.0,0.0
1664378434319,-0.87402344,0.36328125,0.2763672,-30.59375,-0.59375,1.53125,0.0,0.0,0.0
1664378434359,-0.7294922,0.29785156,0.29882812,-22.15625,3.1875,-4.71875,0.0,0.0,0.0
1664378434359,-0.7294922,0.29785156,0.29882812,-22.15625,3.1875,-4.71875,0.0,0.0,0.0
1664378434398,-0.95996094,0.38867188,0.55859375,-8.875,-14.6875,-11.0625,0.0,0.0,0.0
1664378434398,-0.95996094,0.38867188,0.55859375,-8.875,-14.6875,-11.0625,0.0,0.0,0.0
1664378434439,-0.5644531,0.0234375,0.41308594,2.96875,-25.3125,-28.5,0.0,0.0,0.0
1664378434439,-0.5644531,0.0234375,0.41308594,2.96875,-25.3125,-28.5,0.0,0.0,0.0
1664378434479,-0.9033203,0.083984375,0.11035156,-47.9375,-2.53125,0.125,0.0,0.0,0.0
1664378434480,-0.9033203,0.083984375,0.11035156,-47.9375,-2.53125,0.125,0.0,0.0,0.0
1664378434518,-1.9921875,0.7373047,1.2001953,74.6875,-158.0625,39.25,0.0,0.0,0.0
1664378434518,-1.9921875,0.7373047,1.2001953,74.6875,-158.0625,39.25,0.0,0.0,0.0
1664378434559,-1.0898438,0.13867188,-0.0068359375,-112.4375,58.8125,10.84375,0.0,0.0,0.0
1664378434560,-1.0898438,0.13867188,-0.0068359375,-112.4375,58.8125,10.84375,0.0,0.0,0.0
1664378434599,-1.0205078,-0.11328125,0.4111328,-77.90625,15.90625,-21.6875,0.0,0.0,0.0
1664378434601,-1.0205078,-0.11328125,0.4111328,-77.90625,15.90625,-21.6875,0.0,0.0,0.0
1664378434638,-0.94433594,0.11425781,0.5673828,-0.75,-46.3125,20.9375,-65.5625,3.5,-126.9375
1664378434639,-0.94433594,0.11425781,0.5673828,-0.75,-46.3125,20.9375,-65.5625,3.5,-126.9375
1664378434679,-0.7890625,0.12011719,0.4921875,-34.3125,-7.40625,6.875,0.0,0.0,0.0
1664378434679,-0.7890625,0.12011719,0.4921875,-34.3125,-7.40625,6.875,0.0,0.0,0.0
1664378434718,-0.46679688,-0.080078125,0.4501953,-6.25,-42.46875,0.0,0.0,0.0,0.0
1664378434718,-0.46679688,-0.080078125,0.4501953,-6.25,-42.46875,0.0,0.0,0.0,0.0
1664378434758,-0.8046875,0.21191406,0.49414062,-10.375,-72.0,31.3125,0.0,0.0,0.0
1664378434758,-0.8046875,0.21191406,0.49414062,-10.375,-72.0,31.3125,0.0,0.0,0.0
1664378434799,-0.5888672,0.28515625,0.625,-45.4375,-95.1875,8.21875,0.0,0.0,0.0
1664378434799,-0.5888672,0.28515625,0.625,-45.4375,-95.1875,8.21875,0.0,0.0,0.0
1664378434839,-0.47558594,0.05859375,0.67871094,29.09375,-95.125,25.8125,0.0,0.0,0.0
1664378434839,-0.47558594,0.05859375,0.67871094,29.09375,-95.125,25.8125,0.0,0.0,0.0
1664378434898,-0.7011719,0.23046875,0.6582031,-26.625,-48.0625,8.40625,0.0,0.0,0.0
1664378434899,-0.7011719,0.23046875,0.6582031,-26.625,-48.0625,8.40625,0.0,0.0,0.0
1664378434918,-0.66503906,0.12988281,0.92578125,-44.75,-94.34375,-26.375,0.0,0.0,0.0
1664378434918,-0.66503906,0.12988281,0.92578125,-44.75,-94.34375,-26.375,0.0,0.0,0.0
1664378434959,-0.55371094,0.2529297,0.6689453,-36.625,-64.5625,-6.40625,0.0,0.0,0.0
1664378434959,-0.55371094,0.2529297,0.6689453,-36.625,-64.5625,-6.40625,0.0,0.0,0.0
1664378434999,-0.8388672,0.2529297,0.65234375,-18.03125,-65.65625,-7.09375,0.0,0.0,0.0
1664378434998,-0.8388672,0.2529297,0.65234375,-18.03125,-65.65625,-7.09375,0.0,0.0,0.0
1664378435039,-0.66308594,0.2734375,0.86035156,-25.21875,-107.34375,-10.125,0.0,0.0,0.0
1664378435039,-0.66308594,0.2734375,0.86035156,-25.21875,-107.34375,-10.125,0.0,0.0,0.0
1664378435079,-0.67578125,0.11230469,0.79003906,-45.1875,-116.5625,1.75,0.0,0.0,0.0
1664378435079,-0.67578125,0.11230469,0.79003906,-45.1875,-116.5625,1.75,0.0,0.0,0.0
1664378435118,-0.24414062,0.048828125,0.76464844,4.8125,-119.0625,25.75,-46.8125,-4.4375,-98.125
1664378435118,-0.24414062,0.048828125,0.76464844,4.8125,-119.0625,25.75,-46.8125,-4.4375,-98.125
1664378435159,-0.29101562,0.12988281,1.1337891,-4.21875,-99.40625,25.6875,0.0,0.0,0.0
1664378435159,-0.29101562,0.12988281,1.1337891,-4.21875,-99.40625,25.6875,0.0,0.0,0.0
1664378435198,-0.26660156,0.18359375,0.96777344,-15.875,-84.375,32.65625,0.0,0.0,0.0
1664378435201,-0.26660156,0.18359375,0.96777344,-15.875,-84.375,32.65625,0.0,0.0,0.0
1664378435238,0.030273438,0.0048828125,0.7919922,-39.3125,-86.78125,19.84375,0.0,0.0,0.0
1664378435238,0.030273438,0.0048828125,0.7919922,-39.3125,-86.78125,19.84375,0.0,0.0,0.0
1664378435278,0.1875,0.3173828,1.5751953,-42.6875,-79.9375,21.90625,0.0,0.0,0.0
1664378435278,0.1875,0.3173828,1.5751953,-42.6875,-79.9375,21.90625,0.0,0.0,0.0
1664378435319,-0.4296875,-0.0703125,1.9716797,7.0,-95.8125,52.0625,0.0,0.0,0.0
1664378435319,-0.4296875,-0.0703125,1.9716797,7.0,-95.8125,52.0625,0.0,0.0,0.0
1664378435358,0.11816406,0.026367188,0.79003906,-10.03125,-22.5625,28.125,0.0,0.0,0.0
1664378435359,0.11816406,0.026367188,0.79003906,-10.03125,-22.5625,28.125,0.0,0.0,0.0
1664378435398,0.23828125,-0.072265625,1.0117188,36.25,-3.5,-5.875,0.0,0.0,0.0
1664378435398,0.23828125,-0.072265625,1.0117188,36.25,-3.5,-5.875,0.0,0.0,0.0
1664378435439,0.041992188,0.08984375,0.8095703,8.21875,3.25,6.40625,0.0,0.0,0.0
1664378435439,0.041992188,0.08984375,0.8095703,8.21875,3.25,6.40625,0.0,0.0,0.0
1664378435478,-0.015625,0.19238281,0.8388672,-7.9375,-10.96875,8.71875,0.0,0.0,0.0
1664378435478,-0.015625,0.19238281,0.8388672,-7.9375,-10.96875,8.71875,0.0,0.0,0.0
1664378435519,0.125,0.14648438,0.92578125,12.0,-39.34375,-1.53125,0.0,0.0,0.0
1664378435518,0.125,0.14648438,0.92578125,12.0,-39.34375,-1.53125,0.0,0.0,0.0
1664378435559,0.059570312,0.049804688,1.2109375,-26.4375,18.46875,-6.78125,0.0,0.0,0.0
1664378435559,0.059570312,0.049804688,1.2109375,-26.4375,18.46875,-6.78125,0.0,0.0,0.0
1664378435598,0.0,-0.0078125,1.1582031,-12.09375,-16.6875,-2.21875,0.0,0.0,0.0
1664378435598,0.0,-0.0078125,1.1582031,-12.09375,-16.6875,-2.21875,0.0,0.0,0.0
1664378435639,0.10253906,0.0234375,0.9746094,0.21875,-17.90625,-1.59375,-23.6875,-5.5,-86.4375
1664378435639,0.10253906,0.0234375,0.9746094,0.21875,-17.90625,-1.59375,-23.6875,-5.5,-86.4375
1664378435679,0.045898438,0.0234375,0.9550781,4.5625,-0.34375,-4.90625,0.0,0.0,0.0
1664378435679,0.045898438,0.0234375,0.9550781,4.5625,-0.34375,-4.90625,0.0,0.0,0.0
1664378435720,-0.026367188,0.02734375,0.9511719,30.5625,-1.3125,-1.90625,0.0,0.0,0.0
1664378435720,-0.026367188,0.02734375,0.9511719,30.5625,-1.3125,-1.90625,0.0,0.0,0.0
1664378435759,0.10546875,0.16796875,1.0908203,5.71875,-28.53125,-5.6875,0.0,0.0,0.0
1664378435759,0.10546875,0.16796875,1.0908203,5.71875,-28.53125,-5.6875,0.0,0.0,0.0
1664378435800,0.095703125,0.25878906,0.89941406,12.0625,-31.09375,0.1875,0.0,0.0,0.0
1664378435800,0.095703125,0.25878906,0.89941406,12.0625,-31.09375,0.1875,0.0,0.0,0.0
1664378435838,0.08984375,0.14550781,0.9746094,-12.21875,4.96875,10.84375,0.0,0.0,0.0
1664378435838,0.08984375,0.14550781,0.9746094,-12.21875,4.96875,10.84375,0.0,0.0,0.0
1664378435879,-0.021484375,0.07910156,1.1787109,-21.75,13.40625,5.0,0.0,0.0,0.0
1664378435878,-0.021484375,0.07910156,1.1787109,-21.75,13.40625,5.0,0.0,0.0,0.0
1664378435919,-0.14453125,0.037109375,0.95996094,-7.21875,-3.4375,6.28125,0.0,0.0,0.0
1664378435919,-0.14453125,0.037109375,0.95996094,-7.21875,-3.4375,6.28125,0.0,0.0,0.0
1664378435958,0.020507812,-0.041992188,0.87402344,-18.75,4.53125,1.21875,0.0,0.0,0.0
1664378435958,0.020507812,-0.041992188,0.87402344,-18.75,4.53125,1.21875,0.0,0.0,0.0
1664378435999,-0.032226562,0.0703125,1.1279297,-41.15625,28.96875,-6.59375,0.0,0.0,0.0
1664378435999,-0.032226562,0.0703125,1.1279297,-41.15625,28.96875,-6.59375,0.0,0.0,0.0
1664378436038,-0.064453125,0.10546875,1.1660156,-1.59375,-17.5,5.90625,0.0,0.0,0.0
1664378436038,-0.064453125,0.10546875,1.1660156,-1.59375,-17.5,5.90625,0.0,0.0,0.0
1664378436079,-0.01953125,0.030273438,0.96777344,2.125,-27.4375,1.625,0.0,0.0,0.0
1664378436079,-0.01953125,0.030273438,0.96777344,2.125,-27.4375,1.625,0.0,0.0,0.0
1664378436119,0.072265625,0.05859375,1.0322266,5.34375,-16.40625,-3.0,-21.4375,-9.4375,-85.375
1664378436119,0.072265625,0.05859375,1.0322266,5.34375,-16.40625,-3.0,-21.4375,-9.4375,-85.375
1664378436159,0.09667969,0.14453125,0.9355469,15.375,-6.25,-2.9375,0.0,0.0,0.0
1664378436161,0.09667969,0.14453125,0.9355469,15.375,-6.25,-2.9375,0.0,0.0,0.0
1664378436199,0.06933594,0.04296875,1.046875,3.46875,0.9375,1.59375,0.0,0.0,0.0
1664378436199,0.06933594,0.04296875,1.046875,3.46875,0.9375,1.59375,0.0,0.0,0.0
1664378436240,0.029296875,0.13183594,1.0673828,6.53125,-0.15625,0.84375,0.0,0.0,0.0
1664378436240,0.029296875,0.13183594,1.0673828,6.53125,-0.15625,0.84375,0.0,0.0,0.0
1664378436279,0.05859375,0.13183594,1.0136719,15.84375,-5.59375,2.875,0.0,0.0,0.0
1664378436279,0.05859375,0.13183594,1.0136719,15.84375,-5.59375,2.875,0.0,0.0,0.0
1664378436318,0.17578125,0.038085938,1.0087891,15.625,1.25,2.5,0.0,0.0,0.0
1664378436318,0.17578125,0.038085938,1.0087891,15.625,1.25,2.5,0.0,0.0,0.0
1664378436360,0.09863281,0.0029296875,1.0048828,31.46875,-0.03125,8.0,0.0,0.0,0.0
1664378436360,0.09863281,0.0029296875,1.0048828,31.46875,-0.03125,8.0,0.0,0.0,0.0
1664378436399,0.20605469,0.040039062,1.0478516,44.25,-4.90625,12.375,0.0,0.0,0.0
1664378436399,0.20605469,0.040039062,1.0478516,44.25,-4.90625,12.375,0.0,0.0,0.0
1664378436438,0.29296875,-0.00390625,0.94140625,75.65625,-15.65625,6.09375,0.0,0.0,0.0
1664378436438,0.29296875,-0.00390625,0.94140625,75.65625,-15.65625,6.09375,0.0,0.0,0.0
1664378436480,0.38183594,0.123046875,0.90527344,59.125,-2.34375,-5.9375,0.0,0.0,0.0
1664378436482,0.38183594,0.123046875,0.90527344,59.125,-2.34375,-5.9375,0.0,0.0,0.0
1664378436519,0.484375,0.06640625,1.2451172,28.4375,23.9375,-4.9375,0.0,0.0,0.0
1664378436519,0.484375,0.06640625,1.2451172,28.4375,23.9375,-4.9375,0.0,0.0,0.0
1664378436559,0.49609375,0.15332031,1.2939453,75.125,-52.59375,8.0625,0.0,0.0,0.0
1664378436559,0.49609375,0.15332031,1.2939453,75.125,-52.59375,8.0625,0.0,0.0,0.0
1664378436599,0.15820312,0.4501953,0.9199219,61.5625,2.90625,-28.09375,0.0,0.0,0.0
1664378436599,0.15820312,0.4501953,0.9199219,61.5625,2.90625,-28.09375,0.0,0.0,0.0
1664378436639,0.22949219,0.4404297,1.1513672,-36.625,84.625,-43.96875,-18.3125,9.1875,-88.25
1664378436639,0.22949219,0.4404297,1.1513672,-36.625,84.625,-43.96875,-18.3125,9.1875,-88.25
1664378436679,-0.08300781,0.24707031,1.1464844,-28.625,53.96875,-34.4375,0.0,0.0,0.0
1664378436679,-0.08300781,0.24707031,1.1464844,-28.625,53.96875,-34.4375,0.0,0.0,0.0
1664378436720,-0.19238281,0.4501953,1.1884766,-18.5,86.09375,-71.84375,0.0,0.0,0.0
1664378436720,-0.19238281,0.4501953,1.1884766,-18.5,86.09375,-71.84375,0.0,0.0,0.0
1664378436759,-0.49316406,0.42578125,1.0839844,-0.75,122.71875,-44.75,0.0,0.0,0.0
1664378436759,-0.49316406,0.42578125,1.0839844,-0.75,122.71875,-44.75,0.0,0.0,0.0
1664378436799,-0.51953125,0.17285156,0.8886719,108.25,127.46875,-76.0,0.0,0.0,0.0
1664378436799,-0.51953125,0.17285156,0.8886719,108.25,127.46875,-76.0,0.0,0.0,0.0
1664378436839,-0.21972656,0.8515625,1.1796875,43.5,133.21875,-87.15625,0.0,0.0,0.0
1664378436839,-0.21972656,0.8515625,1.1796875,43.5,133.21875,-87.15625,0.0,0.0,0.0
1664378436879,-0.47558594,0.39453125,0.89453125,-45.0625,153.46875,-63.0625,0.0,0.0,0.0
1664378436879,-0.47558594,0.39453125,0.89453125,-45.0625,153.46875,-63.0625,0.0,0.0,0.0
1664378436919,-0.33007812,0.27441406,0.9609375,12.6875,197.53125,-74.09375,0.0,0.0,0.0
1664378436919,-0.33007812,0.27441406,0.9609375,12.6875,197.53125,-74.09375,0.0,0.0,0.0
1664378436959,-0.6386719,0.24511719,0.90625,-3.625,148.78125,-8.6875,0.0,0.0,0.0
1664378436959,-0.6386719,0.24511719,0.90625,-3.625,148.78125,-8.6875,0.0,0.0,0.0
1664378436999,-0.76660156,0.4560547,0.4951172,-7.53125,142.3125,-23.625,0.0,0.0,0.0
1664378436999,-0.76660156,0.4560547,0.4951172,-7.53125,142.3125,-23.625,0.0,0.0,0.0
1664378437040,-0.65625,0.5498047,0.42871094,27.21875,171.96875,-9.21875,0.0,0.0,0.0
1664378437040,-0.65625,0.5498047,0.42871094,27.21875,171.96875,-9.21875,0.0,0.0,0.0
1664378437082,-0.69921875,0.29101562,0.47558594,-40.0,137.1875,-26.6875,0.0,0.0,0.0
1664378437082,-0.69921875,0.29101562,0.47558594,-40.0,137.1875,-26.6875,0.0,0.0,0.0
1664378437119,-0.27148438,0.1640625,0.76464844,-75.9375,64.78125,-22.65625,-67.625,5.3125,-128.625
1664378437119,-0.27148438,0.1640625,0.76464844,-75.9375,64.78125,-22.65625,-67.625,5.3125,-128.625
1664378437159,-0.43359375,0.0146484375,0.06933594,-22.40625,89.5,7.875,0.0,0.0,0.0
1664378437159,-0.43359375,0.0146484375,0.06933594,-22.40625,89.5,7.875,0.0,0.0,0.0
1664378437199,-1.0380859,-0.13085938,-0.16992188,-249.53125,121.0,-17.09375,0.0,0.0,0.0
1664378437199,-1.0380859,-0.13085938,-0.16992188,-249.53125,121.0,-17.09375,0.0,0.0,0.0
1664378437239,-0.62402344,0.24609375,-0.375,-134.46875,130.15625,-57.875,0.0,0.0,0.0
1664378437239,-0.62402344,0.24609375,-0.375,-134.46875,130.15625,-57.875,0.0,0.0,0.0
1664378437278,-0.88964844,0.19921875,-0.171875,41.75,39.5625,15.125,0.0,0.0,0.0
1664378437278,-0.88964844,0.19921875,-0.171875,41.75,39.5625,15.125,0.0,0.0,0.0
1664378437321,-1.125,-0.20507812,-0.099609375,-3.5,166.65625,-0.25,0.0,0.0,0.0
1664378437321,-1.125,-0.20507812,-0.099609375,-3.5,166.65625,-0.25,0.0,0.0,0.0
1664378437360,-1.0595703,0.18457031,0.072265625,93.5625,-104.71875,34.71875,0.0,0.0,0.0
1664378437360,-1.0595703,0.18457031,0.072265625,93.5625,-104.71875,34.71875,0.0,0.0,0.0
1664378437398,-0.95996094,0.21582031,0.20996094,-58.375,3.5,13.0,0.0,0.0,0.0
1664378437398,-0.95996094,0.21582031,0.20996094,-58.375,3.5,13.0,0.0,0.0,0.0
1664378437439,-1.0800781,-0.15722656,-0.111328125,-103.71875,51.53125,-5.6875,0.0,0.0,0.0
1664378437439,-1.0800781,-0.15722656,-0.111328125,-103.71875,51.53125,-5.6875,0.0,0.0,0.0
1664378437478,-1.0712891,0.11328125,-0.20410156,15.6875,13.21875,0.125,0.0,0.0,0.0
1664378437478,-1.0712891,0.11328125,-0.20410156,15.6875,13.21875,0.125,0.0,0.0,0.0
1664378437519,-1.0917969,0.17773438,0.0087890625,52.65625,-40.875,8.78125,0.0,0.0,0.0
1664378437519,-1.0917969,0.17773438,0.0087890625,52.65625,-40.875,8.78125,0.0,0.0,0.0
1664378437559,-0.9140625,0.15917969,-0.13574219,-1.28125,-11.5,7.4375,0.0,0.0,0.0
1664378437559,-0.9140625,0.15917969,-0.13574219,-1.28125,-11.5,7.4375,0.0,0.0,0.0
1664378437598,-0.9511719,0.17773438,-0.21972656,14.625,-1.3125,9.34375,0.0,0.0,0.0
1664378437598,-0.9511719,0.17773438,-0.21972656,14.625,-1.3125,9.34375,0.0,0.0,0.0
1664378437638,-0.93066406,0.24609375,-0.11425781,47.59375,-25.84375,19.84375,-67.5,2.3125,-147.8125
1664378437641,-0.93066406,0.24609375,-0.11425781,47.59375,-25.84375,19.84375,-67.5,2.3125,-147.8125
1664378437681,-0.8671875,0.203125,-0.0029296875,37.53125,-35.8125,25.375,0.0,0.0,0.0
1664378437681,-0.8671875,0.203125,-0.0029296875,37.53125,-35.8125,25.375,0.0,0.0,0.0
1664378437718,-0.7451172,0.14746094,0.040039062,40.03125,-56.0625,29.84375,0.0,0.0,0.0
1664378437718,-0.7451172,0.14746094,0.040039062,40.03125,-56.0625,29.84375,0.0,0.0,0.0
1664378437758,-0.7236328,0.19238281,0.10449219,61.5,-75.90625,32.78125,0.0,0.0,0.0
1664378437761,-0.7236328,0.19238281,0.10449219,61.5,-75.90625,32.78125,0.0,0.0,0.0
1664378437799,-0.5732422,0.23828125,0.2626953,80.0625,-56.84375,0.90625,0.0,0.0,0.0
1664378437799,-0.5732422,0.23828125,0.2626953,80.0625,-56.84375,0.90625,0.0,0.0,0.0
1664378437839,-0.6464844,0.27734375,0.44140625,48.21875,-66.375,-3.125,0.0,0.0,0.0
1664378437839,-0.6464844,0.27734375,0.44140625,48.21875,-66.375,-3.125,0.0,0.0,0.0
1664378437879,-0.640625,0.2890625,0.53808594,22.875,-167.5625,0.96875,0.0,0.0,0.0
1664378437879,-0.640625,0.2890625,0.53808594,22.875,-167.5625,0.96875,0.0,0.0,0.0
1664378437919,-0.6484375,0.4658203,0.75097656,14.03125,-353.84375,44.96875,0.0,0.0,0.0
1664378437919,-0.6484375,0.4658203,0.75097656,14.03125,-353.84375,44.96875,0.0,0.0,0.0
1664378437961,-0.7216797,0.21191406,0.6513672,-89.71875,-180.28125,20.3125,0.0,0.0,0.0
1664378437961,-0.7216797,0.21191406,0.6513672,-89.71875,-180.28125,20.3125,0.0,0.0,0.0
1664378437999,-0.6171875,-0.026367188,0.69921875,-44.375,-102.5,7.0,0.0,0.0,0.0
1664378438001,-0.6171875,-0.026367188,0.69921875,-44.375,-102.5,7.0,0.0,0.0,0.0
1664378438038,-0.65722656,0.30664062,0.7578125,16.28125,-125.46875,47.46875,0.0,0.0,0.0
1664378438038,-0.65722656,0.30664062,0.7578125,16.28125,-125.46875,47.46875,0.0,0.0,0.0
1664378438078,-0.46484375,0.40820312,1.0605469,23.59375,-125.875,67.625,0.0,0.0,0.0
1664378438078,-0.46484375,0.40820312,1.0605469,23.59375,-125.875,67.625,0.0,0.0,0.0
1664378438119,-0.56933594,0.40429688,1.0292969,6.03125,-156.96875,53.15625,-49.5,5.4375,-100.125
1664378438118,-0.56933594,0.40429688,1.0292969,6.03125,-156.96875,53.15625,-49.5,5.4375,-100.125
1664378438159,-0.38085938,0.32226562,0.87402344,18.65625,-143.28125,58.09375,0.0,0.0,0.0
1664378438159,-0.38085938,0.32226562,0.87402344,18.65625,-143.28125,58.09375,0.0,0.0,0.0
1664378438199,-0.27148438,0.3515625,1.1708984,1.5625,-130.71875,52.53125,0.0,0.0,0.0
1664378438199,-0.27148438,0.3515625,1.1708984,1.5625,-130.71875,52.53125,0.0,0.0,0.0
1664378438238,-0.17871094,0.40625,0.94921875,-20.34375,-98.53125,25.125,0.0,0.0,0.0
1664378438238,-0.17871094,0.40625,0.94921875,-20.34375,-98.53125,25.125,0.0,0.0,0.0
1664378438278,0.2685547,0.2783203,1.2177734,-48.15625,-122.78125,11.46875,0.0,0.0,0.0
1664378438279,0.2685547,0.2783203,1.2177734,-48.15625,-122.78125,11.46875,0.0,0.0,0.0
1664378438318,0.16113281,0.515625,1.7363281,-42.0,-92.4375,7.75,0.0,0.0,0.0
1664378438318,0.16113281,0.515625,1.7363281,-42.0,-92.4375,7.75,0.0,0.0,0.0
1664378438358,0.14746094,0.13671875,1.2724609,-18.9375,-23.96875,-29.5,0.0,0.0,0.0
1664378438358,0.14746094,0.13671875,1.2724609,-18.9375,-23.96875,-29.5,0.0,0.0,0.0
1664378438398,0.21875,0.015625,1.0507812,-22.40625,45.875,-60.75,0.0,0.0,0.0
1664378438398,0.21875,0.015625,1.0507812,-22.40625,45.875,-60.75,0.0,0.0,0.0
1664378438438,0.0068359375,0.2919922,0.953125,14.6875,33.53125,-74.40625,0.0,0.0,0.0
1664378438439,0.0068359375,0.2919922,0.953125,14.6875,33.53125,-74.40625,0.0,0.0,0.0
1664378438478,0.041992188,0.4560547,0.64941406,0.53125,-20.125,-40.53125,0.0,0.0,0.0
1664378438478,0.041992188,0.4560547,0.64941406,0.53125,-20.125,-40.53125,0.0,0.0,0.0
1664378438517,0.17871094,0.052734375,0.8388672,-19.0,0.875,4.9375,0.0,0.0,0.0
1664378438517,0.17871094,0.052734375,0.8388672,-19.0,0.875,4.9375,0.0,0.0,0.0
1664378438560,-0.12890625,0.33789062,1.1943359,4.375,-7.34375,-12.8125,0.0,0.0,0.0
1664378438560,-0.12890625,0.33789062,1.1943359,4.375,-7.34375,-12.8125,0.0,0.0,0.0
1664378438599,-0.026367188,0.2763672,1.0380859,-3.5625,-22.9375,-20.21875,0.0,0.0,0.0
1664378438601,-0.026367188,0.2763672,1.0380859,-3.5625,-22.9375,-20.21875,0.0,0.0,0.0
1664378438638,0.14648438,0.25878906,0.9453125,-16.625,-14.5,-16.375,-23.875,0.8125,-85.25
1664378438639,0.14648438,0.25878906,0.9453125,-16.625,-14.5,-16.375,-23.875,0.8125,-85.25
1664378438678,0.06933594,0.23730469,0.88378906,-39.3125,17.125,-9.46875,0.0,0.0,0.0
1664378438678,0.06933594,0.23730469,0.88378906,-39.3125,17.125,-9.46875,0.0,0.0,0.0
1664378438718,-0.05078125,0.1875,1.0361328,-24.96875,10.53125,0.78125,0.0,0.0,0.0
1664378438718,-0.05078125,0.1875,1.0361328,-24.96875,10.53125,0.78125,0.0,0.0,0.0
1664378438759,-0.0126953125,0.09472656,1.0107422,-16.90625,-9.0625,5.65625,0.0,0.0,0.0
1664378438759,-0.0126953125,0.09472656,1.0107422,-16.90625,-9.0625,5.65625,0.0,0.0,0.0
1664378438799,0.028320312,0.20996094,1.0253906,8.21875,-12.3125,2.875,0.0,0.0,0.0
1664378438799,0.028320312,0.20996094,1.0253906,8.21875,-12.3125,2.875,0.0,0.0,0.0
1664378438859,0.06640625,0.18359375,0.94628906,4.125,-7.59375,2.125,0.0,0.0,0.0
1664378438859,0.06640625,0.18359375,0.94628906,4.125,-7.59375,2.125,0.0,0.0,0.0
1664378438878,0.051757812,0.18652344,1.0742188,12.5,0.03125,2.6875,0.0,0.0,0.0
1664378438879,0.051757812,0.18652344,1.0742188,12.5,0.03125,2.6875,0.0,0.0,0.0
1664378438919,0.0234375,0.19335938,1.015625,8.84375,-2.0625,-0.1875,0.0,0.0,0.0
1664378438919,0.0234375,0.19335938,1.015625,8.84375,-2.0625,-0.1875,0.0,0.0,0.0
1664378438959,0.0146484375,0.17871094,0.99609375,11.875,-0.71875,3.53125,0.0,0.0,0.0
1664378438959,0.0146484375,0.17871094,0.99609375,11.875,-0.71875,3.53125,0.0,0.0,0.0
1664378438999,0.018554688,0.18554688,0.9785156,20.9375,-14.3125,11.28125,0.0,0.0,0.0
1664378438999,0.018554688,0.18554688,0.9785156,20.9375,-14.3125,11.28125,0.0,0.0,0.0
1664378439039,0.1484375,0.13964844,1.0175781,30.4375,-19.9375,23.625,0.0,0.0,0.0
1664378439039,0.1484375,0.13964844,1.0175781,30.4375,-19.9375,23.625,0.0,0.0,0.0
1664378439078,0.11328125,0.22363281,0.98339844,73.53125,-40.8125,29.21875,0.0,0.0,0.0
1664378439078,0.11328125,0.22363281,0.98339844,73.53125,-40.8125,29.21875,0.0,0.0,0.0
1664378439120,0.27148438,0.3330078,0.84277344,73.65625,-30.25,25.75,-18.875,4.5625,-83.0
1664378439120,0.27148438,0.3330078,0.84277344,73.65625,-30.25,25.75,-18.875,4.5625,-83.0
1664378439159,0.32714844,0.3154297,0.98046875,74.21875,-25.96875,15.0,0.0,0.0,0.0
1664378439159,0.32714844,0.3154297,0.98046875,74.21875,-25.96875,15.0,0.0,0.0,0.0
1664378439198,0.40234375,0.24023438,0.9160156,68.34375,-24.625,-4.40625,0.0,0.0,0.0
1664378439199,0.40234375,0.24023438,0.9160156,68.34375,-24.625,-4.40625,0.0,0.0,0.0
1664378439242,0.39941406,0.4423828,0.9501953,38.0625,17.59375,-26.125,0.0,0.0,0.0
1664378439242,0.39941406,0.4423828,0.9501953,38.0625,17.59375,-26.125,0.0,0.0,0.0
1664378439280,0.39648438,0.5439453,1.0537109,15.75,30.25,-12.875,0.0,0.0,0.0
1664378439282,0.39648438,0.5439453,1.0537109,15.75,30.25,-12.875,0.0,0.0,0.0
1664378439318,0.32714844,0.5908203,1.0917969,4.9375,9.0625,4.25,0.0,0.0,0.0
1664378439318,0.32714844,0.5908203,1.0917969,4.9375,9.0625,4.25,0.0,0.0,0.0
1664378439360,0.26464844,0.5371094,0.8574219,-18.3125,10.78125,5.96875,0.0,0.0,0.0
1664378439359,0.26464844,0.5371094,0.8574219,-18.3125,10.78125,5.96875,0.0,0.0,0.0
1664378439399,-0.029296875,0.6982422,1.0800781,-54.5625,73.6875,-34.8125,0.0,0.0,0.0
1664378439399,-0.029296875,0.6982422,1.0800781,-54.5625,73.6875,-34.8125,0.0,0.0,0.0
1664378439438,-0.024414062,0.36132812,1.2177734,-81.875,89.875,-56.71875,0.0,0.0,0.0
1664378439438,-0.024414062,0.36132812,1.2177734,-81.875,89.875,-56.71875,0.0,0.0,0.0
1664378439481,-0.23730469,0.26660156,1.1044922,-69.15625,146.21875,-85.8125,0.0,0.0,0.0
1664378439481,-0.23730469,0.26660156,1.1044922,-69.15625,146.21875,-85.8125,0.0,0.0,0.0
1664378439539,-0.546875,0.42871094,1.2070312,50.21875,126.96875,-62.15625,0.0,0.0,0.0
1664378439539,-0.546875,0.42871094,1.2070312,50.21875,126.96875,-62.15625,0.0,0.0,0.0
1664378439559,-0.53125,0.5371094,0.95703125,88.5625,148.28125,-42.25,0.0,0.0,0.0
1664378439558,-0.53125,0.5371094,0.95703125,88.5625,148.28125,-42.25,0.0,0.0,0.0
1664378439599,-0.4404297,0.55859375,1.1367188,-6.71875,149.0625,-61.34375,0.0,0.0,0.0
1664378439599,-0.4404297,0.55859375,1.1367188,-6.71875,149.0625,-61.34375,0.0,0.0,0.0
1664378439639,-0.7001953,0.3671875,0.9082031,-13.1875,226.59375,-36.5625,-48.875,8.5625,-102.375
1664378439639,-0.7001953,0.3671875,0.9082031,-13.1875,226.59375,-36.5625,-48.875,8.5625,-102.375
1664378439679,-0.67578125,0.375,0.95214844,2.5625,228.3125,-51.03125,0.0,0.0,0.0
1664378439679,-0.67578125,0.375,0.95214844,2.5625,228.3125,-51.03125,0.0,0.0,0.0
1664378439719,-0.7548828,0.31054688,0.50390625,-17.15625,191.0625,-45.71875,0.0,0.0,0.0
1664378439719,-0.7548828,0.31054688,0.50390625,-17.15625,191.0625,-45.71875,0.0,0.0,0.0
1664378439759,-0.6826172,0.4345703,0.2705078,-20.59375,198.5625,-32.0625,0.0,0.0,0.0
1664378439759,-0.6826172,0.4345703,0.2705078,-20.59375,198.5625,-32.0625,0.0,0.0,0.0
1664378439801,-0.30566406,0.25878906,0.20800781,-97.5,69.375,-4.65625,0.0,0.0,0.0
1664378439801,-0.30566406,0.25878906,0.20800781,-97.5,69.375,-4.65625,0.0,0.0,0.0
1664378439839,-0.11816406,-0.0390625,0.017578125,-181.21875,46.09375,-4.34375,0.0,0.0,0.0
1664378439839,-0.11816406,-0.0390625,0.017578125,-181.21875,46.09375,-4.34375,0.0,0.0,0.0
1664378439879,-0.4013672,0.12597656,-0.03515625,-162.0,158.46875,18.0,0.0,0.0,0.0
1664378439879,-0.4013672,0.12597656,-0.03515625,-162.0,158.46875,18.0,0.0,0.0,0.0
1664378439919,-1.0039062,0.16699219,-0.17773438,-195.5625,293.375,-19.90625,0.0,0.0,0.0
1664378439919,-1.0039062,0.16699219,-0.17773438,-195.5625,293.375,-19.90625,0.0,0.0,0.0
1664378439959,-0.9033203,0.005859375,-0.24316406,-61.40625,8.21875,0.96875,0.0,0.0,0.0
1664378439959,-0.9033203,0.005859375,-0.24316406,-61.40625,8.21875,0.96875,0.0,0.0,0.0
1664378439999,-1.2666016,0.31640625,0.27441406,172.40625,-133.03125,39.53125,0.0,0.0,0.0
1664378439999,-1.2666016,0.31640625,0.27441406,172.40625,-133.03125,39.53125,0.0,0.0,0.0
1664378440039,-0.9277344,0.032226562,0.08203125,-107.1875,-6.5,-2.6875,0.0,0.0,0.0
1664378440039,-0.9277344,0.032226562,0.08203125,-107.1875,-6.5,-2.6875,0.0,0.0,0.0
1664378440079,-1.0507812,0.033203125,-0.029296875,-106.46875,76.8125,-31.9375,0.0,0.0,0.0
1664378440079,-1.0507812,0.033203125,-0.029296875,-106.46875,76.8125,-31.9375,0.0,0.0,0.0
1664378440122,-0.97558594,0.15917969,0.020507812,37.34375,-63.09375,11.15625,-69.4375,2.75,-143.875
1664378440122,-0.97558594,0.15917969,0.020507812,37.34375,-63.09375,11.15625,-69.4375,2.75,-143.875
1664378440158,-0.99316406,-0.061523438,0.25,-12.9375,-6.875,13.71875,0.0,0.0,0.0
1664378440159,-0.99316406,-0.061523438,0.25,-12.9375,-6.875,13.71875,0.0,0.0,0.0
1664378440200,-1.0302734,0.12695312,0.13574219,1.9375,21.8125,3.59375,0.0,0.0,0.0
1664378440202,-1.0302734,0.12695312,0.13574219,1.9375,21.8125,3.59375,0.0,0.0,0.0
1664378440239,-0.96484375,0.09375,0.18261719,5.40625,2.53125,4.625,0.0,0.0,0.0
1664378440239,-0.96484375,0.09375,0.18261719,5.40625,2.53125,4.625,0.0,0.0,0.0
1664378440278,-0.98535156,0.14550781,0.14257812,5.84375,5.65625,11.71875,0.0,0.0,0.0
1664378440278,-0.98535156,0.14550781,0.14257812,5.84375,5.65625,11.71875,0.0,0.0,0.0
1664378440319,-0.9794922,0.31152344,0.06738281,-4.78125,5.65625,11.90625,0.0,0.0,0.0
1664378440319,-0.9794922,0.31152344,0.06738281,-4.78125,5.65625,11.90625,0.0,0.0,0.0
1664378440358,-0.96191406,0.375,0.18652344,33.5,-22.5,15.1875,0.0,0.0,0.0
1664378440358,-0.96191406,0.375,0.18652344,33.5,-22.5,15.1875,0.0,0.0,0.0
1664378440398,-0.90625,0.27929688,0.38085938,-2.15625,-29.46875,19.15625,0.0,0.0,0.0
1664378440398,-0.90625,0.27929688,0.38085938,-2.15625,-29.46875,19.15625,0.0,0.0,0.0
1664378440439,-1.0400391,0.23632812,0.4736328,-56.78125,-21.28125,24.40625,0.0,0.0,0.0
1664378440440,-1.0400391,0.23632812,0.4736328,-56.78125,-21.28125,24.40625,0.0,0.0,0.0
1664378440479,-0.8808594,0.27441406,0.22851562,-71.0625,17.59375,28.5,0.0,0.0,0.0
1664378440481,-0.8808594,0.27441406,0.22851562,-71.0625,17.59375,28.5,0.0,0.0,0.0
1664378440518,-0.8984375,0.24414062,0.35253906,-52.5,19.8125,35.5,0.0,0.0,0.0
1664378440518,-0.8984375,0.24414062,0.35253906,-52.5,19.8125,35.5,0.0,0.0,0.0
1664378440559,-0.77246094,0.22949219,0.3642578,-72.21875,32.875,26.25,0.0,0.0,0.0
1664378440559,-0.77246094,0.22949219,0.3642578,-72.21875,32.875,26.25,0.0,0.0,0.0
1664378440598,-0.7841797,0.28027344,0.27734375,-115.75,45.625,17.5,0.0,0.0,0.0
1664378440598,-0.7841797,0.28027344,0.27734375,-115.75,45.625,17.5,0.0,0.0,0.0
1664378440638,-0.76660156,0.2763672,0.29296875,-132.21875,55.15625,9.03125,-67.375,7.0625,-143.125
1664378440640,-0.76660156,0.2763672,0.29296875,-132.21875,55.15625,9.03125,-67.375,7.0625,-143.125
1664378440679,-1.1357422,0.21191406,0.34960938,-129.21875,41.96875,-3.125,0.0,0.0,0.0
1664378440679,-1.1357422,0.21191406,0.34960938,-129.21875,41.96875,-3.125,0.0,0.0,0.0
1664378440719,-1.4736328,0.3076172,-0.13183594,-175.71875,13.75,16.40625,0.0,0.0,0.0
1664378440719,-1.4736328,0.3076172,-0.13183594,-175.71875,13.75,16.40625,0.0,0.0,0.0
1664378440759,-0.6386719,0.21972656,-0.11621094,-148.21875,13.09375,29.09375,0.0,0.0,0.0
1664378440759,-0.6386719,0.21972656,-0.11621094,-148.21875,13.09375,29.09375,0.0,0.0,0.0
1664378440799,-1.5839844,0.18457031,-0.07714844,-69.40625,43.53125,39.96875,0.0,0.0,0.0
1664378440801,-1.5839844,0.18457031,-0.07714844,-69.40625,43.53125,39.96875,0.0,0.0,0.0
1664378440839,-0.86035156,-0.18261719,0.12792969,-210.46875,72.65625,-12.03125,0.0,0.0,0.0
1664378440839,-0.86035156,-0.18261719,0.12792969,-210.46875,72.65625,-12.03125,0.0,0.0,0.0
1664378440879,-0.84277344,0.06640625,-0.09472656,-193.625,45.625,-13.125,0.0,0.0,0.0
1664378440879,-0.84277344,0.06640625,-0.09472656,-193.625,45.625,-13.125,0.0,0.0,0.0
1664378440919,-1.0566406,0.3076172,-0.18066406,-176.03125,46.84375,23.5,0.0,0.0,0.0
1664378440919,-1.0566406,0.3076172,-0.18066406,-176.03125,46.84375,23.5,0.0,0.0,0.0
1664378440959,-0.9824219,-0.036132812,0.0859375,-129.59375,-66.0,56.5625,0.0,0.0,0.0
1664378440959,-0.9824219,-0.036132812,0.0859375,-129.59375,-66.0,56.5625,0.0,0.0,0.0
1664378440999,-1.0429688,-0.12207031,0.07128906,-218.59375,28.96875,48.5625,0.0,0.0,0.0
1664378440999,-1.0429688,-0.12207031,0.07128906,-218.59375,28.96875,48.5625,0.0,0.0,0.0
1664378441040,-0.9658203,0.15722656,-0.20117188,-230.53125,43.3125,51.25,0.0,0.0,0.0
1664378441041,-0.9658203,0.15722656,-0.20117188,-230.53125,43.3125,51.25,0.0,0.0,0.0
1664378441081,-0.88964844,-0.17382812,-0.103515625,-221.09375,-17.1875,58.9375,0.0,0.0,0.0
1664378441081,-0.88964844,-0.17382812,-0.103515625,-221.09375,-17.1875,58.9375,0.0,0.0,0.0
1664378441118,-1.3203125,-0.19628906,0.5732422,-198.125,-48.6875,25.1875,-66.75,14.125,-135.0625
1664378441118,-1.3203125,-0.19628906,0.5732422,-198.125,-48.6875,25.1875,-66.75,14.125,-135.0625
1664378441159,-1.1074219,0.3251953,0.13769531,-195.09375,22.0,33.1875,0.0,0.0,0.0
1664378441159,-1.1074219,0.3251953,0.13769531,-195.09375,22.0,33.1875,0.0,0.0,0.0
1664378441198,-0.8984375,0.6542969,0.059570312,-151.1875,30.71875,63.28125,0.0,0.0,0.0
1664378441198,-0.8984375,0.6542969,0.059570312,-151.1875,30.71875,63.28125,0.0,0.0,0.0
1664378441239,-0.7578125,0.12695312,-0.01171875,-219.96875,32.1875,68.40625,0.0,0.0,0.0
1664378441238,-0.7578125,0.12695312,-0.01171875,-219.96875,32.1875,68.40625,0.0,0.0,0.0
1664378441278,-0.8544922,-0.028320312,0.125,-262.84375,83.46875,46.0,0.0,0.0,0.0
1664378441279,-0.8544922,-0.028320312,0.125,-262.84375,83.46875,46.0,0.0,0.0,0.0
1664378441319,-0.93066406,0.038085938,0.17578125,-238.96875,75.34375,31.96875,0.0,0.0,0.0
1664378441319,-0.93066406,0.038085938,0.17578125,-238.96875,75.34375,31.96875,0.0,0.0,0.0
1664378441359,-0.9091797,0.21582031,0.0625,-245.625,58.6875,22.28125,0.0,0.0,0.0
1664378441359,-0.9091797,0.21582031,0.0625,-245.625,58.6875,22.28125,0.0,0.0,0.0
1664378441399,-1.9990234,0.62597656,-0.29785156,-269.25,104.03125,83.84375,0.0,0.0,0.0
1664378441399,-1.9990234,0.62597656,-0.29785156,-269.25,104.03125,83.84375,0.0,0.0,0.0
1664378441438,-0.13574219,-0.5253906,0.18164062,-146.5,-201.75,130.0625,0.0,0.0,0.0
1664378441438,-0.13574219,-0.5253906,0.18164062,-146.5,-201.75,130.0625,0.0,0.0,0.0
1664378441479,-1.6279297,-0.60839844,-0.140625,-336.75,230.4375,-11.59375,0.0,0.0,0.0
1664378441483,-1.6279297,-0.60839844,-0.140625,-336.75,230.4375,-11.59375,0.0,0.0,0.0
1664378441518,-0.8876953,0.23632812,0.20410156,-58.25,-110.4375,29.03125,0.0,0.0,0.0
1664378441518,-0.8876953,0.23632812,0.20410156,-58.25,-110.4375,29.03125,0.0,0.0,0.0
1664378441558,-0.9326172,-0.15429688,-0.053710938,-252.875,92.96875,12.375,0.0,0.0,0.0
1664378441558,-0.9326172,-0.15429688,-0.053710938,-252.875,92.96875,12.375,0.0,0.0,0.0
1664378441599,-1.0712891,-0.06640625,0.1171875,-132.03125,25.28125,28.125,0.0,0.0,0.0
1664378441599,-1.0712891,-0.06640625,0.1171875,-132.03125,25.28125,28.125,0.0,0.0,0.0
1664378441639,-0.93066406,0.087890625,0.18652344,-179.34375,9.125,28.96875,-62.6875,-0.875,-127.25
1664378441639,-0.93066406,0.087890625,0.18652344,-179.34375,9.125,28.96875,-62.6875,-0.875,-127.25
1664378441681,-0.9550781,0.05859375,0.09667969,-215.90625,-3.625,41.25,0.0,0.0,0.0
1664378441681,-0.9550781,0.05859375,0.09667969,-215.90625,-3.625,41.25,0.0,0.0,0.0
1664378441718,-0.9238281,-0.099609375,-0.044921875,-171.21875,0.75,61.5,0.0,0.0,0.0
1664378441719,-0.9238281,-0.099609375,-0.044921875,-171.21875,0.75,61.5,0.0,0.0,0.0
1664378441758,-0.94628906,-0.11425781,0.12402344,-227.84375,45.875,37.78125,0.0,0.0,0.0
1664378441758,-0.94628906,-0.11425781,0.12402344,-227.84375,45.875,37.78125,0.0,0.0,0.0
1664378441800,-0.9628906,-0.14160156,0.15917969,-193.3125,18.09375,10.84375,0.0,0.0,0.0
1664378441800,-0.9628906,-0.14160156,0.15917969,-193.3125,18.09375,10.84375,0.0,0.0,0.0
1664378441838,-1.2558594,0.375,0.2578125,-112.8125,17.90625,48.34375,0.0,0.0,0.0
1664378441838,-1.2558594,0.375,0.2578125,-112.8125,17.90625,48.34375,0.0,0.0,0.0
1664378441879,-1.0371094,0.4501953,0.3857422,-164.125,-45.8125,81.34375,0.0,0.0,0.0
1664378441879,-1.0371094,0.4501953,0.3857422,-164.125,-45.8125,81.34375,0.0,0.0,0.0
1664378441920,-0.6191406,-0.2548828,-0.030273438,-84.90625,-67.53125,69.3125,0.0,0.0,0.0
1664378441920,-0.6191406,-0.2548828,-0.030273438,-84.90625,-67.53125,69.3125,0.0,0.0,0.0
1664378441958,-0.74121094,0.01171875,0.35839844,-156.375,90.96875,35.15625,0.0,0.0,0.0
1664378441958,-0.74121094,0.01171875,0.35839844,-156.375,90.96875,35.15625,0.0,0.0,0.0
1664378442001,-0.87890625,0.12890625,0.5292969,-153.34375,51.34375,14.75,0.0,0.0,0.0
1664378442001,-0.87890625,0.12890625,0.5292969,-153.34375,51.34375,14.75,0.0,0.0,0.0
1664378442042,-0.8330078,0.2763672,0.046875,-252.15625,74.3125,-9.78125,0.0,0.0,0.0
1664378442042,-0.8330078,0.2763672,0.046875,-252.15625,74.3125,-9.78125,0.0,0.0,0.0
1664378442079,-1.9990234,0.7890625,-0.040039062,-177.3125,118.125,69.09375,0.0,0.0,0.0
1664378442079,-1.9990234,0.7890625,-0.040039062,-177.3125,118.125,69.09375,0.0,0.0,0.0
1664378442119,0.046875,-0.3095703,-0.020507812,-183.78125,-108.25,103.875,-66.3125,-5.8125,-138.625
1664378442119,0.046875,-0.3095703,-0.020507812,-183.78125,-108.25,103.875,-66.3125,-5.8125,-138.625
1664378442158,-1.6171875,-0.38378906,-0.2763672,-281.6875,258.5625,-15.75,0.0,0.0,0.0
1664378442159,-1.6171875,-0.38378906,-0.2763672,-281.6875,258.5625,-15.75,0.0,0.0,0.0
1664378442199,-0.97753906,-0.064453125,0.3515625,-14.84375,-97.5625,29.09375,0.0,0.0,0.0
1664378442201,-0.97753906,-0.064453125,0.3515625,-14.84375,-97.5625,29.09375,0.0,0.0,0.0
1664378442240,-1.0224609,-0.057617188,0.109375,-248.0,64.59375,0.25,0.0,0.0,0.0
1664378442240,-1.0224609,-0.057617188,0.109375,-248.0,64.59375,0.25,0.0,0.0,0.0
1664378442278,-0.9658203,-0.13183594,0.025390625,-132.65625,30.3125,21.40625,0.0,0.0,0.0
1664378442278,-0.9658203,-0.13183594,0.025390625,-132.65625,30.3125,21.40625,0.0,0.0,0.0
1664378442319,-0.91796875,0.0087890625,0.43359375,-73.0,12.40625,17.25,0.0,0.0,0.0
1664378442318,-0.91796875,0.0087890625,0.43359375,-73.0,12.40625,17.25,0.0,0.0,0.0
1664378442362,-1.0820312,0.08691406,0.19726562,-115.75,7.90625,6.78125,0.0,0.0,0.0
1664378442362,-1.0820312,0.08691406,0.19726562,-115.75,7.90625,6.78125,0.0,0.0,0.0
1664378442398,-1.078125,-0.11230469,0.16308594,-82.71875,8.75,10.96875,0.0,0.0,0.0
1664378442398,-1.078125,-0.11230469,0.16308594,-82.71875,8.75,10.96875,0.0,0.0,0.0
1664378442438,-0.92871094,0.06347656,0.38378906,-42.5625,-3.8125,21.0625,0.0,0.0,0.0
1664378442438,-0.92871094,0.06347656,0.38378906,-42.5625,-3.8125,21.0625,0.0,0.0,0.0
1664378442480,-0.9433594,0.13476562,0.29003906,-35.03125,-2.28125,36.0,0.0,0.0,0.0
1664378442480,-0.9433594,0.13476562,0.29003906,-35.03125,-2.28125,36.0,0.0,0.0,0.0
1664378442518,-1.0107422,0.025390625,-0.016601562,-51.40625,-13.84375,21.90625,0.0,0.0,0.0
1664378442518,-1.0107422,0.025390625,-0.016601562,-51.40625,-13.84375,21.90625,0.0,0.0,0.0
1664378442559,-0.7841797,0.3173828,0.22851562,-4.65625,12.71875,0.34375,0.0,0.0,0.0
1664378442559,-0.7841797,0.3173828,0.22851562,-4.65625,12.71875,0.34375,0.0,0.0,0.0
1664378442599,-1.0185547,0.50878906,0.4296875,-42.375,1.3125,20.4375,0.0,0.0,0.0
1664378442599,-1.0185547,0.50878906,0.4296875,-42.375,1.3125,20.4375,0.0,0.0,0.0
1664378442642,-0.88964844,0.2607422,0.13867188,-106.46875,26.28125,11.40625,-67.5,1.25,-145.375
1664378442642,-0.88964844,0.2607422,0.13867188,-106.46875,26.28125,11.40625,-67.5,1.25,-145.375
1664378442681,-1.0263672,0.09765625,0.3076172,-40.90625,19.375,-0.625,0.0,0.0,0.0
1664378442681,-1.0263672,0.09765625,0.3076172,-40.90625,19.375,-0.625,0.0,0.0,0.0
1664378442720,-0.87890625,0.025390625,0.1484375,-32.59375,-0.46875,8.59375,0.0,0.0,0.0
1664378442722,-0.87890625,0.025390625,0.1484375,-32.59375,-0.46875,8.59375,0.0,0.0,0.0
1664378442760,-0.9794922,0.16699219,0.11621094,18.78125,19.6875,8.53125,0.0,0.0,0.0
1664378442760,-0.9794922,0.16699219,0.11621094,18.78125,19.6875,8.53125,0.0,0.0,0.0
1664378442799,-1.1025391,0.14550781,0.3173828,1.09375,-6.4375,11.03125,0.0,0.0,0.0
1664378442799,-1.1025391,0.14550781,0.3173828,1.09375,-6.4375,11.03125,0.0,0.0,0.0
1664378442839,-0.9404297,0.048828125,0.103515625,-16.625,-2.90625,-2.75,0.0,0.0,0.0
1664378442839,-0.9404297,0.048828125,0.103515625,-16.625,-2.90625,-2.75,0.0,0.0,0.0
1664378442881,-0.94140625,0.111328125,0.08496094,13.78125,-0.34375,1.53125,0.0,0.0,0.0
1664378442881,-0.94140625,0.111328125,0.08496094,13.78125,-0.34375,1.53125,0.0,0.0,0.0
1664378442919,-1.0185547,0.13867188,0.12402344,17.0625,7.46875,-0.1875,0.0,0.0,0.0
1664378442919,-1.0185547,0.13867188,0.12402344,17.0625,7.46875,-0.1875,0.0,0.0,0.0
1664378442961,-1.0322266,0.11621094,0.04296875,16.09375,4.78125,-1.96875,0.0,0.0,0.0
1664378442961,-1.0322266,0.11621094,0.04296875,16.09375,4.78125,-1.96875,0.0,0.0,0.0
1664378442999,-1.0449219,0.1953125,0.044921875,26.125,-6.0625,8.15625,0.0,0.0,0.0
1664378443001,-1.0449219,0.1953125,0.044921875,26.125,-6.0625,8.15625,0.0,0.0,0.0
1664378443040,-0.97265625,0.08984375,0.0859375,-5.125,-3.4375,14.15625,0.0,0.0,0.0
1664378443039,-0.97265625,0.08984375,0.0859375,-5.125,-3.4375,14.15625,0.0,0.0,0.0
1664378443079,-1.0966797,-0.01171875,-0.06738281,20.5,7.59375,13.3125,0.0,0.0,0.0
1664378443079,-1.0966797,-0.01171875,-0.06738281,20.5,7.59375,13.3125,0.0,0.0,0.0
1664378443118,-0.95214844,0.055664062,-0.005859375,5.71875,-12.25,3.71875,-66.625,4.25,-148.6875
1664378443118,-0.95214844,0.055664062,-0.005859375,5.71875,-12.25,3.71875,-66.625,4.25,-148.6875
1664378443159,-1.0478516,0.09472656,-0.02734375,1.4375,15.40625,1.09375,0.0,0.0,0.0
1664378443159,-1.0478516,0.09472656,-0.02734375,1.4375,15.40625,1.09375,0.0,0.0,0.0
1664378443200,-0.9794922,-0.07324219,0.017578125,-15.34375,-5.03125,-2.9375,0.0,0.0,0.0
1664378443200,-0.9794922,-0.07324219,0.017578125,-15.34375,-5.03125,-2.9375,0.0,0.0,0.0
1664378443239,-1.0722656,-0.026367188,-0.0078125,-5.03125,18.09375,-11.0,0.0,0.0,0.0
1664378443239,-1.0722656,-0.026367188,-0.0078125,-5.03125,18.09375,-11.0,0.0,0.0,0.0
1664378443280,-1.0517578,0.041992188,0.037109375,-0.0625,10.28125,-8.6875,0.0,0.0,0.0
1664378443281,-1.0517578,0.041992188,0.037109375,-0.0625,10.28125,-8.6875,0.0,0.0,0.0
1664378443319,-1.0732422,-9.765625E-4,0.06542969,-10.8125,5.59375,-9.34375,0.0,0.0,0.0
1664378443319,-1.0732422,-9.765625E-4,0.06542969,-10.8125,5.59375,-9.34375,0.0,0.0,0.0
1664378443360,-1.0507812,-0.03125,0.07519531,-1.59375,4.65625,-7.09375,0.0,0.0,0.0
1664378443362,-1.0507812,-0.03125,0.07519531,-1.59375,4.65625,-7.09375,0.0,0.0,0.0
1664378443399,-0.9716797,0.01953125,0.11621094,5.53125,4.59375,-4.09375,0.0,0.0,0.0
1664378443399,-0.9716797,0.01953125,0.11621094,5.53125,4.59375,-4.09375,0.0,0.0,0.0
1664378443439,-1.0361328,0.09277344,0.11621094,-3.0,6.125,-4.21875,0.0,0.0,0.0
1664378443439,-1.0361328,0.09277344,0.11621094,-3.0,6.125,-4.21875,0.0,0.0,0.0
1664378443478,-1.0166016,0.103515625,0.12695312,-3.375,0.5,-4.15625,0.0,0.0,0.0
1664378443478,-1.0166016,0.103515625,0.12695312,-3.375,0.5,-4.15625,0.0,0.0,0.0
1664378443519,-1.0058594,0.10644531,0.09082031,-17.96875,1.25,-1.21875,0.0,0.0,0.0
1664378443519,-1.0058594,0.10644531,0.09082031,-17.96875,1.25,-1.21875,0.0,0.0,0.0
1664378443561,-0.99121094,0.10449219,0.10058594,-17.96875,-3.21875,0.40625,0.0,0.0,0.0
1664378443561,-0.99121094,0.10449219,0.10058594,-17.96875,-3.21875,0.40625,0.0,0.0,0.0
1664378443598,-1.0185547,0.10546875,-0.01171875,-46.53125,2.03125,0.3125,0.0,0.0,0.0
1664378443598,-1.0185547,0.10546875,-0.01171875,-46.53125,2.03125,0.3125,0.0,0.0,0.0
1664378443640,-0.9296875,0.076171875,0.068359375,-38.90625,-6.5,3.15625,-66.0,3.0625,-150.9375
1664378443639,-0.9296875,0.076171875,0.068359375,-38.90625,-6.5,3.15625,-66.0,3.0625,-150.9375
1664378443679,-0.953125,0.03515625,0.021484375,-48.28125,-1.6875,-2.4375,0.0,0.0,0.0
1664378443679,-0.953125,0.03515625,0.021484375,-48.28125,-1.6875,-2.4375,0.0,0.0,0.0
1664378443718,-0.97558594,0.16992188,0.0234375,-52.8125,5.21875,-5.4375,0.0,0.0,0.0
1664378443718,-0.97558594,0.16992188,0.0234375,-52.8125,5.21875,-5.4375,0.0,0.0,0.0
1664378443759,-0.859375,0.11621094,0.46484375,13.34375,-25.5,-5.9375,0.0,0.0,0.0
1664378443759,-0.859375,0.11621094,0.46484375,13.34375,-25.5,-5.9375,0.0,0.0,0.0
1664378443799,-1.0732422,0.07519531,0.12792969,-21.875,19.375,-3.78125,0.0,0.0,0.0
1664378443799,-1.0732422,0.07519531,0.12792969,-21.875,19.375,-3.78125,0.0,0.0,0.0
1664378443839,-0.8408203,0.5107422,0.23632812,50.71875,7.03125,-3.1875,0.0,0.0,0.0
1664378443838,-0.8408203,0.5107422,0.23632812,50.71875,7.03125,-3.1875,0.0,0.0,0.0
1664378443879,-1.1777344,0.43066406,0.18457031,-13.0,23.15625,1.6875,0.0,0.0,0.0
1664378443879,-1.1777344,0.43066406,0.18457031,-13.0,23.15625,1.6875,0.0,0.0,0.0
1664378443919,-0.96191406,0.3798828,0.025390625,-17.09375,-4.0,6.9375,0.0,0.0,0.0
1664378443919,-0.96191406,0.3798828,0.025390625,-17.09375,-4.0,6.9375,0.0,0.0,0.0
1664378443959,-1.109375,0.36621094,0.25097656,-0.4375,5.6875,5.0,0.0,0.0,0.0
1664378443959,-1.109375,0.36621094,0.25097656,-0.4375,5.6875,5.0,0.0,0.0,0.0
1664378443998,-0.9970703,0.28515625,0.23828125,-42.5,-10.21875,3.84375,0.0,0.0,0.0
1664378443999,-0.9970703,0.28515625,0.23828125,-42.5,-10.21875,3.84375,0.0,0.0,0.0
1664378444039,-0.98339844,0.21484375,0.10644531,-29.25,1.125,1.09375,0.0,0.0,0.0
1664378444039,-0.98339844,0.21484375,0.10644531,-29.25,1.125,1.09375,0.0,0.0,0.0
1664378444078,-1.0136719,0.22558594,0.21582031,-0.6875,7.96875,4.5625,0.0,0.0,0.0
1664378444078,-1.0136719,0.22558594,0.21582031,-0.6875,7.96875,4.5625,0.0,0.0,0.0
1664378444118,-0.9902344,0.20214844,0.14160156,-22.03125,-2.96875,5.3125,-67.8125,4.0625,-149.625
1664378444119,-0.9902344,0.20214844,0.14160156,-22.03125,-2.96875,5.3125,-67.8125,4.0625,-149.625
1664378444159,-1.0263672,0.17578125,0.15625,-2.34375,6.75,7.1875,0.0,0.0,0.0
1664378444159,-1.0263672,0.17578125,0.15625,-2.34375,6.75,7.1875,0.0,0.0,0.0
1664378444199,-0.9736328,0.16992188,0.11621094,-20.03125,-3.625,7.125,0.0,0.0,0.0
1664378444199,-0.9736328,0.16992188,0.11621094,-20.03125,-3.625,7.125,0.0,0.0,0.0
1664378444238,-1.0332031,0.07910156,0.057617188,-33.75,-11.625,10.4375,0.0,0.0,0.0
1664378444238,-1.0332031,0.07910156,0.057617188,-33.75,-11.625,10.4375,0.0,0.0,0.0
1664378444278,-0.92089844,0.09082031,0.05078125,-8.875,10.84375,7.9375,0.0,0.0,0.0
1664378444278,-0.92089844,0.09082031,0.05078125,-8.875,10.84375,7.9375,0.0,0.0,0.0
1664378444320,-0.9560547,0.037109375,0.053710938,-29.3125,2.34375,4.8125,0.0,0.0,0.0
1664378444319,-0.9560547,0.037109375,0.053710938,-29.3125,2.34375,4.8125,0.0,0.0,0.0
1664378444358,-1.0605469,0.038085938,-0.0078125,-25.46875,12.59375,6.03125,0.0,0.0,0.0
1664378444359,-1.0605469,0.038085938,-0.0078125,-25.46875,12.59375,6.03125,0.0,0.0,0.0
1664378444399,-0.96777344,0.046875,0.030273438,-9.15625,-2.28125,7.25,0.0,0.0,0.0
1664378444399,-0.96777344,0.046875,0.030273438,-9.15625,-2.28125,7.25,0.0,0.0,0.0
1664378444439,-1.0527344,0.034179688,0.06640625,-21.625,7.40625,4.4375,0.0,0.0,0.0
1664378444439,-1.0527344,0.034179688,0.06640625,-21.625,7.40625,4.4375,0.0,0.0,0.0
1664378444478,-0.9902344,0.033203125,0.03515625,-20.15625,3.5,2.8125,0.0,0.0,0.0
1664378444480,-0.9902344,0.033203125,0.03515625,-20.15625,3.5,2.8125,0.0,0.0,0.0
1664378444518,-1.0419922,-0.045898438,0.12011719,-8.9375,7.21875,4.09375,0.0,0.0,0.0
1664378444519,-1.0419922,-0.045898438,0.12011719,-8.9375,7.21875,4.09375,0.0,0.0,0.0
1664378444559,-1.0214844,-0.04296875,0.06640625,0.84375,13.03125,-1.65625,0.0,0.0,0.0
1664378444559,-1.0214844,-0.04296875,0.06640625,0.84375,13.03125,-1.65625,0.0,0.0,0.0
1664378444598,-0.9902344,0.049804688,0.083984375,-4.28125,-8.15625,-1.03125,0.0,0.0,0.0
1664378444599,-0.9902344,0.049804688,0.083984375,-4.28125,-8.15625,-1.03125,0.0,0.0,0.0
1664378444639,-1.0332031,-0.038085938,0.053710938,13.46875,-0.78125,-1.0,-65.375,5.4375,-147.8125
1664378444639,-1.0332031,-0.038085938,0.053710938,13.46875,-0.78125,-1.0,-65.375,5.4375,-147.8125
1664378444680,-1.0097656,0.0126953125,0.048828125,53.28125,-7.40625,-7.40625,0.0,0.0,0.0
1664378444680,-1.0097656,0.0126953125,0.048828125,53.28125,-7.40625,-7.40625,0.0,0.0,0.0
1664378444718,-0.9921875,0.16699219,-0.032226562,60.96875,-14.4375,-11.78125,0.0,0.0,0.0
1664378444718,-0.9921875,0.16699219,-0.032226562,60.96875,-14.4375,-11.78125,0.0,0.0,0.0
1664378444759,-1.125,0.4169922,-0.20410156,17.9375,19.0,1.53125,0.0,0.0,0.0
1664378444759,-1.125,0.4169922,-0.20410156,17.9375,19.0,1.53125,0.0,0.0,0.0
1664378444800,-0.93652344,0.3486328,-0.111328125,42.71875,-17.0625,17.75,0.0,0.0,0.0
1664378444800,-0.93652344,0.3486328,-0.111328125,42.71875,-17.0625,17.75,0.0,0.0,0.0
1664378444839,-0.9482422,0.3515625,0.076171875,8.34375,-18.65625,28.75,0.0,0.0,0.0
1664378444839,-0.9482422,0.3515625,0.076171875,8.34375,-18.65625,28.75,0.0,0.0,0.0
1664378444879,-0.9169922,0.30273438,0.40722656,-20.03125,-71.25,20.8125,0.0,0.0,0.0
1664378444879,-0.9169922,0.30273438,0.40722656,-20.03125,-71.25,20.8125,0.0,0.0,0.0
1664378444918,-0.81152344,0.31835938,0.14648438,-132.21875,33.0,16.65625,0.0,0.0,0.0
1664378444918,-0.81152344,0.31835938,0.14648438,-132.21875,33.0,16.65625,0.0,0.0,0.0
1664378444960,-0.8222656,0.3310547,0.10644531,-65.9375,17.125,27.09375,0.0,0.0,0.0
1664378444959,-0.8222656,0.3310547,0.10644531,-65.9375,17.125,27.09375,0.0,0.0,0.0
1664378444999,-0.9199219,0.27734375,0.3154297,-67.46875,10.875,21.90625,0.0,0.0,0.0
1664378444999,-0.9199219,0.27734375,0.3154297,-67.46875,10.875,21.90625,0.0,0.0,0.0
1664378445039,-1.2119141,0.4013672,0.16992188,-143.9375,33.09375,6.03125,0.0,0.0,0.0
1664378445040,-1.2119141,0.4013672,0.16992188,-143.9375,33.09375,6.03125,0.0,0.0,0.0
1664378445078,-0.97753906,-0.08886719,0.16113281,-174.875,-23.46875,3.53125,0.0,0.0,0.0
1664378445078,-0.97753906,-0.08886719,0.16113281,-174.875,-23.46875,3.53125,0.0,0.0,0.0
1664378445120,-1.0693359,-0.08691406,-0.20703125,-129.03125,61.65625,12.25,-66.75,8.0,-143.3125
1664378445120,-1.0693359,-0.08691406,-0.20703125,-129.03125,61.65625,12.25,-66.75,8.0,-143.3125
1664378445158,-1.3066406,0.045898438,0.3154297,-32.40625,-91.71875,11.15625,0.0,0.0,0.0
1664378445159,-1.3066406,0.045898438,0.3154297,-32.40625,-91.71875,11.15625,0.0,0.0,0.0
1664378445199,-0.9013672,0.0859375,0.13964844,-159.875,57.9375,-16.0625,0.0,0.0,0.0
1664378445199,-0.9013672,0.0859375,0.13964844,-159.875,57.9375,-16.0625,0.0,0.0,0.0
1664378445239,-1.0185547,0.026367188,-0.06347656,-154.5625,29.8125,1.40625,0.0,0.0,0.0
1664378445239,-1.0185547,0.026367188,-0.06347656,-154.5625,29.8125,1.40625,0.0,0.0,0.0
1664378445279,-1.046875,0.16210938,-0.0703125,-114.875,22.1875,17.6875,0.0,0.0,0.0
1664378445279,-1.046875,0.16210938,-0.0703125,-114.875,22.1875,17.6875,0.0,0.0,0.0
1664378445318,-0.88378906,0.2734375,0.18457031,-116.90625,-49.0,15.5625,0.0,0.0,0.0
1664378445318,-0.88378906,0.2734375,0.18457031,-116.90625,-49.0,15.5625,0.0,0.0,0.0
1664378445359,-0.9980469,-0.055664062,0.23828125,-172.4375,43.59375,34.78125,0.0,0.0,0.0
1664378445359,-0.9980469,-0.055664062,0.23828125,-172.4375,43.59375,34.78125,0.0,0.0,0.0
1664378445398,-1.1923828,-0.45996094,0.087890625,-169.4375,57.9375,30.875,0.0,0.0,0.0
1664378445398,-1.1923828,-0.45996094,0.087890625,-169.4375,57.9375,30.875,0.0,0.0,0.0
1664378445440,-0.9550781,0.1796875,0.12011719,31.0625,-45.09375,35.09375,0.0,0.0,0.0
1664378445440,-0.9550781,0.1796875,0.12011719,31.0625,-45.09375,35.09375,0.0,0.0,0.0
1664378445480,-1.1386719,0.43164062,0.18847656,-42.84375,1.6875,17.875,0.0,0.0,0.0
1664378445480,-1.1386719,0.43164062,0.18847656,-42.84375,1.6875,17.875,0.0,0.0,0.0
1664378445520,-0.85546875,0.06933594,0.25683594,-93.34375,1.375,28.75,0.0,0.0,0.0
1664378445521,-0.85546875,0.06933594,0.25683594,-93.34375,1.375,28.75,0.0,0.0,0.0
1664378445560,-1.0195312,-0.16601562,0.27734375,-71.71875,11.375,31.375,0.0,0.0,0.0
1664378445559,-1.0195312,-0.16601562,0.27734375,-71.71875,11.375,31.375,0.0,0.0,0.0
1664378445599,-1.0126953,0.23632812,0.3232422,28.75,-10.15625,21.15625,0.0,0.0,0.0
1664378445599,-1.0126953,0.23632812,0.3232422,28.75,-10.15625,21.15625,0.0,0.0,0.0
1664378445638,-0.80371094,0.056640625,0.43164062,15.5625,-31.84375,20.5,-66.0,17.3125,-138.1875
1664378445638,-0.80371094,0.056640625,0.43164062,15.5625,-31.84375,20.5,-66.0,17.3125,-138.1875
1664378445679,-0.9794922,-0.35839844,0.46679688,22.6875,-10.15625,-28.5625,0.0,0.0,0.0
1664378445679,-0.9794922,-0.35839844,0.46679688,22.6875,-10.15625,-28.5625,0.0,0.0,0.0
1664378445719,-0.8886719,-0.034179688,0.07714844,112.0,31.65625,-36.4375,0.0,0.0,0.0
1664378445719,-0.8886719,-0.034179688,0.07714844,112.0,31.65625,-36.4375,0.0,0.0,0.0
1664378445759,-0.7529297,0.060546875,-0.053710938,178.15625,1.84375,-23.9375,0.0,0.0,0.0
1664378445759,-0.7529297,0.060546875,-0.053710938,178.15625,1.84375,-23.9375,0.0,0.0,0.0
1664378445799,-0.94140625,0.15136719,-0.171875,215.5625,27.5625,-40.53125,0.0,0.0,0.0
1664378445799,-0.94140625,0.15136719,-0.171875,215.5625,27.5625,-40.53125,0.0,0.0,0.0
1664378445840,-1.3105469,0.15527344,-0.15136719,130.78125,109.71875,-60.96875,0.0,0.0,0.0
1664378445841,-1.3105469,0.15527344,-0.15136719,130.78125,109.71875,-60.96875,0.0,0.0,0.0
1664378445880,-1.1601562,0.02734375,0.29882812,231.4375,-170.75,-19.90625,0.0,0.0,0.0
1664378445882,-1.1601562,0.02734375,0.29882812,231.4375,-170.75,-19.90625,0.0,0.0,0.0
1664378445919,-0.73828125,-0.29785156,0.18261719,155.125,67.78125,-55.90625,0.0,0.0,0.0
1664378445919,-0.73828125,-0.29785156,0.18261719,155.125,67.78125,-55.90625,0.0,0.0,0.0
1664378445959,-1.1972656,0.21386719,9.765625E-4,230.59375,-5.21875,-36.75,0.0,0.0,0.0
1664378445959,-1.1972656,0.21386719,9.765625E-4,230.59375,-5.21875,-36.75,0.0,0.0,0.0
1664378445999,-0.9589844,0.52734375,-0.043945312,147.625,8.4375,-35.34375,0.0,0.0,0.0
1664378445999,-0.9589844,0.52734375,-0.043945312,147.625,8.4375,-35.34375,0.0,0.0,0.0
1664378446039,-1.0009766,0.064453125,0.15722656,113.5625,-15.15625,-6.96875,0.0,0.0,0.0
1664378446039,-1.0009766,0.064453125,0.15722656,113.5625,-15.15625,-6.96875,0.0,0.0,0.0
1664378446079,-1.1083984,-0.078125,-0.0087890625,81.09375,-0.03125,-5.3125,0.0,0.0,0.0
1664378446079,-1.1083984,-0.078125,-0.0087890625,81.09375,-0.03125,-5.3125,0.0,0.0,0.0
1664378446122,-1.0195312,-0.038085938,-0.099609375,54.6875,-4.625,-15.625,-65.875,2.75,-151.375
1664378446121,-1.0195312,-0.038085938,-0.099609375,54.6875,-4.625,-15.625,-65.875,2.75,-151.375
1664378446158,-1.0224609,-0.12011719,0.072265625,98.5625,-18.78125,-9.15625,0.0,0.0,0.0
1664378446159,-1.0224609,-0.12011719,0.072265625,98.5625,-18.78125,-9.15625,0.0,0.0,0.0
