# Sensor type: Thingy
# Activity type: Sitting bent forward
# Activity code: 4
# Subject id: s1800825
# Notes: 
timestamp,accel_x,accel_y,accel_z,gyro_x,gyro_y,gyro_z,mag_x,mag_y,mag_z
1664377652083,0.16308594,0.29296875,0.89453125,-0.0625,-0.46875,-0.25,0.0,0.0,0.0
1664377652083,0.16308594,0.29296875,0.89453125,-0.0625,-0.46875,-0.25,0.0,0.0,0.0
1664377652123,0.16992188,0.28222656,0.8955078,0.25,-0.78125,-0.125,0.0,0.0,0.0
1664377652125,0.16992188,0.28222656,0.8955078,0.25,-0.78125,-0.125,0.0,0.0,0.0
1664377652163,0.16894531,0.2890625,0.8935547,-0.0625,-0.1875,-0.03125,-17.375,18.3125,-92.125
1664377652163,0.16894531,0.2890625,0.8935547,-0.0625,-0.1875,-0.03125,-17.375,18.3125,-92.125
1664377652203,0.15820312,0.29296875,0.89453125,0.0,-0.34375,0.28125,0.0,0.0,0.0
1664377652203,0.15820312,0.29296875,0.89453125,0.0,-0.34375,0.28125,0.0,0.0,0.0
1664377652243,0.15917969,0.28222656,0.89160156,0.3125,-0.0625,0.15625,0.0,0.0,0.0
1664377652243,0.15917969,0.28222656,0.89160156,0.3125,-0.0625,0.15625,0.0,0.0,0.0
1664377652283,0.16699219,0.2861328,0.9003906,-0.0625,-0.25,0.03125,0.0,0.0,0.0
1664377652283,0.16699219,0.2861328,0.9003906,-0.0625,-0.25,0.03125,0.0,0.0,0.0
1664377652323,0.17089844,0.2890625,0.8886719,0.0625,-0.25,0.03125,0.0,0.0,0.0
1664377652323,0.17089844,0.2890625,0.8886719,0.0625,-0.25,0.03125,0.0,0.0,0.0
1664377652363,0.15429688,0.28515625,0.8886719,0.125,-0.25,-0.125,0.0,0.0,0.0
1664377652363,0.15429688,0.28515625,0.8886719,0.125,-0.25,-0.125,0.0,0.0,0.0
1664377652403,0.16894531,0.28320312,0.89941406,0.1875,-0.34375,0.03125,0.0,0.0,0.0
1664377652403,0.16894531,0.28320312,0.89941406,0.1875,-0.34375,0.03125,0.0,0.0,0.0
1664377652444,0.15625,0.29003906,0.8935547,0.0625,-0.0625,-0.09375,0.0,0.0,0.0
1664377652445,0.15625,0.29003906,0.8935547,0.0625,-0.0625,-0.09375,0.0,0.0,0.0
1664377652483,0.171875,0.28515625,0.91015625,0.125,-0.0625,0.21875,0.0,0.0,0.0
1664377652484,0.171875,0.28515625,0.91015625,0.125,-0.0625,0.21875,0.0,0.0,0.0
1664377652523,0.16894531,0.2919922,0.8886719,0.375,-0.53125,0.40625,0.0,0.0,0.0
1664377652523,0.16894531,0.2919922,0.8886719,0.375,-0.53125,0.40625,0.0,0.0,0.0
1664377652563,0.1640625,0.2861328,0.9003906,0.1875,-0.34375,0.46875,0.0,0.0,0.0
1664377652563,0.1640625,0.2861328,0.9003906,0.1875,-0.34375,0.46875,0.0,0.0,0.0
1664377652603,0.1484375,0.28808594,0.89453125,0.125,-0.1875,0.40625,0.0,0.0,0.0
1664377652603,0.1484375,0.28808594,0.89453125,0.125,-0.1875,0.40625,0.0,0.0,0.0
1664377652643,0.16308594,0.28808594,0.8876953,0.125,0.0,0.15625,-17.875,16.375,-93.375
1664377652643,0.16308594,0.28808594,0.8876953,0.125,0.0,0.15625,-17.875,16.375,-93.375
1664377652683,0.16503906,0.28027344,0.89160156,0.125,-0.40625,0.53125,0.0,0.0,0.0
1664377652683,0.16503906,0.28027344,0.89160156,0.125,-0.40625,0.53125,0.0,0.0,0.0
1664377652724,0.15820312,0.27246094,0.89746094,-0.0625,-0.40625,0.34375,0.0,0.0,0.0
1664377652725,0.15820312,0.27246094,0.89746094,-0.0625,-0.40625,0.34375,0.0,0.0,0.0
1664377652763,0.17089844,0.28515625,0.89746094,0.125,-0.65625,0.34375,0.0,0.0,0.0
1664377652763,0.17089844,0.28515625,0.89746094,0.125,-0.65625,0.34375,0.0,0.0,0.0
1664377652804,0.1640625,0.28710938,0.89746094,0.0625,-0.40625,0.40625,0.0,0.0,0.0
1664377652804,0.1640625,0.28710938,0.89746094,0.0625,-0.40625,0.40625,0.0,0.0,0.0
1664377652844,0.16601562,0.28710938,0.9003906,0.25,-0.78125,0.53125,0.0,0.0,0.0
1664377652844,0.16601562,0.28710938,0.9003906,0.25,-0.78125,0.53125,0.0,0.0,0.0
1664377652884,0.16210938,0.28710938,0.8886719,-0.0625,-0.1875,0.40625,0.0,0.0,0.0
1664377652884,0.16210938,0.28710938,0.8886719,-0.0625,-0.1875,0.40625,0.0,0.0,0.0
1664377652924,0.16894531,0.28320312,0.8828125,0.3125,-0.40625,0.28125,0.0,0.0,0.0
1664377652924,0.16894531,0.28320312,0.8828125,0.3125,-0.40625,0.28125,0.0,0.0,0.0
1664377652964,0.1640625,0.29492188,0.890625,0.1875,-0.28125,0.28125,0.0,0.0,0.0
1664377652964,0.1640625,0.29492188,0.890625,0.1875,-0.28125,0.28125,0.0,0.0,0.0
1664377653003,0.16503906,0.2841797,0.90234375,0.1875,-0.34375,0.46875,0.0,0.0,0.0
1664377653003,0.16503906,0.2841797,0.90234375,0.1875,-0.34375,0.46875,0.0,0.0,0.0
1664377653043,0.17089844,0.2919922,0.89746094,0.125,-0.65625,0.46875,0.0,0.0,0.0
1664377653043,0.17089844,0.2919922,0.89746094,0.125,-0.65625,0.46875,0.0,0.0,0.0
1664377653084,0.1640625,0.29003906,0.8925781,0.25,-0.71875,0.53125,0.0,0.0,0.0
1664377653086,0.1640625,0.29003906,0.8925781,0.25,-0.71875,0.53125,0.0,0.0,0.0
1664377653124,0.1796875,0.2890625,0.89160156,0.0625,-0.65625,0.28125,0.0,0.0,0.0
1664377653125,0.1796875,0.2890625,0.89160156,0.0625,-0.65625,0.28125,0.0,0.0,0.0
1664377653164,0.16796875,0.29101562,0.8925781,0.0625,-0.65625,0.40625,-17.6875,18.0625,-94.25
1664377653164,0.16796875,0.29101562,0.8925781,0.0625,-0.65625,0.40625,-17.6875,18.0625,-94.25
1664377653203,0.16796875,0.29101562,0.9003906,0.0,-0.40625,0.46875,0.0,0.0,0.0
1664377653203,0.16796875,0.29101562,0.9003906,0.0,-0.40625,0.46875,0.0,0.0,0.0
1664377653243,0.1640625,0.2890625,0.8808594,0.5,-0.34375,0.40625,0.0,0.0,0.0
1664377653243,0.1640625,0.2890625,0.8808594,0.5,-0.34375,0.40625,0.0,0.0,0.0
1664377653283,0.15722656,0.28222656,0.8964844,0.125,0.0,0.15625,0.0,0.0,0.0
1664377653283,0.15722656,0.28222656,0.8964844,0.125,0.0,0.15625,0.0,0.0,0.0
1664377653325,0.16015625,0.29296875,0.8886719,0.0,-0.46875,0.34375,0.0,0.0,0.0
1664377653325,0.16015625,0.29296875,0.8886719,0.0,-0.46875,0.34375,0.0,0.0,0.0
1664377653364,0.17480469,0.28222656,0.89453125,0.0625,-0.40625,0.34375,0.0,0.0,0.0
1664377653365,0.17480469,0.28222656,0.89453125,0.0625,-0.40625,0.34375,0.0,0.0,0.0
1664377653403,0.16503906,0.29003906,0.8886719,0.3125,-0.71875,0.34375,0.0,0.0,0.0
1664377653403,0.16503906,0.29003906,0.8886719,0.3125,-0.71875,0.34375,0.0,0.0,0.0
1664377653444,0.16601562,0.29101562,0.8828125,0.0625,-0.84375,0.46875,0.0,0.0,0.0
1664377653443,0.16601562,0.29101562,0.8828125,0.0625,-0.84375,0.46875,0.0,0.0,0.0
1664377653483,0.17480469,0.29101562,0.89453125,0.375,-1.03125,0.84375,0.0,0.0,0.0
1664377653483,0.17480469,0.29101562,0.89453125,0.375,-1.03125,0.84375,0.0,0.0,0.0
1664377653523,0.17480469,0.28808594,0.89160156,0.25,-0.28125,0.40625,0.0,0.0,0.0
1664377653524,0.17480469,0.28808594,0.89160156,0.25,-0.28125,0.40625,0.0,0.0,0.0
1664377653563,0.17089844,0.2861328,0.87890625,0.1875,-0.53125,0.40625,0.0,0.0,0.0
1664377653564,0.17089844,0.2861328,0.87890625,0.1875,-0.53125,0.40625,0.0,0.0,0.0
1664377653603,0.16796875,0.28125,0.8925781,0.1875,-0.40625,0.34375,0.0,0.0,0.0
1664377653603,0.16796875,0.28125,0.8925781,0.1875,-0.40625,0.34375,0.0,0.0,0.0
1664377653643,0.17089844,0.2890625,0.89941406,0.0,-0.1875,0.09375,-16.1875,17.75,-94.25
1664377653643,0.17089844,0.2890625,0.89941406,0.0,-0.1875,0.09375,-16.1875,17.75,-94.25
1664377653687,0.17382812,0.2998047,0.8876953,-0.0625,-0.46875,0.21875,0.0,0.0,0.0
1664377653687,0.17382812,0.2998047,0.8876953,-0.0625,-0.46875,0.21875,0.0,0.0,0.0
1664377653724,0.17285156,0.2890625,0.89160156,-0.1875,-0.34375,0.03125,0.0,0.0,0.0
1664377653724,0.17285156,0.2890625,0.89160156,-0.1875,-0.34375,0.03125,0.0,0.0,0.0
1664377653763,0.17578125,0.29003906,0.88671875,-0.0625,-0.65625,0.09375,0.0,0.0,0.0
1664377653763,0.17578125,0.29003906,0.88671875,-0.0625,-0.65625,0.09375,0.0,0.0,0.0
1664377653805,0.16992188,0.29589844,0.8886719,-0.0625,-0.65625,0.09375,0.0,0.0,0.0
1664377653805,0.16992188,0.29589844,0.8886719,-0.0625,-0.65625,0.09375,0.0,0.0,0.0
1664377653843,0.16992188,0.29492188,0.8964844,0.0,-0.28125,-0.03125,0.0,0.0,0.0
1664377653843,0.16992188,0.29492188,0.8964844,0.0,-0.28125,-0.03125,0.0,0.0,0.0
1664377653885,0.16601562,0.29101562,0.88378906,0.125,-0.28125,0.03125,0.0,0.0,0.0
1664377653885,0.16601562,0.29101562,0.88378906,0.125,-0.28125,0.03125,0.0,0.0,0.0
1664377653923,0.16894531,0.2919922,0.8964844,-0.4375,0.4375,-0.1875,0.0,0.0,0.0
1664377653924,0.16894531,0.2919922,0.8964844,-0.4375,0.4375,-0.1875,0.0,0.0,0.0
1664377653963,0.16992188,0.29296875,0.8886719,0.0,-0.1875,0.28125,0.0,0.0,0.0
1664377653964,0.16992188,0.29296875,0.8886719,0.0,-0.1875,0.28125,0.0,0.0,0.0
1664377654007,0.171875,0.2919922,0.8964844,-0.0625,-0.0625,-0.125,0.0,0.0,0.0
1664377654007,0.171875,0.2919922,0.8964844,-0.0625,-0.0625,-0.125,0.0,0.0,0.0
1664377654044,0.17578125,0.2919922,0.8857422,-0.0625,-0.28125,-0.25,0.0,0.0,0.0
1664377654044,0.17578125,0.2919922,0.8857422,-0.0625,-0.28125,-0.25,0.0,0.0,0.0
1664377654084,0.18359375,0.28808594,0.890625,-0.3125,-0.0625,-0.375,0.0,0.0,0.0
1664377654084,0.18359375,0.28808594,0.890625,-0.3125,-0.0625,-0.375,0.0,0.0,0.0
1664377654124,0.16601562,0.2939453,0.8847656,-0.0625,-0.34375,0.09375,0.0,0.0,0.0
1664377654124,0.16601562,0.2939453,0.8847656,-0.0625,-0.34375,0.09375,0.0,0.0,0.0
1664377654164,0.1796875,0.2919922,0.8925781,-0.4375,-0.1875,-0.3125,-17.125,18.1875,-93.0625
1664377654163,0.1796875,0.2919922,0.8925781,-0.4375,-0.1875,-0.3125,-17.125,18.1875,-93.0625
1664377654203,0.17382812,0.28808594,0.8847656,-0.125,-0.0625,-0.1875,0.0,0.0,0.0
1664377654203,0.17382812,0.28808594,0.8847656,-0.125,-0.0625,-0.1875,0.0,0.0,0.0
1664377654243,0.17578125,0.2919922,0.8964844,-0.3125,0.0,-0.25,0.0,0.0,0.0
1664377654244,0.17578125,0.2919922,0.8964844,-0.3125,0.0,-0.25,0.0,0.0,0.0
1664377654285,0.16894531,0.28710938,0.8847656,-0.1875,-0.0625,-0.3125,0.0,0.0,0.0
1664377654285,0.16894531,0.28710938,0.8847656,-0.1875,-0.0625,-0.3125,0.0,0.0,0.0
1664377654324,0.17480469,0.29101562,0.89453125,-0.25,-0.1875,-0.25,0.0,0.0,0.0
1664377654324,0.17480469,0.29101562,0.89453125,-0.25,-0.1875,-0.25,0.0,0.0,0.0
1664377654363,0.17089844,0.2841797,0.89160156,-0.25,-0.0625,-0.375,0.0,0.0,0.0
1664377654363,0.17089844,0.2841797,0.89160156,-0.25,-0.0625,-0.375,0.0,0.0,0.0
1664377654404,0.171875,0.2861328,0.89160156,-0.125,-0.25,-0.3125,0.0,0.0,0.0
1664377654404,0.171875,0.2861328,0.89160156,-0.125,-0.25,-0.3125,0.0,0.0,0.0
1664377654444,0.17480469,0.29589844,0.8984375,-0.1875,0.0,-0.1875,0.0,0.0,0.0
1664377654444,0.17480469,0.29589844,0.8984375,-0.1875,0.0,-0.1875,0.0,0.0,0.0
1664377654484,0.16601562,0.29003906,0.89453125,-0.375,-0.0625,-0.125,0.0,0.0,0.0
1664377654484,0.16601562,0.29003906,0.89453125,-0.375,-0.0625,-0.125,0.0,0.0,0.0
1664377654524,0.17480469,0.2861328,0.89453125,0.1875,0.25,-0.1875,0.0,0.0,0.0
1664377654524,0.17480469,0.2861328,0.89453125,0.1875,0.25,-0.1875,0.0,0.0,0.0
1664377654564,0.17480469,0.29003906,0.8828125,-0.375,0.5625,-0.375,0.0,0.0,0.0
1664377654564,0.17480469,0.29003906,0.8828125,-0.375,0.5625,-0.375,0.0,0.0,0.0
1664377654607,0.17382812,0.29492188,0.8857422,-0.3125,0.25,-0.5,0.0,0.0,0.0
1664377654607,0.17382812,0.29492188,0.8857422,-0.3125,0.25,-0.5,0.0,0.0,0.0
1664377654644,0.17578125,0.29003906,0.8847656,-0.1875,-0.0625,-0.375,-15.875,19.0625,-93.9375
1664377654644,0.17578125,0.29003906,0.8847656,-0.1875,-0.0625,-0.375,-15.875,19.0625,-93.9375
1664377654684,0.16503906,0.28808594,0.89160156,-0.25,0.0625,-0.4375,0.0,0.0,0.0
1664377654684,0.16503906,0.28808594,0.89160156,-0.25,0.0625,-0.4375,0.0,0.0,0.0
1664377654724,0.17382812,0.28125,0.89746094,-0.3125,-0.25,-0.5,0.0,0.0,0.0
1664377654724,0.17382812,0.28125,0.89746094,-0.3125,-0.25,-0.5,0.0,0.0,0.0
1664377654764,0.17675781,0.2939453,0.8935547,-0.1875,-0.125,-0.4375,0.0,0.0,0.0
1664377654764,0.17675781,0.2939453,0.8935547,-0.1875,-0.125,-0.4375,0.0,0.0,0.0
1664377654805,0.17578125,0.2861328,0.8935547,-0.0625,0.0,-0.3125,0.0,0.0,0.0
1664377654805,0.17578125,0.2861328,0.8935547,-0.0625,0.0,-0.3125,0.0,0.0,0.0
1664377654844,0.16992188,0.2890625,0.9042969,-0.3125,0.3125,-0.375,0.0,0.0,0.0
1664377654844,0.16992188,0.2890625,0.9042969,-0.3125,0.3125,-0.375,0.0,0.0,0.0
1664377654884,0.1796875,0.28808594,0.8925781,-0.25,0.375,-0.5625,0.0,0.0,0.0
1664377654884,0.1796875,0.28808594,0.8925781,-0.25,0.375,-0.5625,0.0,0.0,0.0
1664377654924,0.16308594,0.29101562,0.89746094,-0.1875,0.125,-0.5625,0.0,0.0,0.0
1664377654924,0.16308594,0.29101562,0.89746094,-0.1875,0.125,-0.5625,0.0,0.0,0.0
1664377654966,0.16699219,0.2919922,0.8935547,-0.1875,0.125,-0.3125,0.0,0.0,0.0
1664377654966,0.16699219,0.2919922,0.8935547,-0.1875,0.125,-0.3125,0.0,0.0,0.0
1664377655004,0.16992188,0.29492188,0.9003906,-0.25,0.1875,-0.5,0.0,0.0,0.0
1664377655004,0.16992188,0.29492188,0.9003906,-0.25,0.1875,-0.5,0.0,0.0,0.0
1664377655043,0.16699219,0.29101562,0.89160156,-0.3125,0.0,-0.25,0.0,0.0,0.0
1664377655043,0.16699219,0.29101562,0.89160156,-0.3125,0.0,-0.25,0.0,0.0,0.0
1664377655084,0.16308594,0.2939453,0.88378906,-0.1875,0.125,-0.5,0.0,0.0,0.0
1664377655085,0.16308594,0.2939453,0.88378906,-0.1875,0.125,-0.5,0.0,0.0,0.0
1664377655125,0.16503906,0.2861328,0.8935547,-0.3125,0.125,-0.375,0.0,0.0,0.0
1664377655125,0.16503906,0.2861328,0.8935547,-0.3125,0.125,-0.375,0.0,0.0,0.0
1664377655163,0.1640625,0.2861328,0.88671875,-0.375,-0.125,-0.09375,-16.0625,18.5,-93.0625
1664377655163,0.1640625,0.2861328,0.88671875,-0.375,-0.125,-0.09375,-16.0625,18.5,-93.0625
1664377655206,0.16601562,0.29492188,0.8925781,-0.375,0.25,-0.25,0.0,0.0,0.0
1664377655206,0.16601562,0.29492188,0.8925781,-0.375,0.25,-0.25,0.0,0.0,0.0
1664377655245,0.171875,0.28808594,0.90234375,-0.78125,0.5625,-0.75,0.0,0.0,0.0
1664377655245,0.171875,0.28808594,0.90234375,-0.78125,0.5625,-0.75,0.0,0.0,0.0
1664377655283,0.16308594,0.2861328,0.8935547,-0.5625,0.1875,-0.625,0.0,0.0,0.0
1664377655284,0.16308594,0.2861328,0.8935547,-0.5625,0.1875,-0.625,0.0,0.0,0.0
1664377655324,0.15625,0.29296875,0.89160156,-0.3125,-0.28125,-0.25,0.0,0.0,0.0
1664377655324,0.15625,0.29296875,0.89160156,-0.3125,-0.28125,-0.25,0.0,0.0,0.0
1664377655365,0.16113281,0.28515625,0.9033203,-0.3125,-0.28125,0.09375,0.0,0.0,0.0
1664377655365,0.16113281,0.28515625,0.9033203,-0.3125,-0.28125,0.09375,0.0,0.0,0.0
1664377655403,0.16015625,0.28027344,0.8984375,-0.1875,-0.125,-0.1875,0.0,0.0,0.0
1664377655403,0.16015625,0.28027344,0.8984375,-0.1875,-0.125,-0.1875,0.0,0.0,0.0
1664377655444,0.16796875,0.29101562,0.90234375,-0.25,0.0,-0.09375,0.0,0.0,0.0
1664377655444,0.16796875,0.29101562,0.90234375,-0.25,0.0,-0.09375,0.0,0.0,0.0
1664377655484,0.16992188,0.28125,0.8876953,-0.25,-0.0625,-0.03125,0.0,0.0,0.0
1664377655484,0.16992188,0.28125,0.8876953,-0.25,-0.0625,-0.03125,0.0,0.0,0.0
1664377655526,0.16015625,0.29003906,0.9013672,-0.5,0.1875,-0.4375,0.0,0.0,0.0
1664377655526,0.16015625,0.29003906,0.9013672,-0.5,0.1875,-0.4375,0.0,0.0,0.0
1664377655564,0.15527344,0.29003906,0.8828125,-0.375,-0.1875,-0.25,0.0,0.0,0.0
1664377655564,0.15527344,0.29003906,0.8828125,-0.375,-0.1875,-0.25,0.0,0.0,0.0
1664377655604,0.16796875,0.28710938,0.8886719,-0.375,-0.28125,-0.125,0.0,0.0,0.0
1664377655604,0.16796875,0.28710938,0.8886719,-0.375,-0.28125,-0.125,0.0,0.0,0.0
1664377655643,0.16210938,0.29101562,0.88183594,-0.25,-0.125,-0.375,-17.875,18.5,-94.125
1664377655646,0.16210938,0.29101562,0.88183594,-0.25,-0.125,-0.375,-17.875,18.5,-94.125
1664377655684,0.16894531,0.2890625,0.90722656,-0.1875,-0.1875,-0.25,0.0,0.0,0.0
1664377655685,0.16894531,0.2890625,0.90722656,-0.1875,-0.1875,-0.25,0.0,0.0,0.0
1664377655724,0.16796875,0.2861328,0.8964844,0.0625,0.1875,-0.03125,0.0,0.0,0.0
1664377655724,0.16796875,0.2861328,0.8964844,0.0625,0.1875,-0.03125,0.0,0.0,0.0
1664377655764,0.15917969,0.28320312,0.8886719,-0.0625,0.125,-0.125,0.0,0.0,0.0
1664377655768,0.15917969,0.28320312,0.8886719,-0.0625,0.125,-0.125,0.0,0.0,0.0
1664377655803,0.16699219,0.28710938,0.90722656,-0.0625,-0.125,-0.03125,0.0,0.0,0.0
1664377655803,0.16699219,0.28710938,0.90722656,-0.0625,-0.125,-0.03125,0.0,0.0,0.0
1664377655843,0.16015625,0.2861328,0.88964844,-0.1875,-0.1875,-0.03125,0.0,0.0,0.0
1664377655843,0.16015625,0.2861328,0.88964844,-0.1875,-0.1875,-0.03125,0.0,0.0,0.0
1664377655883,0.16796875,0.2783203,0.88378906,-0.25,0.125,-0.1875,0.0,0.0,0.0
1664377655883,0.16796875,0.2783203,0.88378906,-0.25,0.125,-0.1875,0.0,0.0,0.0
1664377655924,0.15820312,0.28710938,0.890625,0.0625,0.3125,0.03125,0.0,0.0,0.0
1664377655924,0.15820312,0.28710938,0.890625,0.0625,0.3125,0.03125,0.0,0.0,0.0
1664377655963,0.17285156,0.28710938,0.88183594,-0.4375,0.6875,-0.4375,0.0,0.0,0.0
1664377655963,0.17285156,0.28710938,0.88183594,-0.4375,0.6875,-0.4375,0.0,0.0,0.0
1664377656004,0.16015625,0.28808594,0.89746094,0.0,-0.0625,0.09375,0.0,0.0,0.0
1664377656006,0.16015625,0.28808594,0.89746094,0.0,-0.0625,0.09375,0.0,0.0,0.0
1664377656045,0.15429688,0.2861328,0.8886719,-0.1875,0.0,-0.03125,0.0,0.0,0.0
1664377656045,0.15429688,0.2861328,0.8886719,-0.1875,0.0,-0.03125,0.0,0.0,0.0
1664377656083,0.15625,0.28515625,0.8935547,-0.0625,-0.1875,-0.125,0.0,0.0,0.0
1664377656083,0.15625,0.28515625,0.8935547,-0.0625,-0.1875,-0.125,0.0,0.0,0.0
1664377656125,0.16601562,0.28125,0.88378906,-0.1875,-0.1875,-0.25,0.0,0.0,0.0
1664377656125,0.16601562,0.28125,0.88378906,-0.1875,-0.1875,-0.25,0.0,0.0,0.0
1664377656164,0.171875,0.28222656,0.8886719,-0.0625,-0.28125,0.03125,-17.125,18.9375,-93.375
1664377656164,0.171875,0.28222656,0.8886719,-0.0625,-0.28125,0.03125,-17.125,18.9375,-93.375
1664377656203,0.16894531,0.28808594,0.88671875,0.0,0.0625,-0.125,0.0,0.0,0.0
1664377656206,0.16894531,0.28808594,0.88671875,0.0,0.0625,-0.125,0.0,0.0,0.0
1664377656243,0.16699219,0.28320312,0.8847656,0.125,0.0625,-0.03125,0.0,0.0,0.0
1664377656246,0.16699219,0.28320312,0.8847656,0.125,0.0625,-0.03125,0.0,0.0,0.0
1664377656284,0.16503906,0.29296875,0.88671875,0.125,0.0625,-0.03125,0.0,0.0,0.0
1664377656284,0.16503906,0.29296875,0.88671875,0.125,0.0625,-0.03125,0.0,0.0,0.0
1664377656325,0.16210938,0.28222656,0.890625,0.0,-0.125,-0.1875,0.0,0.0,0.0
1664377656324,0.16210938,0.28222656,0.890625,0.0,-0.125,-0.1875,0.0,0.0,0.0
1664377656363,0.16796875,0.2841797,0.8925781,0.0625,-0.125,-0.09375,0.0,0.0,0.0
1664377656363,0.16796875,0.2841797,0.8925781,0.0625,-0.125,-0.09375,0.0,0.0,0.0
1664377656404,0.17480469,0.2841797,0.8828125,0.0625,-0.125,-0.03125,0.0,0.0,0.0
1664377656404,0.17480469,0.2841797,0.8828125,0.0625,-0.125,-0.03125,0.0,0.0,0.0
1664377656444,0.16992188,0.29296875,0.8935547,-0.125,-0.125,-0.09375,0.0,0.0,0.0
1664377656444,0.16992188,0.29296875,0.8935547,-0.125,-0.125,-0.09375,0.0,0.0,0.0
1664377656483,0.15527344,0.29296875,0.8935547,-0.1875,-0.1875,0.03125,0.0,0.0,0.0
1664377656485,0.15527344,0.29296875,0.8935547,-0.1875,-0.1875,0.03125,0.0,0.0,0.0
1664377656524,0.16503906,0.29003906,0.87890625,-0.0625,-0.0625,0.03125,0.0,0.0,0.0
1664377656524,0.16503906,0.29003906,0.87890625,-0.0625,-0.0625,0.03125,0.0,0.0,0.0
1664377656565,0.15917969,0.28222656,0.8886719,-0.0625,-0.1875,0.03125,0.0,0.0,0.0
1664377656565,0.15917969,0.28222656,0.8886719,-0.0625,-0.1875,0.03125,0.0,0.0,0.0
1664377656603,0.17480469,0.28515625,0.90527344,-0.1875,0.0,0.09375,0.0,0.0,0.0
1664377656603,0.17480469,0.28515625,0.90527344,-0.1875,0.0,0.09375,0.0,0.0,0.0
1664377656644,0.16894531,0.2939453,0.88671875,0.0625,-0.125,0.21875,-17.6875,18.8125,-95.0
1664377656644,0.16894531,0.2939453,0.88671875,0.0625,-0.125,0.21875,-17.6875,18.8125,-95.0
1664377656685,0.16601562,0.2890625,0.90234375,-0.25,0.625,-0.25,0.0,0.0,0.0
1664377656685,0.16601562,0.2890625,0.90234375,-0.25,0.625,-0.25,0.0,0.0,0.0
1664377656724,0.15527344,0.2861328,0.890625,-0.0625,-0.25,0.15625,0.0,0.0,0.0
1664377656725,0.15527344,0.2861328,0.890625,-0.0625,-0.25,0.15625,0.0,0.0,0.0
1664377656764,0.16503906,0.28710938,0.8876953,0.0,-0.125,-0.03125,0.0,0.0,0.0
1664377656764,0.16503906,0.28710938,0.8876953,0.0,-0.125,-0.03125,0.0,0.0,0.0
1664377656807,0.16113281,0.29101562,0.9033203,0.0,-0.28125,0.15625,0.0,0.0,0.0
1664377656807,0.16113281,0.29101562,0.9033203,0.0,-0.28125,0.15625,0.0,0.0,0.0
1664377656843,0.16015625,0.28125,0.9013672,-0.0625,-0.28125,0.15625,0.0,0.0,0.0
1664377656843,0.16015625,0.28125,0.9013672,-0.0625,-0.28125,0.15625,0.0,0.0,0.0
1664377656884,0.16308594,0.2919922,0.8886719,0.0,-0.40625,0.28125,0.0,0.0,0.0
1664377656884,0.16308594,0.2919922,0.8886719,0.0,-0.40625,0.28125,0.0,0.0,0.0
1664377656925,0.16894531,0.28515625,0.89746094,-0.0625,-0.125,0.03125,0.0,0.0,0.0
1664377656925,0.16894531,0.28515625,0.89746094,-0.0625,-0.125,0.03125,0.0,0.0,0.0
1664377656964,0.16015625,0.2861328,0.8886719,0.0,0.125,0.15625,0.0,0.0,0.0
1664377656964,0.16015625,0.2861328,0.8886719,0.0,0.125,0.15625,0.0,0.0,0.0
1664377657005,0.1640625,0.28222656,0.8886719,0.0625,-0.1875,0.28125,0.0,0.0,0.0
1664377657006,0.1640625,0.28222656,0.8886719,0.0625,-0.1875,0.28125,0.0,0.0,0.0
1664377657043,0.15820312,0.28222656,0.8847656,0.1875,-0.125,0.34375,0.0,0.0,0.0
1664377657043,0.15820312,0.28222656,0.8847656,0.1875,-0.125,0.34375,0.0,0.0,0.0
1664377657083,0.16796875,0.29003906,0.89941406,0.0625,-0.125,0.21875,0.0,0.0,0.0
1664377657084,0.16796875,0.29003906,0.89941406,0.0625,-0.125,0.21875,0.0,0.0,0.0
1664377657124,0.16601562,0.2783203,0.89160156,0.0,-0.53125,0.34375,0.0,0.0,0.0
1664377657124,0.16601562,0.2783203,0.89160156,0.0,-0.53125,0.34375,0.0,0.0,0.0
1664377657165,0.15625,0.28515625,0.89453125,-0.0625,-0.34375,0.34375,-16.9375,19.375,-93.9375
1664377657167,0.15625,0.28515625,0.89453125,-0.0625,-0.34375,0.34375,-16.9375,19.375,-93.9375
1664377657203,0.16796875,0.2861328,0.890625,-0.0625,-0.1875,0.28125,0.0,0.0,0.0
1664377657203,0.16796875,0.2861328,0.890625,-0.0625,-0.1875,0.28125,0.0,0.0,0.0
1664377657245,0.16113281,0.2890625,0.8964844,0.0625,-0.28125,0.21875,0.0,0.0,0.0
1664377657245,0.16113281,0.2890625,0.8964844,0.0625,-0.28125,0.21875,0.0,0.0,0.0
1664377657283,0.16503906,0.2783203,0.8984375,0.125,-0.40625,0.40625,0.0,0.0,0.0
1664377657283,0.16503906,0.2783203,0.8984375,0.125,-0.40625,0.40625,0.0,0.0,0.0
1664377657324,0.16992188,0.28125,0.88964844,-0.0625,-0.25,0.59375,0.0,0.0,0.0
1664377657324,0.16992188,0.28125,0.88964844,-0.0625,-0.25,0.59375,0.0,0.0,0.0
1664377657365,0.16992188,0.28125,0.8857422,0.125,0.0625,0.15625,0.0,0.0,0.0
1664377657365,0.16992188,0.28125,0.8857422,0.125,0.0625,0.15625,0.0,0.0,0.0
1664377657407,0.16699219,0.2890625,0.8935547,0.0,0.4375,-0.09375,0.0,0.0,0.0
1664377657407,0.16699219,0.2890625,0.8935547,0.0,0.4375,-0.09375,0.0,0.0,0.0
1664377657464,0.1640625,0.2890625,0.8935547,0.125,-0.40625,0.59375,0.0,0.0,0.0
1664377657464,0.1640625,0.2890625,0.8935547,0.125,-0.40625,0.59375,0.0,0.0,0.0
1664377657483,0.1640625,0.29003906,0.8984375,0.0625,-0.28125,-0.03125,0.0,0.0,0.0
1664377657483,0.1640625,0.29003906,0.8984375,0.0625,-0.28125,-0.03125,0.0,0.0,0.0
1664377657525,0.171875,0.29003906,0.8955078,0.0,-0.53125,0.09375,0.0,0.0,0.0
1664377657525,0.171875,0.29003906,0.8955078,0.0,-0.53125,0.09375,0.0,0.0,0.0
1664377657565,0.16894531,0.28027344,0.8984375,-0.125,-0.125,-0.03125,0.0,0.0,0.0
1664377657565,0.16894531,0.28027344,0.8984375,-0.125,-0.125,-0.03125,0.0,0.0,0.0
1664377657604,0.16699219,0.2841797,0.8964844,0.0,-0.34375,0.34375,0.0,0.0,0.0
1664377657604,0.16699219,0.2841797,0.8964844,0.0,-0.34375,0.34375,0.0,0.0,0.0
1664377657645,0.16308594,0.28515625,0.89746094,0.0625,-0.0625,0.03125,-18.0,18.3125,-93.5
1664377657645,0.16308594,0.28515625,0.89746094,0.0625,-0.0625,0.03125,-18.0,18.3125,-93.5
1664377657684,0.17285156,0.2890625,0.88378906,0.0625,-0.0625,-0.03125,0.0,0.0,0.0
1664377657684,0.17285156,0.2890625,0.88378906,0.0625,-0.0625,-0.03125,0.0,0.0,0.0
1664377657727,0.16796875,0.28710938,0.89453125,0.0,-0.125,0.09375,0.0,0.0,0.0
1664377657727,0.16796875,0.28710938,0.89453125,0.0,-0.125,0.09375,0.0,0.0,0.0
1664377657764,0.16601562,0.28320312,0.8857422,0.0625,-0.1875,0.03125,0.0,0.0,0.0
1664377657765,0.16601562,0.28320312,0.8857422,0.0625,-0.1875,0.03125,0.0,0.0,0.0
1664377657804,0.17089844,0.2919922,0.89941406,0.0625,-0.25,0.15625,0.0,0.0,0.0
1664377657806,0.17089844,0.2919922,0.89941406,0.0625,-0.25,0.15625,0.0,0.0,0.0
1664377657844,0.16894531,0.29296875,0.8925781,-0.0625,-0.25,0.15625,0.0,0.0,0.0
1664377657844,0.16894531,0.29296875,0.8925781,-0.0625,-0.25,0.15625,0.0,0.0,0.0
1664377657885,0.17480469,0.29101562,0.8925781,-0.0625,-0.40625,0.15625,0.0,0.0,0.0
1664377657885,0.17480469,0.29101562,0.8925781,-0.0625,-0.40625,0.15625,0.0,0.0,0.0
1664377657924,0.17773438,0.27929688,0.89941406,-0.0625,-0.34375,0.03125,0.0,0.0,0.0
1664377657924,0.17773438,0.27929688,0.89941406,-0.0625,-0.34375,0.03125,0.0,0.0,0.0
1664377657964,0.16308594,0.2890625,0.88378906,0.0,-0.34375,0.09375,0.0,0.0,0.0
1664377657965,0.16308594,0.2890625,0.88378906,0.0,-0.34375,0.09375,0.0,0.0,0.0
1664377658004,0.17578125,0.2861328,0.8886719,-0.0625,-0.25,0.28125,0.0,0.0,0.0
1664377658004,0.17578125,0.2861328,0.8886719,-0.0625,-0.25,0.28125,0.0,0.0,0.0
1664377658044,0.16894531,0.28710938,0.8925781,0.0,-0.0625,0.40625,0.0,0.0,0.0
1664377658044,0.16894531,0.28710938,0.8925781,0.0,-0.0625,0.40625,0.0,0.0,0.0
1664377658084,0.16992188,0.2890625,0.88183594,-0.375,0.375,-0.125,0.0,0.0,0.0
1664377658084,0.16992188,0.2890625,0.88183594,-0.375,0.375,-0.125,0.0,0.0,0.0
1664377658125,0.16503906,0.29492188,0.8955078,-0.125,0.0,0.03125,0.0,0.0,0.0
1664377658127,0.16503906,0.29492188,0.8955078,-0.125,0.0,0.03125,0.0,0.0,0.0
1664377658163,0.17089844,0.29003906,0.9003906,0.0,-0.125,-0.125,-15.625,18.3125,-94.25
1664377658164,0.17089844,0.29003906,0.9003906,0.0,-0.125,-0.125,-15.625,18.3125,-94.25
1664377658204,0.16699219,0.28710938,0.88671875,-0.1875,-0.25,-0.1875,0.0,0.0,0.0
1664377658204,0.16699219,0.28710938,0.88671875,-0.1875,-0.25,-0.1875,0.0,0.0,0.0
1664377658245,0.17089844,0.2861328,0.8925781,-0.25,-0.0625,0.03125,0.0,0.0,0.0
1664377658245,0.17089844,0.2861328,0.8925781,-0.25,-0.0625,0.03125,0.0,0.0,0.0
1664377658283,0.16992188,0.2783203,0.9013672,0.125,-0.40625,0.21875,0.0,0.0,0.0
1664377658284,0.16992188,0.2783203,0.9013672,0.125,-0.40625,0.21875,0.0,0.0,0.0
1664377658325,0.17089844,0.28515625,0.9003906,-0.1875,0.0625,-0.125,0.0,0.0,0.0
1664377658324,0.17089844,0.28515625,0.9003906,-0.1875,0.0625,-0.125,0.0,0.0,0.0
1664377658364,0.17773438,0.27734375,0.90527344,0.0,-0.125,-0.03125,0.0,0.0,0.0
1664377658364,0.17773438,0.27734375,0.90527344,0.0,-0.125,-0.03125,0.0,0.0,0.0
1664377658404,0.16699219,0.2919922,0.88671875,0.125,-0.125,-0.09375,0.0,0.0,0.0
1664377658404,0.16699219,0.2919922,0.88671875,0.125,-0.125,-0.09375,0.0,0.0,0.0
1664377658444,0.16992188,0.2939453,0.890625,-0.0625,-0.34375,-0.125,0.0,0.0,0.0
1664377658444,0.16992188,0.2939453,0.890625,-0.0625,-0.34375,-0.125,0.0,0.0,0.0
1664377658483,0.16601562,0.29003906,0.90527344,0.0625,-0.0625,-0.09375,0.0,0.0,0.0
1664377658483,0.16601562,0.29003906,0.90527344,0.0625,-0.0625,-0.09375,0.0,0.0,0.0
1664377658524,0.171875,0.29101562,0.8935547,-0.1875,-0.34375,-0.09375,0.0,0.0,0.0
1664377658524,0.171875,0.29101562,0.8935547,-0.1875,-0.34375,-0.09375,0.0,0.0,0.0
1664377658564,0.16699219,0.28222656,0.8925781,-0.125,-0.1875,-0.1875,0.0,0.0,0.0
1664377658564,0.16699219,0.28222656,0.8925781,-0.125,-0.1875,-0.1875,0.0,0.0,0.0
1664377658604,0.17285156,0.2919922,0.8876953,-0.0625,-0.40625,-0.09375,0.0,0.0,0.0
1664377658604,0.17285156,0.2919922,0.8876953,-0.0625,-0.40625,-0.09375,0.0,0.0,0.0
1664377658644,0.1640625,0.28808594,0.8886719,-0.125,-0.0625,-0.09375,-17.875,17.125,-93.625
1664377658644,0.1640625,0.28808594,0.8886719,-0.125,-0.0625,-0.09375,-17.875,17.125,-93.625
1664377658687,0.17089844,0.2939453,0.89453125,-0.0625,0.0,-0.03125,0.0,0.0,0.0
1664377658686,0.17089844,0.2939453,0.89453125,-0.0625,0.0,-0.03125,0.0,0.0,0.0
1664377658724,0.16894531,0.2919922,0.8720703,-0.0625,0.0625,-0.09375,0.0,0.0,0.0
1664377658724,0.16894531,0.2919922,0.8720703,-0.0625,0.0625,-0.09375,0.0,0.0,0.0
1664377658765,0.17675781,0.2919922,0.890625,-0.3125,0.5625,-0.375,0.0,0.0,0.0
1664377658767,0.17675781,0.2919922,0.890625,-0.3125,0.5625,-0.375,0.0,0.0,0.0
1664377658804,0.16015625,0.2939453,0.8955078,-0.0625,-0.1875,-0.09375,0.0,0.0,0.0
1664377658804,0.16015625,0.2939453,0.8955078,-0.0625,-0.1875,-0.09375,0.0,0.0,0.0
1664377658844,0.16894531,0.28710938,0.9013672,-0.1875,0.125,-0.5,0.0,0.0,0.0
1664377658844,0.16894531,0.28710938,0.9013672,-0.1875,0.125,-0.5,0.0,0.0,0.0
1664377658883,0.16699219,0.29003906,0.9003906,-0.125,0.0,-0.3125,0.0,0.0,0.0
1664377658884,0.16699219,0.29003906,0.9003906,-0.125,0.0,-0.3125,0.0,0.0,0.0
1664377658924,0.17480469,0.2861328,0.890625,-0.125,0.0625,-0.3125,0.0,0.0,0.0
1664377658924,0.17480469,0.2861328,0.890625,-0.125,0.0625,-0.3125,0.0,0.0,0.0
1664377658966,0.15722656,0.29003906,0.890625,-0.125,-0.34375,-0.09375,0.0,0.0,0.0
1664377658966,0.15722656,0.29003906,0.890625,-0.125,-0.34375,-0.09375,0.0,0.0,0.0
1664377659004,0.171875,0.28808594,0.89453125,-0.125,-0.0625,-0.125,0.0,0.0,0.0
1664377659004,0.171875,0.28808594,0.89453125,-0.125,-0.0625,-0.125,0.0,0.0,0.0
1664377659043,0.15917969,0.29589844,0.9013672,0.0625,0.1875,-0.4375,0.0,0.0,0.0
1664377659043,0.15917969,0.29589844,0.9013672,0.0625,0.1875,-0.4375,0.0,0.0,0.0
1664377659083,0.17675781,0.29296875,0.8857422,-0.125,-0.0625,-0.3125,0.0,0.0,0.0
1664377659083,0.17675781,0.29296875,0.8857422,-0.125,-0.0625,-0.3125,0.0,0.0,0.0
1664377659124,0.16601562,0.2998047,0.90625,-0.125,0.0625,-0.25,0.0,0.0,0.0
1664377659126,0.16601562,0.2998047,0.90625,-0.125,0.0625,-0.25,0.0,0.0,0.0
1664377659165,0.16015625,0.29296875,0.87890625,-0.0625,0.0625,-0.5,-16.8125,18.9375,-94.125
1664377659164,0.16015625,0.29296875,0.87890625,-0.0625,0.0625,-0.5,-16.8125,18.9375,-94.125
1664377659204,0.16796875,0.2861328,0.88671875,0.0,-0.0625,-0.125,0.0,0.0,0.0
1664377659204,0.16796875,0.2861328,0.88671875,0.0,-0.0625,-0.125,0.0,0.0,0.0
1664377659244,0.16503906,0.2861328,0.890625,-0.25,0.0,-0.4375,0.0,0.0,0.0
1664377659244,0.16503906,0.2861328,0.890625,-0.25,0.0,-0.4375,0.0,0.0,0.0
1664377659283,0.17382812,0.29003906,0.8798828,-0.1875,-0.0625,-0.375,0.0,0.0,0.0
1664377659284,0.17382812,0.29003906,0.8798828,-0.1875,-0.0625,-0.375,0.0,0.0,0.0
1664377659324,0.1640625,0.28320312,0.88183594,-0.1875,-0.125,-0.09375,0.0,0.0,0.0
1664377659324,0.1640625,0.28320312,0.88183594,-0.1875,-0.125,-0.09375,0.0,0.0,0.0
1664377659364,0.16308594,0.2861328,0.8925781,-0.1875,0.125,-0.09375,0.0,0.0,0.0
1664377659366,0.16308594,0.2861328,0.8925781,-0.1875,0.125,-0.09375,0.0,0.0,0.0
1664377659403,0.1640625,0.29296875,0.90234375,-0.125,0.125,-0.09375,0.0,0.0,0.0
1664377659403,0.1640625,0.29296875,0.90234375,-0.125,0.125,-0.09375,0.0,0.0,0.0
1664377659443,0.16894531,0.2783203,0.9013672,-0.65625,0.875,-0.5,0.0,0.0,0.0
1664377659443,0.16894531,0.2783203,0.9013672,-0.65625,0.875,-0.5,0.0,0.0,0.0
1664377659484,0.16308594,0.29492188,0.8876953,-0.125,0.0,-0.25,0.0,0.0,0.0
1664377659484,0.16308594,0.29492188,0.8876953,-0.125,0.0,-0.25,0.0,0.0,0.0
1664377659524,0.15917969,0.28515625,0.8886719,-0.125,-0.0625,-0.3125,0.0,0.0,0.0
1664377659524,0.15917969,0.28515625,0.8886719,-0.125,-0.0625,-0.3125,0.0,0.0,0.0
1664377659565,0.16894531,0.2919922,0.9003906,-0.25,-0.125,-0.3125,0.0,0.0,0.0
1664377659564,0.16894531,0.2919922,0.9003906,-0.25,-0.125,-0.3125,0.0,0.0,0.0
1664377659606,0.171875,0.29003906,0.9042969,-0.25,-0.0625,-0.3125,0.0,0.0,0.0
1664377659606,0.171875,0.29003906,0.9042969,-0.25,-0.0625,-0.3125,0.0,0.0,0.0
1664377659643,0.17285156,0.28808594,0.8955078,-0.125,-0.25,-0.09375,-18.875,19.25,-93.375
1664377659643,0.17285156,0.28808594,0.8955078,-0.125,-0.25,-0.09375,-18.875,19.25,-93.375
1664377659684,0.16503906,0.2861328,0.88671875,-0.0625,-0.0625,-0.1875,0.0,0.0,0.0
1664377659684,0.16503906,0.2861328,0.88671875,-0.0625,-0.0625,-0.1875,0.0,0.0,0.0
1664377659724,0.16601562,0.28710938,0.89453125,-0.1875,0.125,-0.375,0.0,0.0,0.0
1664377659725,0.16601562,0.28710938,0.89453125,-0.1875,0.125,-0.375,0.0,0.0,0.0
1664377659764,0.16699219,0.2841797,0.9033203,-0.1875,-0.1875,-0.25,0.0,0.0,0.0
1664377659764,0.16699219,0.2841797,0.9033203,-0.1875,-0.1875,-0.25,0.0,0.0,0.0
1664377659805,0.16894531,0.28710938,0.8925781,0.0,-0.0625,-0.09375,0.0,0.0,0.0
1664377659805,0.16894531,0.28710938,0.8925781,0.0,-0.0625,-0.09375,0.0,0.0,0.0
1664377659843,0.16113281,0.29101562,0.88378906,-0.25,0.125,-0.125,0.0,0.0,0.0
1664377659844,0.16113281,0.29101562,0.88378906,-0.25,0.125,-0.125,0.0,0.0,0.0
1664377659884,0.16210938,0.2861328,0.88378906,-0.1875,-0.0625,-0.25,0.0,0.0,0.0
1664377659884,0.16210938,0.2861328,0.88378906,-0.1875,-0.0625,-0.25,0.0,0.0,0.0
1664377659924,0.15917969,0.2861328,0.89746094,-0.0625,-0.0625,-0.125,0.0,0.0,0.0
1664377659925,0.15917969,0.2861328,0.89746094,-0.0625,-0.0625,-0.125,0.0,0.0,0.0
1664377659963,0.171875,0.29003906,0.8964844,-0.25,-0.125,-0.1875,0.0,0.0,0.0
1664377659964,0.171875,0.29003906,0.8964844,-0.25,-0.125,-0.1875,0.0,0.0,0.0
1664377660005,0.16699219,0.2861328,0.8984375,0.0,-0.0625,-0.09375,0.0,0.0,0.0
1664377660007,0.16699219,0.2861328,0.8984375,0.0,-0.0625,-0.09375,0.0,0.0,0.0
1664377660044,0.17089844,0.28515625,0.89453125,-0.1875,0.0625,-0.03125,0.0,0.0,0.0
1664377660044,0.17089844,0.28515625,0.89453125,-0.1875,0.0625,-0.03125,0.0,0.0,0.0
1664377660084,0.16992188,0.29296875,0.9013672,-0.25,0.1875,0.03125,0.0,0.0,0.0
1664377660084,0.16992188,0.29296875,0.9013672,-0.25,0.1875,0.03125,0.0,0.0,0.0
1664377660125,0.15917969,0.2841797,0.8828125,-0.0625,0.25,-0.09375,0.0,0.0,0.0
1664377660125,0.15917969,0.2841797,0.8828125,-0.0625,0.25,-0.09375,0.0,0.0,0.0
1664377660163,0.16308594,0.2919922,0.89453125,-0.25,0.4375,-0.625,-16.9375,17.3125,-93.5
1664377660163,0.16308594,0.2919922,0.89453125,-0.25,0.4375,-0.625,-16.9375,17.3125,-93.5
1664377660204,0.16015625,0.28808594,0.89746094,-0.25,-0.1875,0.03125,0.0,0.0,0.0
1664377660203,0.16015625,0.28808594,0.89746094,-0.25,-0.1875,0.03125,0.0,0.0,0.0
1664377660247,0.15429688,0.28710938,0.8847656,-0.1875,-0.0625,-0.125,0.0,0.0,0.0
1664377660247,0.15429688,0.28710938,0.8847656,-0.1875,-0.0625,-0.125,0.0,0.0,0.0
1664377660284,0.16992188,0.2890625,0.8964844,-0.3125,-0.25,-0.09375,0.0,0.0,0.0
1664377660286,0.16992188,0.2890625,0.8964844,-0.3125,-0.25,-0.09375,0.0,0.0,0.0
1664377660323,0.16308594,0.2890625,0.8886719,-0.25,-0.125,-0.125,0.0,0.0,0.0
1664377660323,0.16308594,0.2890625,0.8886719,-0.25,-0.125,-0.125,0.0,0.0,0.0
1664377660364,0.16992188,0.29296875,0.8964844,0.0,-0.125,0.21875,0.0,0.0,0.0
1664377660364,0.16992188,0.29296875,0.8964844,0.0,-0.125,0.21875,0.0,0.0,0.0
1664377660405,0.16503906,0.28222656,0.8876953,-0.25,0.0,-0.03125,0.0,0.0,0.0
1664377660405,0.16503906,0.28222656,0.8876953,-0.25,0.0,-0.03125,0.0,0.0,0.0
1664377660444,0.16503906,0.29003906,0.9003906,-0.3125,-0.1875,0.03125,0.0,0.0,0.0
1664377660444,0.16503906,0.29003906,0.9003906,-0.3125,-0.1875,0.03125,0.0,0.0,0.0
1664377660487,0.16699219,0.28125,0.8925781,-0.25,-0.40625,0.03125,0.0,0.0,0.0
1664377660487,0.16699219,0.28125,0.8925781,-0.25,-0.40625,0.03125,0.0,0.0,0.0
1664377660523,0.16113281,0.2841797,0.9013672,-0.25,-0.0625,-0.25,0.0,0.0,0.0
1664377660523,0.16113281,0.2841797,0.9013672,-0.25,-0.0625,-0.25,0.0,0.0,0.0
1664377660565,0.16015625,0.2841797,0.8857422,0.0,-0.1875,-0.09375,0.0,0.0,0.0
1664377660565,0.16015625,0.2841797,0.8857422,0.0,-0.1875,-0.09375,0.0,0.0,0.0
1664377660607,0.16601562,0.2783203,0.9033203,-0.0625,-0.0625,-0.1875,0.0,0.0,0.0
1664377660607,0.16601562,0.2783203,0.9033203,-0.0625,-0.0625,-0.1875,0.0,0.0,0.0
1664377660644,0.16210938,0.2841797,0.8955078,-0.0625,-0.0625,0.03125,-17.375,18.3125,-93.1875
1664377660644,0.16210938,0.2841797,0.8955078,-0.0625,-0.0625,0.03125,-17.375,18.3125,-93.1875
1664377660684,0.16015625,0.28027344,0.8935547,-0.125,-0.1875,-0.09375,0.0,0.0,0.0
1664377660684,0.16015625,0.28027344,0.8935547,-0.125,-0.1875,-0.09375,0.0,0.0,0.0
1664377660724,0.16308594,0.2861328,0.90527344,0.0,-0.125,-0.125,0.0,0.0,0.0
1664377660724,0.16308594,0.2861328,0.90527344,0.0,-0.125,-0.125,0.0,0.0,0.0
1664377660765,0.16210938,0.28808594,0.89941406,-0.125,-0.1875,-0.09375,0.0,0.0,0.0
1664377660765,0.16210938,0.28808594,0.89941406,-0.125,-0.1875,-0.09375,0.0,0.0,0.0
1664377660804,0.16113281,0.2841797,0.8808594,0.0,-0.0625,-0.03125,0.0,0.0,0.0
1664377660804,0.16113281,0.2841797,0.8808594,0.0,-0.0625,-0.03125,0.0,0.0,0.0
1664377660845,0.15820312,0.28808594,0.890625,0.0625,0.125,-0.09375,0.0,0.0,0.0
1664377660845,0.15820312,0.28808594,0.890625,0.0625,0.125,-0.09375,0.0,0.0,0.0
1664377660884,0.15722656,0.2861328,0.8847656,-0.125,0.4375,-0.25,0.0,0.0,0.0
1664377660884,0.15722656,0.2861328,0.8847656,-0.125,0.4375,-0.25,0.0,0.0,0.0
1664377660925,0.16015625,0.2890625,0.8808594,0.0,0.0,0.15625,0.0,0.0,0.0
1664377660926,0.16015625,0.2890625,0.8808594,0.0,0.0,0.15625,0.0,0.0,0.0
1664377660965,0.16308594,0.28710938,0.89453125,0.0,0.0625,-0.125,0.0,0.0,0.0
1664377660965,0.16308594,0.28710938,0.89453125,0.0,0.0625,-0.125,0.0,0.0,0.0
1664377661004,0.15820312,0.2919922,0.89941406,0.0,-0.40625,0.21875,0.0,0.0,0.0
1664377661004,0.15820312,0.2919922,0.89941406,0.0,-0.40625,0.21875,0.0,0.0,0.0
1664377661044,0.16503906,0.2783203,0.88671875,-0.1875,-0.34375,-0.03125,0.0,0.0,0.0
1664377661046,0.16503906,0.2783203,0.88671875,-0.1875,-0.34375,-0.03125,0.0,0.0,0.0
1664377661085,0.17089844,0.29296875,0.9033203,-0.0625,-0.34375,0.15625,0.0,0.0,0.0
1664377661085,0.17089844,0.29296875,0.9033203,-0.0625,-0.34375,0.15625,0.0,0.0,0.0
1664377661124,0.15625,0.2841797,0.8828125,-0.125,-0.1875,0.34375,0.0,0.0,0.0
1664377661124,0.15625,0.2841797,0.8828125,-0.125,-0.1875,0.34375,0.0,0.0,0.0
1664377661164,0.16601562,0.28222656,0.8828125,0.0,-0.0625,0.21875,-16.625,18.0625,-94.5625
1664377661164,0.16601562,0.28222656,0.8828125,0.0,-0.0625,0.21875,-16.625,18.0625,-94.5625
1664377661205,0.15917969,0.29101562,0.89160156,0.0625,-0.34375,0.28125,0.0,0.0,0.0
1664377661205,0.15917969,0.29101562,0.89160156,0.0625,-0.34375,0.28125,0.0,0.0,0.0
1664377661245,0.16308594,0.28710938,0.88378906,0.0,-0.34375,0.21875,0.0,0.0,0.0
1664377661247,0.16308594,0.28710938,0.88378906,0.0,-0.34375,0.21875,0.0,0.0,0.0
1664377661284,0.15429688,0.28515625,0.90527344,0.0625,-0.28125,0.53125,0.0,0.0,0.0
1664377661285,0.15429688,0.28515625,0.90527344,0.0625,-0.28125,0.53125,0.0,0.0,0.0
1664377661324,0.16699219,0.2890625,0.8935547,-0.25,-0.40625,0.21875,0.0,0.0,0.0
1664377661324,0.16699219,0.2890625,0.8935547,-0.25,-0.40625,0.21875,0.0,0.0,0.0
1664377661365,0.15820312,0.28808594,0.9003906,-0.0625,-0.34375,0.40625,0.0,0.0,0.0
1664377661365,0.15820312,0.28808594,0.9003906,-0.0625,-0.34375,0.40625,0.0,0.0,0.0
1664377661404,0.16113281,0.29101562,0.90234375,-0.0625,-0.59375,0.46875,0.0,0.0,0.0
1664377661404,0.16113281,0.29101562,0.90234375,-0.0625,-0.59375,0.46875,0.0,0.0,0.0
1664377661445,0.16699219,0.28515625,0.8847656,-0.125,-0.1875,0.09375,0.0,0.0,0.0
1664377661445,0.16699219,0.28515625,0.8847656,-0.125,-0.1875,0.09375,0.0,0.0,0.0
1664377661484,0.15917969,0.28515625,0.8886719,0.1875,-0.40625,0.53125,0.0,0.0,0.0
1664377661484,0.15917969,0.28515625,0.8886719,0.1875,-0.40625,0.53125,0.0,0.0,0.0
1664377661525,0.16503906,0.28515625,0.8876953,0.0,-0.34375,0.71875,0.0,0.0,0.0
1664377661526,0.16503906,0.28515625,0.8876953,0.0,-0.34375,0.71875,0.0,0.0,0.0
1664377661564,0.16113281,0.29296875,0.890625,0.0625,-0.125,0.65625,0.0,0.0,0.0
1664377661564,0.16113281,0.29296875,0.890625,0.0625,-0.125,0.65625,0.0,0.0,0.0
1664377661603,0.16699219,0.2861328,0.9033203,0.0625,0.25,0.21875,0.0,0.0,0.0
1664377661603,0.16699219,0.2861328,0.9033203,0.0625,0.25,0.21875,0.0,0.0,0.0
1664377661643,0.15820312,0.28320312,0.90722656,-0.125,-0.0625,0.34375,-18.875,18.9375,-94.375
1664377661645,0.15820312,0.28320312,0.90722656,-0.125,-0.0625,0.34375,-18.875,18.9375,-94.375
1664377661685,0.16503906,0.29003906,0.8925781,0.0625,-0.78125,0.59375,0.0,0.0,0.0
1664377661684,0.16503906,0.29003906,0.8925781,0.0625,-0.78125,0.59375,0.0,0.0,0.0
1664377661724,0.1640625,0.28515625,0.89746094,0.0,-0.40625,0.40625,0.0,0.0,0.0
1664377661724,0.1640625,0.28515625,0.89746094,0.0,-0.40625,0.40625,0.0,0.0,0.0
1664377661764,0.15820312,0.2841797,0.89746094,0.0,-0.53125,0.34375,0.0,0.0,0.0
1664377661764,0.15820312,0.2841797,0.89746094,0.0,-0.53125,0.34375,0.0,0.0,0.0
1664377661805,0.16992188,0.2841797,0.8935547,0.0625,-0.59375,0.53125,0.0,0.0,0.0
1664377661806,0.16992188,0.2841797,0.8935547,0.0625,-0.59375,0.53125,0.0,0.0,0.0
1664377661844,0.16699219,0.28125,0.8925781,0.375,-0.65625,0.65625,0.0,0.0,0.0
1664377661843,0.16699219,0.28125,0.8925781,0.375,-0.65625,0.65625,0.0,0.0,0.0
1664377661883,0.17285156,0.29101562,0.8935547,0.1875,-0.34375,0.28125,0.0,0.0,0.0
1664377661887,0.17285156,0.29101562,0.8935547,0.1875,-0.34375,0.28125,0.0,0.0,0.0
1664377661924,0.16601562,0.28710938,0.8925781,0.125,-0.25,0.46875,0.0,0.0,0.0
1664377661924,0.16601562,0.28710938,0.8925781,0.125,-0.25,0.46875,0.0,0.0,0.0
1664377661964,0.171875,0.29101562,0.8925781,-0.0625,-0.28125,0.40625,0.0,0.0,0.0
1664377661964,0.171875,0.29101562,0.8925781,-0.0625,-0.28125,0.40625,0.0,0.0,0.0
1664377662004,0.16992188,0.2890625,0.8964844,0.0,-0.28125,0.28125,0.0,0.0,0.0
1664377662005,0.16992188,0.2890625,0.8964844,0.0,-0.28125,0.28125,0.0,0.0,0.0
1664377662044,0.171875,0.2890625,0.89746094,0.0625,-0.59375,0.15625,0.0,0.0,0.0
1664377662044,0.171875,0.2890625,0.89746094,0.0625,-0.59375,0.15625,0.0,0.0,0.0
1664377662084,0.16503906,0.28710938,0.9003906,-0.0625,-0.34375,0.21875,0.0,0.0,0.0
1664377662084,0.16503906,0.28710938,0.9003906,-0.0625,-0.34375,0.21875,0.0,0.0,0.0
1664377662124,0.16308594,0.2841797,0.89160156,0.0,-0.46875,0.28125,0.0,0.0,0.0
1664377662126,0.16308594,0.2841797,0.89160156,0.0,-0.46875,0.28125,0.0,0.0,0.0
1664377662164,0.16796875,0.2861328,0.8935547,0.0625,-0.40625,0.09375,-17.5625,17.875,-93.375
1664377662164,0.16796875,0.2861328,0.8935547,0.0625,-0.40625,0.09375,-17.5625,17.875,-93.375
1664377662203,0.16601562,0.28515625,0.8876953,0.0625,-0.34375,0.34375,0.0,0.0,0.0
1664377662203,0.16601562,0.28515625,0.8876953,0.0625,-0.34375,0.34375,0.0,0.0,0.0
1664377662244,0.16796875,0.28515625,0.8984375,-0.0625,-0.40625,0.40625,0.0,0.0,0.0
1664377662244,0.16796875,0.28515625,0.8984375,-0.0625,-0.40625,0.40625,0.0,0.0,0.0
1664377662284,0.17089844,0.28710938,0.9003906,0.375,-0.28125,0.21875,0.0,0.0,0.0
1664377662284,0.17089844,0.28710938,0.9003906,0.375,-0.28125,0.21875,0.0,0.0,0.0
1664377662324,0.16503906,0.28515625,0.8955078,0.0,0.1875,0.15625,0.0,0.0,0.0
1664377662324,0.16503906,0.28515625,0.8955078,0.0,0.1875,0.15625,0.0,0.0,0.0
1664377662364,0.16113281,0.29492188,0.89453125,-0.0625,-0.34375,0.15625,0.0,0.0,0.0
1664377662364,0.16113281,0.29492188,0.89453125,-0.0625,-0.34375,0.15625,0.0,0.0,0.0
1664377662403,0.16308594,0.28808594,0.90234375,-0.0625,-0.1875,-0.03125,0.0,0.0,0.0
1664377662403,0.16308594,0.28808594,0.90234375,-0.0625,-0.1875,-0.03125,0.0,0.0,0.0
1664377662444,0.15917969,0.28222656,0.89160156,0.0625,-0.46875,0.21875,0.0,0.0,0.0
1664377662445,0.15917969,0.28222656,0.89160156,0.0625,-0.46875,0.21875,0.0,0.0,0.0
1664377662483,0.17480469,0.2861328,0.88671875,-0.25,-0.40625,-0.03125,0.0,0.0,0.0
1664377662484,0.17480469,0.2861328,0.88671875,-0.25,-0.40625,-0.03125,0.0,0.0,0.0
1664377662524,0.16015625,0.29492188,0.890625,0.25,-0.53125,0.09375,0.0,0.0,0.0
1664377662524,0.16015625,0.29492188,0.890625,0.25,-0.53125,0.09375,0.0,0.0,0.0
1664377662564,0.16699219,0.28515625,0.8876953,-0.125,-0.28125,-0.1875,0.0,0.0,0.0
1664377662564,0.16699219,0.28515625,0.8876953,-0.125,-0.28125,-0.1875,0.0,0.0,0.0
1664377662603,0.16308594,0.29101562,0.88183594,-0.1875,-0.125,-0.09375,0.0,0.0,0.0
1664377662603,0.16308594,0.29101562,0.88183594,-0.1875,-0.125,-0.09375,0.0,0.0,0.0
1664377662644,0.17089844,0.28710938,0.88378906,0.0,-0.34375,0.03125,-16.8125,17.875,-93.0625
1664377662644,0.17089844,0.28710938,0.88378906,0.0,-0.34375,0.03125,-16.8125,17.875,-93.0625
1664377662684,0.16308594,0.29296875,0.88964844,0.0,-0.125,-0.09375,0.0,0.0,0.0
1664377662684,0.16308594,0.29296875,0.88964844,0.0,-0.125,-0.09375,0.0,0.0,0.0
1664377662724,0.16894531,0.2861328,0.88964844,-0.0625,-0.25,-0.03125,0.0,0.0,0.0
1664377662724,0.16894531,0.2861328,0.88964844,-0.0625,-0.25,-0.03125,0.0,0.0,0.0
1664377662764,0.171875,0.2861328,0.8964844,0.0625,-0.34375,0.09375,0.0,0.0,0.0
1664377662764,0.171875,0.2861328,0.8964844,0.0625,-0.34375,0.09375,0.0,0.0,0.0
1664377662805,0.16796875,0.29003906,0.9013672,-0.0625,-0.40625,-0.1875,0.0,0.0,0.0
1664377662807,0.16796875,0.29003906,0.9013672,-0.0625,-0.40625,-0.1875,0.0,0.0,0.0
1664377662844,0.16796875,0.2861328,0.9003906,-0.125,-0.46875,-0.1875,0.0,0.0,0.0
1664377662843,0.16796875,0.2861328,0.9003906,-0.125,-0.46875,-0.1875,0.0,0.0,0.0
1664377662883,0.16601562,0.29492188,0.89160156,-0.0625,-0.28125,0.09375,0.0,0.0,0.0
1664377662883,0.16601562,0.29492188,0.89160156,-0.0625,-0.28125,0.09375,0.0,0.0,0.0
1664377662925,0.16894531,0.28320312,0.88964844,-0.1875,-0.125,-0.03125,0.0,0.0,0.0
1664377662926,0.16894531,0.28320312,0.88964844,-0.1875,-0.125,-0.03125,0.0,0.0,0.0
1664377662964,0.1640625,0.2890625,0.9091797,0.125,0.0,-0.03125,0.0,0.0,0.0
1664377662964,0.1640625,0.2890625,0.9091797,0.125,0.0,-0.03125,0.0,0.0,0.0
1664377663006,0.17480469,0.2763672,0.89453125,-0.3125,0.3125,-0.375,0.0,0.0,0.0
1664377663006,0.17480469,0.2763672,0.89453125,-0.3125,0.3125,-0.375,0.0,0.0,0.0
1664377663047,0.17578125,0.27929688,0.8964844,-0.25,0.125,-0.3125,0.0,0.0,0.0
1664377663046,0.17578125,0.27929688,0.8964844,-0.25,0.125,-0.3125,0.0,0.0,0.0
1664377663083,0.16699219,0.28710938,0.9082031,-0.125,-0.28125,-0.1875,0.0,0.0,0.0
1664377663084,0.16699219,0.28710938,0.9082031,-0.125,-0.28125,-0.1875,0.0,0.0,0.0
1664377663123,0.16503906,0.28710938,0.8955078,0.0,-0.0625,-0.375,0.0,0.0,0.0
1664377663123,0.16503906,0.28710938,0.8955078,0.0,-0.0625,-0.375,0.0,0.0,0.0
1664377663163,0.1640625,0.28027344,0.8984375,-0.3125,-0.125,-0.3125,-15.75,17.875,-92.3125
1664377663163,0.1640625,0.28027344,0.8984375,-0.3125,-0.125,-0.3125,-15.75,17.875,-92.3125
1664377663203,0.16992188,0.28222656,0.9013672,-0.125,-0.28125,-0.125,0.0,0.0,0.0
1664377663204,0.16992188,0.28222656,0.9013672,-0.125,-0.28125,-0.125,0.0,0.0,0.0
1664377663244,0.17089844,0.29003906,0.8935547,0.0625,-0.34375,0.15625,0.0,0.0,0.0
1664377663244,0.17089844,0.29003906,0.8935547,0.0625,-0.34375,0.15625,0.0,0.0,0.0
1664377663284,0.16992188,0.28710938,0.89160156,-0.0625,0.0625,-0.3125,0.0,0.0,0.0
1664377663284,0.16992188,0.28710938,0.89160156,-0.0625,0.0625,-0.3125,0.0,0.0,0.0
1664377663324,0.16308594,0.29589844,0.8886719,0.0,-0.125,-0.25,0.0,0.0,0.0
1664377663324,0.16308594,0.29589844,0.8886719,0.0,-0.125,-0.25,0.0,0.0,0.0
1664377663365,0.1640625,0.28710938,0.8955078,-0.0625,-0.0625,-0.1875,0.0,0.0,0.0
1664377663366,0.1640625,0.28710938,0.8955078,-0.0625,-0.0625,-0.1875,0.0,0.0,0.0
1664377663405,0.17285156,0.296875,0.9042969,0.0,0.0625,-0.09375,0.0,0.0,0.0
1664377663406,0.17285156,0.296875,0.9042969,0.0,0.0625,-0.09375,0.0,0.0,0.0
1664377663444,0.16601562,0.2919922,0.8857422,-0.25,-0.0625,-0.1875,0.0,0.0,0.0
1664377663444,0.16601562,0.2919922,0.8857422,-0.25,-0.0625,-0.1875,0.0,0.0,0.0
1664377663485,0.17089844,0.28222656,0.90234375,-0.125,-0.1875,-0.25,0.0,0.0,0.0
1664377663485,0.17089844,0.28222656,0.90234375,-0.125,-0.1875,-0.25,0.0,0.0,0.0
1664377663524,0.16992188,0.28808594,0.8964844,0.0,-0.0625,-0.1875,0.0,0.0,0.0
1664377663524,0.16992188,0.28808594,0.8964844,0.0,-0.0625,-0.1875,0.0,0.0,0.0
1664377663564,0.15722656,0.28710938,0.89746094,0.0,-0.125,-0.25,0.0,0.0,0.0
1664377663564,0.15722656,0.28710938,0.89746094,0.0,-0.125,-0.25,0.0,0.0,0.0
1664377663604,0.16894531,0.2919922,0.8798828,-0.25,-0.25,-0.125,0.0,0.0,0.0
1664377663604,0.16894531,0.2919922,0.8798828,-0.25,-0.25,-0.125,0.0,0.0,0.0
1664377663644,0.16015625,0.29296875,0.9003906,0.0,0.0,-0.03125,-18.0,19.0625,-94.25
1664377663644,0.16015625,0.29296875,0.9003906,0.0,0.0,-0.03125,-18.0,19.0625,-94.25
1664377663684,0.16601562,0.2939453,0.890625,-0.25,0.375,-0.25,0.0,0.0,0.0
1664377663686,0.16601562,0.2939453,0.890625,-0.25,0.375,-0.25,0.0,0.0,0.0
1664377663724,0.16503906,0.29101562,0.8955078,-0.1875,0.25,-0.25,0.0,0.0,0.0
1664377663724,0.16503906,0.29101562,0.8955078,-0.1875,0.25,-0.25,0.0,0.0,0.0
1664377663764,0.15820312,0.2861328,0.89160156,0.0,-0.125,-0.1875,0.0,0.0,0.0
1664377663764,0.15820312,0.2861328,0.89160156,0.0,-0.125,-0.1875,0.0,0.0,0.0
1664377663804,0.16601562,0.2841797,0.89746094,-0.0625,-0.28125,-0.09375,0.0,0.0,0.0
1664377663804,0.16601562,0.2841797,0.89746094,-0.0625,-0.28125,-0.09375,0.0,0.0,0.0
1664377663844,0.16503906,0.28808594,0.8955078,-0.1875,-0.28125,-0.25,0.0,0.0,0.0
1664377663844,0.16503906,0.28808594,0.8955078,-0.1875,-0.28125,-0.25,0.0,0.0,0.0
1664377663885,0.16699219,0.28515625,0.8925781,-0.25,-0.1875,-0.1875,0.0,0.0,0.0
1664377663885,0.16699219,0.28515625,0.8925781,-0.25,-0.1875,-0.1875,0.0,0.0,0.0
1664377663925,0.16113281,0.28710938,0.90234375,-0.0625,-0.25,0.15625,0.0,0.0,0.0
1664377663925,0.16113281,0.28710938,0.90234375,-0.0625,-0.25,0.15625,0.0,0.0,0.0
1664377663965,0.16503906,0.28710938,0.9042969,-0.25,-0.0625,-0.03125,0.0,0.0,0.0
1664377663965,0.16503906,0.28710938,0.9042969,-0.25,-0.0625,-0.03125,0.0,0.0,0.0
1664377664005,0.16601562,0.2919922,0.8886719,-0.0625,0.125,-0.09375,0.0,0.0,0.0
1664377664006,0.16601562,0.2919922,0.8886719,-0.0625,0.125,-0.09375,0.0,0.0,0.0
1664377664044,0.17089844,0.2890625,0.89453125,-0.0625,-0.25,0.03125,0.0,0.0,0.0
1664377664044,0.17089844,0.2890625,0.89453125,-0.0625,-0.25,0.03125,0.0,0.0,0.0
1664377664084,0.16113281,0.29492188,0.8876953,-0.125,-0.25,-0.03125,0.0,0.0,0.0
1664377664083,0.16113281,0.29492188,0.8876953,-0.125,-0.25,-0.03125,0.0,0.0,0.0
1664377664123,0.16113281,0.28710938,0.8847656,-0.0625,-0.0625,-0.125,0.0,0.0,0.0
1664377664123,0.16113281,0.28710938,0.8847656,-0.0625,-0.0625,-0.125,0.0,0.0,0.0
1664377664163,0.16796875,0.2890625,0.8984375,-0.0625,-0.40625,0.09375,-16.5,18.5,-94.125
1664377664164,0.16796875,0.2890625,0.8984375,-0.0625,-0.40625,0.09375,-16.5,18.5,-94.125
1664377664205,0.16796875,0.28710938,0.88964844,-0.125,-0.125,-0.09375,0.0,0.0,0.0
1664377664205,0.16796875,0.28710938,0.88964844,-0.125,-0.125,-0.09375,0.0,0.0,0.0
1664377664247,0.16699219,0.29003906,0.8876953,0.0625,-0.125,-0.09375,0.0,0.0,0.0
1664377664247,0.16699219,0.29003906,0.8876953,0.0625,-0.125,-0.09375,0.0,0.0,0.0
1664377664284,0.16503906,0.29101562,0.8847656,-0.125,-0.1875,-0.03125,0.0,0.0,0.0
1664377664284,0.16503906,0.29101562,0.8847656,-0.125,-0.1875,-0.03125,0.0,0.0,0.0
1664377664324,0.16796875,0.2890625,0.90527344,-0.0625,0.0625,-0.09375,0.0,0.0,0.0
1664377664324,0.16796875,0.2890625,0.90527344,-0.0625,0.0625,-0.09375,0.0,0.0,0.0
1664377664365,0.16210938,0.28808594,0.88964844,0.0625,0.125,0.15625,0.0,0.0,0.0
1664377664368,0.16210938,0.28808594,0.88964844,0.0625,0.125,0.15625,0.0,0.0,0.0
1664377664404,0.17089844,0.2841797,0.8964844,-0.0625,0.25,-0.25,0.0,0.0,0.0
1664377664404,0.17089844,0.2841797,0.8964844,-0.0625,0.25,-0.25,0.0,0.0,0.0
1664377664445,0.15527344,0.2919922,0.8984375,-0.125,-0.1875,0.21875,0.0,0.0,0.0
1664377664445,0.15527344,0.2919922,0.8984375,-0.125,-0.1875,0.21875,0.0,0.0,0.0
1664377664484,0.14941406,0.2861328,0.89160156,0.0,0.0625,-0.03125,0.0,0.0,0.0
1664377664484,0.14941406,0.2861328,0.89160156,0.0,0.0625,-0.03125,0.0,0.0,0.0
1664377664523,0.16503906,0.2861328,0.91503906,0.0,-0.53125,0.09375,0.0,0.0,0.0
1664377664524,0.16503906,0.2861328,0.91503906,0.0,-0.53125,0.09375,0.0,0.0,0.0
1664377664565,0.16796875,0.2861328,0.89746094,-0.375,-0.34375,-0.09375,0.0,0.0,0.0
1664377664565,0.16796875,0.2861328,0.89746094,-0.375,-0.34375,-0.09375,0.0,0.0,0.0
1664377664604,0.15625,0.2861328,0.8925781,0.0625,-0.46875,0.15625,0.0,0.0,0.0
1664377664604,0.15625,0.2861328,0.8925781,0.0625,-0.46875,0.15625,0.0,0.0,0.0
1664377664644,0.16503906,0.28222656,0.8955078,-0.125,-0.25,0.09375,-16.625,18.0625,-94.5625
1664377664645,0.16503906,0.28222656,0.8955078,-0.125,-0.25,0.09375,-16.625,18.0625,-94.5625
1664377664684,0.16210938,0.2841797,0.8847656,0.0,-0.1875,0.15625,0.0,0.0,0.0
1664377664685,0.16210938,0.2841797,0.8847656,0.0,-0.1875,0.15625,0.0,0.0,0.0
1664377664724,0.16699219,0.28222656,0.8955078,-0.0625,-0.28125,0.15625,0.0,0.0,0.0
1664377664724,0.16699219,0.28222656,0.8955078,-0.0625,-0.28125,0.15625,0.0,0.0,0.0
1664377664764,0.15136719,0.2939453,0.87890625,0.1875,0.0,0.15625,0.0,0.0,0.0
1664377664765,0.15136719,0.2939453,0.87890625,0.1875,0.0,0.15625,0.0,0.0,0.0
1664377664804,0.16796875,0.29101562,0.8935547,-0.0625,-0.25,0.15625,0.0,0.0,0.0
1664377664804,0.16796875,0.29101562,0.8935547,-0.0625,-0.25,0.15625,0.0,0.0,0.0
1664377664844,0.16015625,0.28808594,0.8955078,-0.0625,-0.40625,0.09375,0.0,0.0,0.0
1664377664844,0.16015625,0.28808594,0.8955078,-0.0625,-0.40625,0.09375,0.0,0.0,0.0
1664377664886,0.16308594,0.28808594,0.8964844,0.0625,-0.28125,0.15625,0.0,0.0,0.0
1664377664886,0.16308594,0.28808594,0.8964844,0.0625,-0.28125,0.15625,0.0,0.0,0.0
1664377664923,0.16308594,0.28710938,0.8876953,-0.0625,-0.40625,0.40625,0.0,0.0,0.0
1664377664923,0.16308594,0.28710938,0.8876953,-0.0625,-0.40625,0.40625,0.0,0.0,0.0
1664377664964,0.16699219,0.29003906,0.8876953,0.125,-0.1875,0.21875,0.0,0.0,0.0
1664377664964,0.16699219,0.29003906,0.8876953,0.125,-0.1875,0.21875,0.0,0.0,0.0
1664377665004,0.15429688,0.28320312,0.8935547,0.0625,-0.53125,0.53125,0.0,0.0,0.0
1664377665004,0.15429688,0.28320312,0.8935547,0.0625,-0.53125,0.53125,0.0,0.0,0.0
1664377665045,0.15722656,0.29003906,0.88378906,0.125,-0.46875,0.28125,0.0,0.0,0.0
1664377665044,0.15722656,0.29003906,0.88378906,0.125,-0.46875,0.28125,0.0,0.0,0.0
1664377665084,0.15917969,0.28515625,0.8886719,0.125,0.0,0.09375,0.0,0.0,0.0
1664377665083,0.15917969,0.28515625,0.8886719,0.125,0.0,0.09375,0.0,0.0,0.0
1664377665124,0.16503906,0.2861328,0.9003906,0.125,-0.25,0.15625,0.0,0.0,0.0
1664377665125,0.16503906,0.2861328,0.9003906,0.125,-0.25,0.15625,0.0,0.0,0.0
1664377665164,0.16210938,0.29003906,0.88183594,0.0,-0.40625,0.21875,-17.125,18.1875,-93.625
1664377665164,0.16210938,0.29003906,0.88183594,0.0,-0.40625,0.21875,-17.125,18.1875,-93.625
1664377665204,0.15722656,0.29003906,0.8857422,0.0,-0.28125,0.40625,0.0,0.0,0.0
1664377665204,0.15722656,0.29003906,0.8857422,0.0,-0.28125,0.40625,0.0,0.0,0.0
1664377665244,0.16894531,0.29003906,0.9013672,0.0625,-0.28125,0.28125,0.0,0.0,0.0
1664377665244,0.16894531,0.29003906,0.9013672,0.0625,-0.28125,0.28125,0.0,0.0,0.0
1664377665284,0.16113281,0.2861328,0.8925781,-0.1875,-0.34375,0.40625,0.0,0.0,0.0
1664377665284,0.16113281,0.2861328,0.8925781,-0.1875,-0.34375,0.40625,0.0,0.0,0.0
1664377665324,0.1640625,0.29101562,0.8925781,0.125,-0.71875,0.46875,0.0,0.0,0.0
1664377665324,0.1640625,0.29101562,0.8925781,0.125,-0.71875,0.46875,0.0,0.0,0.0
1664377665364,0.16015625,0.28515625,0.89160156,0.0,-0.0625,0.28125,0.0,0.0,0.0
1664377665364,0.16015625,0.28515625,0.89160156,0.0,-0.0625,0.28125,0.0,0.0,0.0
1664377665404,0.16503906,0.28808594,0.89941406,0.1875,-0.0625,0.21875,0.0,0.0,0.0
1664377665404,0.16503906,0.28808594,0.89941406,0.1875,-0.0625,0.21875,0.0,0.0,0.0
1664377665443,0.16113281,0.28222656,0.8925781,0.25,0.0,-0.03125,0.0,0.0,0.0
1664377665443,0.16113281,0.28222656,0.8925781,0.25,0.0,-0.03125,0.0,0.0,0.0
1664377665484,0.15820312,0.28222656,0.9042969,0.3125,-0.1875,-0.1875,0.0,0.0,0.0
1664377665487,0.15820312,0.28222656,0.9042969,0.3125,-0.1875,-0.1875,0.0,0.0,0.0
1664377665523,0.16992188,0.29589844,0.8955078,0.0625,-0.59375,-0.25,0.0,0.0,0.0
1664377665523,0.16992188,0.29589844,0.8955078,0.0625,-0.59375,-0.25,0.0,0.0,0.0
1664377665565,0.17578125,0.29589844,0.88964844,-0.125,-0.34375,-0.1875,0.0,0.0,0.0
1664377665567,0.17578125,0.29589844,0.88964844,-0.125,-0.34375,-0.1875,0.0,0.0,0.0
1664377665603,0.16113281,0.29101562,0.90234375,0.125,-0.65625,0.40625,0.0,0.0,0.0
1664377665605,0.16113281,0.29101562,0.90234375,0.125,-0.65625,0.40625,0.0,0.0,0.0
1664377665644,0.17089844,0.2890625,0.89941406,-0.1875,-0.34375,0.28125,-17.125,17.875,-94.375
1664377665644,0.17089844,0.2890625,0.89941406,-0.1875,-0.34375,0.28125,-17.125,17.875,-94.375
1664377665685,0.15722656,0.3017578,0.89160156,0.125,-0.125,0.53125,0.0,0.0,0.0
1664377665685,0.15722656,0.3017578,0.89160156,0.125,-0.125,0.53125,0.0,0.0,0.0
1664377665723,0.16015625,0.28027344,0.9111328,-0.0625,-0.78125,0.65625,0.0,0.0,0.0
1664377665723,0.16015625,0.28027344,0.9111328,-0.0625,-0.78125,0.65625,0.0,0.0,0.0
1664377665764,0.1640625,0.29492188,0.88671875,0.0,-0.0625,0.15625,0.0,0.0,0.0
1664377665764,0.1640625,0.29492188,0.88671875,0.0,-0.0625,0.15625,0.0,0.0,0.0
1664377665806,0.16699219,0.28808594,0.890625,0.0,0.25,0.03125,0.0,0.0,0.0
1664377665806,0.16699219,0.28808594,0.890625,0.0,0.25,0.03125,0.0,0.0,0.0
1664377665844,0.15917969,0.2861328,0.88964844,0.0,-0.25,0.15625,0.0,0.0,0.0
1664377665844,0.15917969,0.2861328,0.88964844,0.0,-0.25,0.15625,0.0,0.0,0.0
1664377665885,0.16210938,0.2861328,0.89453125,0.0625,-0.125,0.03125,0.0,0.0,0.0
1664377665887,0.16210938,0.2861328,0.89453125,0.0625,-0.125,0.03125,0.0,0.0,0.0
1664377665925,0.16308594,0.29003906,0.90527344,0.0,-0.25,-0.03125,0.0,0.0,0.0
1664377665925,0.16308594,0.29003906,0.90527344,0.0,-0.25,-0.03125,0.0,0.0,0.0
1664377665964,0.16992188,0.2919922,0.89941406,-0.1875,-0.40625,0.03125,0.0,0.0,0.0
1664377665964,0.16992188,0.2919922,0.89941406,-0.1875,-0.40625,0.03125,0.0,0.0,0.0
1664377666005,0.16113281,0.2861328,0.8886719,0.0625,-0.34375,0.15625,0.0,0.0,0.0
1664377666005,0.16113281,0.2861328,0.8886719,0.0625,-0.34375,0.15625,0.0,0.0,0.0
1664377666044,0.16503906,0.28808594,0.88964844,-0.1875,-0.28125,-0.03125,0.0,0.0,0.0
1664377666044,0.16503906,0.28808594,0.88964844,-0.1875,-0.28125,-0.03125,0.0,0.0,0.0
1664377666087,0.1640625,0.28808594,0.8828125,0.0,0.0,0.15625,0.0,0.0,0.0
1664377666087,0.1640625,0.28808594,0.8828125,0.0,0.0,0.15625,0.0,0.0,0.0
1664377666125,0.16015625,0.27929688,0.890625,0.0625,-0.1875,0.15625,0.0,0.0,0.0
1664377666125,0.16015625,0.27929688,0.890625,0.0625,-0.1875,0.15625,0.0,0.0,0.0
1664377666165,0.16503906,0.28808594,0.89160156,-0.0625,-0.25,0.21875,-16.625,17.75,-93.5
1664377666167,0.16503906,0.28808594,0.89160156,-0.0625,-0.25,0.21875,-16.625,17.75,-93.5
1664377666203,0.16308594,0.29296875,0.89941406,0.0,-0.34375,0.09375,0.0,0.0,0.0
1664377666203,0.16308594,0.29296875,0.89941406,0.0,-0.34375,0.09375,0.0,0.0,0.0
1664377666245,0.16796875,0.2919922,0.88964844,0.0625,-0.1875,0.21875,0.0,0.0,0.0
1664377666245,0.16796875,0.2919922,0.88964844,0.0625,-0.1875,0.21875,0.0,0.0,0.0
1664377666284,0.16503906,0.2890625,0.90722656,-0.0625,-0.53125,0.21875,0.0,0.0,0.0
1664377666284,0.16503906,0.2890625,0.90722656,-0.0625,-0.53125,0.21875,0.0,0.0,0.0
1664377666324,0.1640625,0.2890625,0.90234375,-0.0625,-0.34375,0.21875,0.0,0.0,0.0
1664377666324,0.1640625,0.2890625,0.90234375,-0.0625,-0.34375,0.21875,0.0,0.0,0.0
1664377666365,0.17089844,0.28710938,0.8925781,-0.125,-0.46875,-0.03125,0.0,0.0,0.0
1664377666365,0.17089844,0.28710938,0.8925781,-0.125,-0.46875,-0.03125,0.0,0.0,0.0
1664377666405,0.15429688,0.2890625,0.8935547,0.0,-0.25,0.28125,0.0,0.0,0.0
1664377666405,0.15429688,0.2890625,0.8935547,0.0,-0.25,0.28125,0.0,0.0,0.0
1664377666445,0.16796875,0.2861328,0.8886719,-0.1875,-0.59375,0.40625,0.0,0.0,0.0
1664377666445,0.16796875,0.2861328,0.8886719,-0.1875,-0.59375,0.40625,0.0,0.0,0.0
1664377666484,0.15722656,0.29003906,0.9111328,0.3125,-0.25,0.21875,0.0,0.0,0.0
1664377666484,0.15722656,0.29003906,0.9111328,0.3125,-0.25,0.21875,0.0,0.0,0.0
1664377666525,0.15917969,0.2919922,0.9013672,-0.0625,0.3125,0.09375,0.0,0.0,0.0
1664377666525,0.15917969,0.2919922,0.9013672,-0.0625,0.3125,0.09375,0.0,0.0,0.0
1664377666564,0.16308594,0.28710938,0.90234375,-0.0625,-0.1875,0.15625,0.0,0.0,0.0
1664377666564,0.16308594,0.28710938,0.90234375,-0.0625,-0.1875,0.15625,0.0,0.0,0.0
1664377666605,0.16601562,0.28808594,0.88183594,-0.0625,-0.28125,-0.09375,0.0,0.0,0.0
1664377666605,0.16601562,0.28808594,0.88183594,-0.0625,-0.28125,-0.09375,0.0,0.0,0.0
1664377666644,0.17089844,0.28222656,0.8955078,-0.0625,-0.40625,0.09375,-16.8125,18.1875,-94.375
1664377666644,0.17089844,0.28222656,0.8955078,-0.0625,-0.40625,0.09375,-16.8125,18.1875,-94.375
1664377666685,0.1640625,0.28515625,0.88964844,-0.125,-0.21875,0.0,0.0,0.0,0.0
1664377666684,0.1640625,0.28515625,0.88964844,-0.125,-0.21875,0.0,0.0,0.0,0.0
1664377666725,0.17578125,0.2841797,0.8925781,-0.0625,-0.34375,0.0625,0.0,0.0,0.0
1664377666725,0.17578125,0.2841797,0.8925781,-0.0625,-0.34375,0.0625,0.0,0.0,0.0
1664377666764,0.15820312,0.29492188,0.8935547,-0.0625,-0.03125,-0.125,0.0,0.0,0.0
1664377666766,0.15820312,0.29492188,0.8935547,-0.0625,-0.03125,-0.125,0.0,0.0,0.0
1664377666804,0.15917969,0.28222656,0.8876953,0.0,0.34375,-0.28125,0.0,0.0,0.0
1664377666804,0.15917969,0.28222656,0.8876953,0.0,0.34375,-0.28125,0.0,0.0,0.0
1664377666844,0.16894531,0.29003906,0.9003906,-0.0625,0.03125,-0.125,0.0,0.0,0.0
1664377666844,0.16894531,0.29003906,0.9003906,-0.0625,0.03125,-0.125,0.0,0.0,0.0
1664377666885,0.16503906,0.28515625,0.890625,-0.0625,0.09375,-0.125,0.0,0.0,0.0
1664377666885,0.16503906,0.28515625,0.890625,-0.0625,0.09375,-0.125,0.0,0.0,0.0
1664377666924,0.16308594,0.28808594,0.890625,-0.0625,0.03125,-0.125,0.0,0.0,0.0
1664377666925,0.16308594,0.28808594,0.890625,-0.0625,0.03125,-0.125,0.0,0.0,0.0
1664377666964,0.17480469,0.28515625,0.8847656,-0.0625,-0.03125,-0.125,0.0,0.0,0.0
1664377666964,0.17480469,0.28515625,0.8847656,-0.0625,-0.03125,-0.125,0.0,0.0,0.0
1664377667005,0.16503906,0.2841797,0.890625,-0.0625,-0.03125,-0.28125,0.0,0.0,0.0
1664377667005,0.16503906,0.2841797,0.890625,-0.0625,-0.03125,-0.28125,0.0,0.0,0.0
1664377667044,0.16894531,0.29101562,0.9033203,-0.0625,-0.03125,-0.125,0.0,0.0,0.0
1664377667045,0.16894531,0.29101562,0.9033203,-0.0625,-0.03125,-0.125,0.0,0.0,0.0
1664377667084,0.17480469,0.29101562,0.8984375,-0.25,-0.09375,-0.28125,0.0,0.0,0.0
1664377667084,0.17480469,0.29101562,0.8984375,-0.25,-0.09375,-0.28125,0.0,0.0,0.0
1664377667125,0.16601562,0.2939453,0.88964844,0.0,0.21875,-0.25,0.0,0.0,0.0
1664377667125,0.16601562,0.2939453,0.88964844,0.0,0.21875,-0.25,0.0,0.0,0.0
1664377667164,0.16503906,0.29003906,0.88671875,-0.0625,0.09375,-0.0625,-15.875,18.8125,-94.25
1664377667164,0.16503906,0.29003906,0.88671875,-0.0625,0.09375,-0.0625,-15.875,18.8125,-94.25
1664377667204,0.16308594,0.2861328,0.8925781,0.0,0.40625,-0.125,0.0,0.0,0.0
1664377667204,0.16308594,0.2861328,0.8925781,0.0,0.40625,-0.125,0.0,0.0,0.0
1664377667245,0.16210938,0.2890625,0.8964844,-0.125,0.46875,-0.34375,0.0,0.0,0.0
1664377667245,0.16210938,0.2890625,0.8964844,-0.125,0.46875,-0.34375,0.0,0.0,0.0
1664377667284,0.16796875,0.29003906,0.890625,-0.25,0.40625,-0.46875,0.0,0.0,0.0
1664377667284,0.16796875,0.29003906,0.890625,-0.25,0.40625,-0.46875,0.0,0.0,0.0
1664377667325,0.15625,0.29492188,0.8857422,0.0,0.15625,-0.53125,0.0,0.0,0.0
1664377667325,0.15625,0.29492188,0.8857422,0.0,0.15625,-0.53125,0.0,0.0,0.0
1664377667364,0.171875,0.29296875,0.89160156,0.0625,0.03125,-0.46875,0.0,0.0,0.0
1664377667366,0.171875,0.29296875,0.89160156,0.0625,0.03125,-0.46875,0.0,0.0,0.0
1664377667407,0.15820312,0.2841797,0.8857422,-0.125,0.28125,-0.40625,0.0,0.0,0.0
1664377667407,0.15820312,0.2841797,0.8857422,-0.125,0.28125,-0.40625,0.0,0.0,0.0
1664377667444,0.15625,0.2841797,0.89941406,0.0,0.15625,-0.1875,0.0,0.0,0.0
1664377667445,0.15625,0.2841797,0.89941406,0.0,0.15625,-0.1875,0.0,0.0,0.0
1664377667484,0.16015625,0.28222656,0.9003906,-0.0625,-0.03125,0.0,0.0,0.0,0.0
1664377667484,0.16015625,0.28222656,0.9003906,-0.0625,-0.03125,0.0,0.0,0.0,0.0
1664377667524,0.16503906,0.2783203,0.8964844,-0.125,0.15625,-0.28125,0.0,0.0,0.0
1664377667525,0.16503906,0.2783203,0.8964844,-0.125,0.15625,-0.28125,0.0,0.0,0.0
1664377667565,0.1640625,0.29003906,0.8955078,0.0,0.28125,-0.28125,0.0,0.0,0.0
1664377667565,0.1640625,0.29003906,0.8955078,0.0,0.28125,-0.28125,0.0,0.0,0.0
1664377667604,0.15917969,0.2919922,0.8984375,0.0,0.15625,-0.40625,0.0,0.0,0.0
1664377667604,0.15917969,0.2919922,0.8984375,0.0,0.15625,-0.40625,0.0,0.0,0.0
1664377667644,0.1640625,0.2841797,0.8964844,-0.0625,-0.15625,-0.25,-18.625,18.5,-93.0625
1664377667646,0.1640625,0.2841797,0.8964844,-0.0625,-0.15625,-0.25,-18.625,18.5,-93.0625
1664377667684,0.1640625,0.28808594,0.8964844,-0.125,0.09375,-0.28125,0.0,0.0,0.0
1664377667684,0.1640625,0.28808594,0.8964844,-0.125,0.09375,-0.28125,0.0,0.0,0.0
1664377667724,0.16796875,0.29101562,0.8935547,0.0,0.21875,-0.25,0.0,0.0,0.0
1664377667724,0.16796875,0.29101562,0.8935547,0.0,0.21875,-0.25,0.0,0.0,0.0
1664377667764,0.15332031,0.29003906,0.8886719,0.0,0.15625,-0.25,0.0,0.0,0.0
1664377667764,0.15332031,0.29003906,0.8886719,0.0,0.15625,-0.25,0.0,0.0,0.0
1664377667804,0.17089844,0.28808594,0.8964844,0.0625,0.21875,-0.25,0.0,0.0,0.0
1664377667804,0.17089844,0.28808594,0.8964844,0.0625,0.21875,-0.25,0.0,0.0,0.0
1664377667844,0.171875,0.28808594,0.89160156,-0.125,0.28125,-0.28125,0.0,0.0,0.0
1664377667845,0.171875,0.28808594,0.89160156,-0.125,0.28125,-0.28125,0.0,0.0,0.0
1664377667884,0.15917969,0.28710938,0.8925781,-0.3125,-0.09375,-0.1875,0.0,0.0,0.0
1664377667883,0.15917969,0.28710938,0.8925781,-0.3125,-0.09375,-0.1875,0.0,0.0,0.0
1664377667924,0.15820312,0.28515625,0.8964844,0.0,0.15625,0.0625,0.0,0.0,0.0
1664377667924,0.15820312,0.28515625,0.8964844,0.0,0.15625,0.0625,0.0,0.0,0.0
1664377667967,0.15625,0.28710938,0.89160156,-0.1875,0.6875,-0.53125,0.0,0.0,0.0
1664377667967,0.15625,0.28710938,0.89160156,-0.1875,0.6875,-0.53125,0.0,0.0,0.0
1664377668003,0.16699219,0.28808594,0.8984375,-0.0625,0.34375,-0.28125,0.0,0.0,0.0
1664377668006,0.16699219,0.28808594,0.8984375,-0.0625,0.34375,-0.28125,0.0,0.0,0.0
1664377668043,0.16210938,0.28027344,0.89453125,-0.125,0.03125,-0.1875,0.0,0.0,0.0
1664377668044,0.16210938,0.28027344,0.89453125,-0.125,0.03125,-0.1875,0.0,0.0,0.0
1664377668084,0.15429688,0.29101562,0.89746094,0.1875,0.03125,-0.25,0.0,0.0,0.0
1664377668084,0.15429688,0.29101562,0.89746094,0.1875,0.03125,-0.25,0.0,0.0,0.0
1664377668124,0.16113281,0.2861328,0.9082031,0.0625,0.03125,-0.28125,0.0,0.0,0.0
1664377668124,0.16113281,0.2861328,0.9082031,0.0625,0.03125,-0.28125,0.0,0.0,0.0
1664377668164,0.1640625,0.27734375,0.8984375,-0.25,-0.03125,-0.40625,-18.3125,17.875,-95.4375
1664377668164,0.1640625,0.27734375,0.8984375,-0.25,-0.03125,-0.40625,-18.3125,17.875,-95.4375
1664377668205,0.15625,0.296875,0.89453125,-0.0625,0.03125,-0.125,0.0,0.0,0.0
1664377668205,0.15625,0.296875,0.89453125,-0.0625,0.03125,-0.125,0.0,0.0,0.0
1664377668245,0.15136719,0.2890625,0.8808594,-0.125,0.21875,-0.1875,0.0,0.0,0.0
1664377668244,0.15136719,0.2890625,0.8808594,-0.125,0.21875,-0.1875,0.0,0.0,0.0
1664377668284,0.16503906,0.2919922,0.90722656,-0.0625,0.34375,-0.1875,0.0,0.0,0.0
1664377668286,0.16503906,0.2919922,0.90722656,-0.0625,0.34375,-0.1875,0.0,0.0,0.0
1664377668324,0.15722656,0.2890625,0.8964844,0.0625,0.21875,-0.0625,0.0,0.0,0.0
1664377668327,0.15722656,0.2890625,0.8964844,0.0625,0.21875,-0.0625,0.0,0.0,0.0
1664377668364,0.15820312,0.27929688,0.9013672,-0.0625,0.09375,0.0625,0.0,0.0,0.0
1664377668369,0.15820312,0.27929688,0.9013672,-0.0625,0.09375,0.0625,0.0,0.0,0.0
1664377668403,0.15722656,0.2841797,0.88183594,-0.3125,-0.03125,-0.25,0.0,0.0,0.0
1664377668403,0.15722656,0.2841797,0.88183594,-0.3125,-0.03125,-0.25,0.0,0.0,0.0
1664377668445,0.16503906,0.28222656,0.8955078,-0.1875,-0.15625,-0.28125,0.0,0.0,0.0
1664377668445,0.16503906,0.28222656,0.8955078,-0.1875,-0.15625,-0.28125,0.0,0.0,0.0
1664377668484,0.15820312,0.2890625,0.8886719,-0.125,-0.15625,-0.125,0.0,0.0,0.0
1664377668484,0.15820312,0.2890625,0.8886719,-0.125,-0.15625,-0.125,0.0,0.0,0.0
1664377668524,0.16308594,0.29296875,0.8984375,-0.1875,0.03125,-0.28125,0.0,0.0,0.0
1664377668524,0.16308594,0.29296875,0.8984375,-0.1875,0.03125,-0.28125,0.0,0.0,0.0
1664377668565,0.15234375,0.29101562,0.890625,-0.0625,0.21875,0.0,0.0,0.0,0.0
1664377668565,0.15234375,0.29101562,0.890625,-0.0625,0.21875,0.0,0.0,0.0,0.0
1664377668604,0.16308594,0.28710938,0.8955078,-0.125,0.03125,0.125,0.0,0.0,0.0
1664377668605,0.16308594,0.28710938,0.8955078,-0.125,0.03125,0.125,0.0,0.0,0.0
1664377668644,0.15917969,0.28222656,0.8964844,0.0,0.28125,-0.0625,-17.875,19.25,-93.625
1664377668644,0.15917969,0.28222656,0.8964844,0.0,0.28125,-0.0625,-17.875,19.25,-93.625
1664377668685,0.16308594,0.2763672,0.89453125,-0.125,0.53125,-0.34375,0.0,0.0,0.0
1664377668685,0.16308594,0.2763672,0.89453125,-0.125,0.53125,-0.34375,0.0,0.0,0.0
1664377668723,0.16210938,0.28710938,0.8935547,0.0,0.53125,-0.34375,0.0,0.0,0.0
1664377668723,0.16210938,0.28710938,0.8935547,0.0,0.53125,-0.34375,0.0,0.0,0.0
1664377668764,0.16113281,0.29003906,0.88964844,-0.0625,-0.03125,0.0,0.0,0.0,0.0
1664377668764,0.16113281,0.29003906,0.88964844,-0.0625,-0.03125,0.0,0.0,0.0,0.0
1664377668805,0.15722656,0.28027344,0.8984375,-0.1875,-0.15625,-0.0625,0.0,0.0,0.0
1664377668805,0.15722656,0.28027344,0.8984375,-0.1875,-0.15625,-0.0625,0.0,0.0,0.0
1664377668843,0.16503906,0.2783203,0.9033203,0.0,0.09375,-0.1875,0.0,0.0,0.0
1664377668844,0.16503906,0.2783203,0.9033203,0.0,0.09375,-0.1875,0.0,0.0,0.0
1664377668885,0.15917969,0.2861328,0.8886719,-0.1875,-0.03125,-0.125,0.0,0.0,0.0
1664377668885,0.15917969,0.2861328,0.8886719,-0.1875,-0.03125,-0.125,0.0,0.0,0.0
1664377668925,0.15429688,0.2919922,0.88378906,0.0625,-0.09375,0.125,0.0,0.0,0.0
1664377668925,0.15429688,0.2919922,0.88378906,0.0625,-0.09375,0.125,0.0,0.0,0.0
1664377668964,0.16308594,0.29003906,0.8925781,-0.1875,0.09375,-0.1875,0.0,0.0,0.0
1664377668964,0.16308594,0.29003906,0.8925781,-0.1875,0.09375,-0.1875,0.0,0.0,0.0
1664377669005,0.15820312,0.2861328,0.8935547,0.0,0.03125,0.0,0.0,0.0,0.0
1664377669005,0.15820312,0.2861328,0.8935547,0.0,0.03125,0.0,0.0,0.0,0.0
1664377669044,0.15234375,0.29101562,0.8955078,-0.0625,-0.03125,-0.0625,0.0,0.0,0.0
1664377669044,0.15234375,0.29101562,0.8955078,-0.0625,-0.03125,-0.0625,0.0,0.0,0.0
1664377669084,0.15917969,0.29296875,0.89746094,0.0625,0.15625,0.0,0.0,0.0,0.0
1664377669084,0.15917969,0.29296875,0.89746094,0.0625,0.15625,0.0,0.0,0.0,0.0
1664377669125,0.16015625,0.28515625,0.8964844,-0.125,-0.03125,0.0625,0.0,0.0,0.0
1664377669125,0.16015625,0.28515625,0.8964844,-0.125,-0.03125,0.0625,0.0,0.0,0.0
1664377669164,0.15820312,0.2783203,0.89160156,-0.1875,-0.15625,0.125,-18.3125,17.4375,-94.375
1664377669164,0.15820312,0.2783203,0.89160156,-0.1875,-0.15625,0.125,-18.3125,17.4375,-94.375
1664377669204,0.16796875,0.28222656,0.8886719,-0.0625,-0.03125,0.3125,0.0,0.0,0.0
1664377669204,0.16796875,0.28222656,0.8886719,-0.0625,-0.03125,0.3125,0.0,0.0,0.0
1664377669245,0.16308594,0.2841797,0.890625,-0.0625,-0.03125,0.1875,0.0,0.0,0.0
1664377669245,0.16308594,0.2841797,0.890625,-0.0625,-0.03125,0.1875,0.0,0.0,0.0
1664377669284,0.15429688,0.28808594,0.89941406,-0.0625,-0.03125,0.1875,0.0,0.0,0.0
1664377669284,0.15429688,0.28808594,0.89941406,-0.0625,-0.03125,0.1875,0.0,0.0,0.0
1664377669324,0.16308594,0.28808594,0.9003906,0.125,-0.28125,0.53125,0.0,0.0,0.0
1664377669324,0.16308594,0.28808594,0.9003906,0.125,-0.28125,0.53125,0.0,0.0,0.0
1664377669365,0.16015625,0.28808594,0.8955078,0.3125,-0.15625,0.53125,0.0,0.0,0.0
1664377669365,0.16015625,0.28808594,0.8955078,0.3125,-0.15625,0.53125,0.0,0.0,0.0
1664377669403,0.15820312,0.28125,0.89160156,0.125,0.28125,0.3125,0.0,0.0,0.0
1664377669403,0.15820312,0.28125,0.89160156,0.125,0.28125,0.3125,0.0,0.0,0.0
1664377669445,0.16015625,0.28808594,0.8925781,0.125,0.03125,0.25,0.0,0.0,0.0
1664377669445,0.16015625,0.28808594,0.8925781,0.125,0.03125,0.25,0.0,0.0,0.0
1664377669484,0.16601562,0.2919922,0.8935547,0.1875,-0.40625,0.40625,0.0,0.0,0.0
1664377669484,0.16601562,0.2919922,0.8935547,0.1875,-0.40625,0.40625,0.0,0.0,0.0
1664377669525,0.16601562,0.29492188,0.8935547,0.0,-0.03125,0.3125,0.0,0.0,0.0
1664377669525,0.16601562,0.29492188,0.8935547,0.0,-0.03125,0.3125,0.0,0.0,0.0
1664377669565,0.16894531,0.29101562,0.8984375,0.0625,-0.34375,0.0625,0.0,0.0,0.0
1664377669566,0.16894531,0.29101562,0.8984375,0.0625,-0.34375,0.0625,0.0,0.0,0.0
1664377669605,0.15722656,0.28808594,0.8984375,0.0625,-0.21875,0.40625,0.0,0.0,0.0
1664377669605,0.15722656,0.28808594,0.8984375,0.0625,-0.21875,0.40625,0.0,0.0,0.0
1664377669645,0.16308594,0.28222656,0.8925781,0.0,-0.53125,0.40625,-18.4375,17.75,-93.9375
1664377669645,0.16308594,0.28222656,0.8925781,0.0,-0.53125,0.40625,-18.4375,17.75,-93.9375
1664377669684,0.16308594,0.27539062,0.8955078,0.125,0.09375,0.25,0.0,0.0,0.0
1664377669684,0.16308594,0.27539062,0.8955078,0.125,0.09375,0.25,0.0,0.0,0.0
1664377669726,0.15625,0.2919922,0.8925781,0.0,-0.03125,0.46875,0.0,0.0,0.0
1664377669725,0.15625,0.2919922,0.8925781,0.0,-0.03125,0.46875,0.0,0.0,0.0
1664377669764,0.16503906,0.2890625,0.8964844,0.375,-0.40625,0.375,0.0,0.0,0.0
1664377669764,0.16503906,0.2890625,0.8964844,0.375,-0.40625,0.375,0.0,0.0,0.0
1664377669805,0.16210938,0.2861328,0.88378906,0.0625,-0.28125,0.1875,0.0,0.0,0.0
1664377669805,0.16210938,0.2861328,0.88378906,0.0625,-0.28125,0.1875,0.0,0.0,0.0
1664377669845,0.15820312,0.28515625,0.89941406,0.125,-0.21875,0.1875,0.0,0.0,0.0
1664377669845,0.15820312,0.28515625,0.89941406,0.125,-0.21875,0.1875,0.0,0.0,0.0
1664377669884,0.16210938,0.28710938,0.890625,0.25,-0.59375,0.46875,0.0,0.0,0.0
1664377669884,0.16210938,0.28710938,0.890625,0.25,-0.59375,0.46875,0.0,0.0,0.0
1664377669924,0.171875,0.2890625,0.90625,0.0625,0.03125,0.1875,0.0,0.0,0.0
1664377669924,0.171875,0.2890625,0.90625,0.0625,0.03125,0.1875,0.0,0.0,0.0
1664377669965,0.16503906,0.28222656,0.88964844,0.25,-0.09375,0.1875,0.0,0.0,0.0
1664377669965,0.16503906,0.28222656,0.88964844,0.25,-0.09375,0.1875,0.0,0.0,0.0
1664377670004,0.16210938,0.2861328,0.89453125,0.0625,-0.21875,0.375,0.0,0.0,0.0
1664377670004,0.16210938,0.2861328,0.89453125,0.0625,-0.21875,0.375,0.0,0.0,0.0
1664377670044,0.15820312,0.2861328,0.89746094,0.125,-0.21875,0.65625,0.0,0.0,0.0
1664377670044,0.15820312,0.2861328,0.89746094,0.125,-0.21875,0.65625,0.0,0.0,0.0
1664377670084,0.15722656,0.28222656,0.87890625,0.25,-0.09375,0.65625,0.0,0.0,0.0
1664377670084,0.15722656,0.28222656,0.87890625,0.25,-0.09375,0.65625,0.0,0.0,0.0
1664377670127,0.16699219,0.29492188,0.8984375,-0.125,0.3125,0.1875,0.0,0.0,0.0
1664377670128,0.16699219,0.29492188,0.8984375,-0.125,0.3125,0.1875,0.0,0.0,0.0
1664377670164,0.16699219,0.29101562,0.8876953,0.0625,-0.28125,0.53125,-18.0,17.0,-93.9375
1664377670166,0.16699219,0.29101562,0.8876953,0.0625,-0.28125,0.53125,-18.0,17.0,-93.9375
1664377670205,0.16699219,0.2841797,0.90234375,0.0,0.03125,0.0,0.0,0.0,0.0
1664377670207,0.16699219,0.2841797,0.90234375,0.0,0.03125,0.0,0.0,0.0,0.0
1664377670245,0.16308594,0.2890625,0.8886719,0.3125,-0.34375,0.46875,0.0,0.0,0.0
1664377670245,0.16308594,0.2890625,0.8886719,0.3125,-0.34375,0.46875,0.0,0.0,0.0
1664377670284,0.16308594,0.27539062,0.890625,0.0,-0.28125,0.25,0.0,0.0,0.0
1664377670285,0.16308594,0.27539062,0.890625,0.0,-0.28125,0.25,0.0,0.0,0.0
1664377670324,0.1640625,0.28808594,0.8964844,0.25,-0.65625,0.375,0.0,0.0,0.0
1664377670324,0.1640625,0.28808594,0.8964844,0.25,-0.65625,0.375,0.0,0.0,0.0
1664377670364,0.1640625,0.2998047,0.8886719,0.25,-0.21875,0.3125,0.0,0.0,0.0
1664377670364,0.1640625,0.2998047,0.8886719,0.25,-0.21875,0.3125,0.0,0.0,0.0
1664377670404,0.16992188,0.29003906,0.8935547,0.3125,-0.15625,0.40625,0.0,0.0,0.0
1664377670405,0.16992188,0.29003906,0.8935547,0.3125,-0.15625,0.40625,0.0,0.0,0.0
1664377670445,0.17285156,0.2939453,0.8847656,0.25,-0.03125,0.1875,0.0,0.0,0.0
1664377670444,0.17285156,0.2939453,0.8847656,0.25,-0.03125,0.1875,0.0,0.0,0.0
1664377670484,0.1640625,0.29003906,0.88671875,0.125,-0.09375,0.1875,0.0,0.0,0.0
1664377670487,0.1640625,0.29003906,0.88671875,0.125,-0.09375,0.1875,0.0,0.0,0.0
1664377670524,0.16015625,0.28027344,0.8925781,0.25,-0.09375,0.125,0.0,0.0,0.0
1664377670524,0.16015625,0.28027344,0.8925781,0.25,-0.09375,0.125,0.0,0.0,0.0
1664377670563,0.171875,0.28710938,0.890625,0.25,-0.15625,0.25,0.0,0.0,0.0
1664377670563,0.171875,0.28710938,0.890625,0.25,-0.15625,0.25,0.0,0.0,0.0
1664377670603,0.17382812,0.28320312,0.8808594,0.125,-0.34375,0.125,0.0,0.0,0.0
1664377670604,0.17382812,0.28320312,0.8808594,0.125,-0.34375,0.125,0.0,0.0,0.0
1664377670644,0.15820312,0.28222656,0.8955078,0.0625,-0.09375,-0.125,-17.875,17.4375,-94.125
1664377670644,0.15820312,0.28222656,0.8955078,0.0625,-0.09375,-0.125,-17.875,17.4375,-94.125
1664377670684,0.16113281,0.28222656,0.890625,0.0,-0.59375,0.3125,0.0,0.0,0.0
1664377670684,0.16113281,0.28222656,0.890625,0.0,-0.59375,0.3125,0.0,0.0,0.0
1664377670726,0.16601562,0.28320312,0.89453125,0.3125,0.09375,0.125,0.0,0.0,0.0
1664377670726,0.16601562,0.28320312,0.89453125,0.3125,0.09375,0.125,0.0,0.0,0.0
1664377670764,0.16699219,0.28222656,0.89453125,0.0,0.5625,-0.25,0.0,0.0,0.0
1664377670764,0.16699219,0.28222656,0.89453125,0.0,0.5625,-0.25,0.0,0.0,0.0
1664377670804,0.1640625,0.28222656,0.88964844,0.375,0.21875,0.0,0.0,0.0,0.0
1664377670804,0.1640625,0.28222656,0.88964844,0.375,0.21875,0.0,0.0,0.0,0.0
1664377670845,0.1640625,0.29101562,0.89160156,0.0,0.03125,-0.0625,0.0,0.0,0.0
1664377670844,0.1640625,0.29101562,0.89160156,0.0,0.03125,-0.0625,0.0,0.0,0.0
1664377670883,0.16113281,0.28710938,0.8984375,0.0,0.03125,-0.25,0.0,0.0,0.0
1664377670883,0.16113281,0.28710938,0.8984375,0.0,0.03125,-0.25,0.0,0.0,0.0
1664377670924,0.17773438,0.2841797,0.8955078,0.125,-0.28125,-0.1875,0.0,0.0,0.0
1664377670925,0.17773438,0.2841797,0.8955078,0.125,-0.28125,-0.1875,0.0,0.0,0.0
1664377670965,0.16992188,0.2919922,0.8964844,-0.125,-0.15625,-0.0625,0.0,0.0,0.0
1664377670964,0.16992188,0.2919922,0.8964844,-0.125,-0.15625,-0.0625,0.0,0.0,0.0
1664377671004,0.1640625,0.2939453,0.9013672,0.125,-0.15625,0.0,0.0,0.0,0.0
1664377671005,0.1640625,0.2939453,0.9013672,0.125,-0.15625,0.0,0.0,0.0,0.0
1664377671044,0.17480469,0.28027344,0.9003906,0.0625,0.3125,-0.4375,0.0,0.0,0.0
1664377671044,0.17480469,0.28027344,0.9003906,0.0625,0.3125,-0.4375,0.0,0.0,0.0
1664377671087,0.16308594,0.28320312,0.8886719,0.25,-0.03125,-0.125,0.0,0.0,0.0
1664377671087,0.16308594,0.28320312,0.8886719,0.25,-0.03125,-0.125,0.0,0.0,0.0
1664377671125,0.16503906,0.28222656,0.89160156,0.125,0.21875,-0.125,0.0,0.0,0.0
1664377671125,0.16503906,0.28222656,0.89160156,0.125,0.21875,-0.125,0.0,0.0,0.0
1664377671163,0.16601562,0.29003906,0.8964844,0.0,-0.03125,-0.1875,-16.9375,19.375,-94.25
1664377671163,0.16601562,0.29003906,0.8964844,0.0,-0.03125,-0.1875,-16.9375,19.375,-94.25
1664377671204,0.16308594,0.29003906,0.8808594,0.0,0.09375,-0.25,0.0,0.0,0.0
1664377671204,0.16308594,0.29003906,0.8808594,0.0,0.09375,-0.25,0.0,0.0,0.0
1664377671243,0.16601562,0.28222656,0.9003906,0.1875,0.28125,-0.4375,0.0,0.0,0.0
1664377671244,0.16601562,0.28222656,0.9003906,0.1875,0.28125,-0.4375,0.0,0.0,0.0
1664377671284,0.1640625,0.29296875,0.8886719,0.125,0.03125,-0.1875,0.0,0.0,0.0
1664377671285,0.1640625,0.29296875,0.8886719,0.125,0.03125,-0.1875,0.0,0.0,0.0
1664377671324,0.16308594,0.28808594,0.8886719,0.0,0.03125,-0.1875,0.0,0.0,0.0
1664377671324,0.16308594,0.28808594,0.8886719,0.0,0.03125,-0.1875,0.0,0.0,0.0
1664377671365,0.1640625,0.28710938,0.9042969,-0.0625,-0.03125,-0.0625,0.0,0.0,0.0
1664377671367,0.1640625,0.28710938,0.9042969,-0.0625,-0.03125,-0.0625,0.0,0.0,0.0
1664377671403,0.1640625,0.29003906,0.8955078,0.125,0.3125,-0.125,0.0,0.0,0.0
1664377671403,0.1640625,0.29003906,0.8955078,0.125,0.3125,-0.125,0.0,0.0,0.0
1664377671444,0.16601562,0.29296875,0.89941406,-0.1875,0.8125,-0.5,0.0,0.0,0.0
1664377671444,0.16601562,0.29296875,0.89941406,-0.1875,0.8125,-0.5,0.0,0.0,0.0
1664377671484,0.16503906,0.2890625,0.9033203,0.0625,0.03125,-0.1875,0.0,0.0,0.0
1664377671484,0.16503906,0.2890625,0.9033203,0.0625,0.03125,-0.1875,0.0,0.0,0.0
1664377671524,0.16796875,0.28710938,0.89941406,-0.0625,0.15625,-0.3125,0.0,0.0,0.0
1664377671524,0.16796875,0.28710938,0.89941406,-0.0625,0.15625,-0.3125,0.0,0.0,0.0
1664377671565,0.17089844,0.29101562,0.8964844,0.0625,-0.03125,-0.125,0.0,0.0,0.0
1664377671564,0.17089844,0.29101562,0.8964844,0.0625,-0.03125,-0.125,0.0,0.0,0.0
1664377671604,0.16894531,0.2919922,0.8828125,-0.0625,0.15625,-0.3125,0.0,0.0,0.0
1664377671604,0.16894531,0.2919922,0.8828125,-0.0625,0.15625,-0.3125,0.0,0.0,0.0
1664377671644,0.16699219,0.28222656,0.9003906,0.125,-0.03125,-0.0625,-18.0,18.3125,-93.5
1664377671644,0.16699219,0.28222656,0.9003906,0.125,-0.03125,-0.0625,-18.0,18.3125,-93.5
1664377671684,0.16113281,0.2919922,0.8984375,0.0,-0.21875,0.0625,0.0,0.0,0.0
1664377671684,0.16113281,0.2919922,0.8984375,0.0,-0.21875,0.0625,0.0,0.0,0.0
1664377671723,0.16894531,0.2763672,0.88378906,0.0625,0.21875,-0.4375,0.0,0.0,0.0
1664377671725,0.16894531,0.2763672,0.88378906,0.0625,0.21875,-0.4375,0.0,0.0,0.0
1664377671764,0.16015625,0.29101562,0.8925781,0.125,0.28125,-0.25,0.0,0.0,0.0
1664377671764,0.16015625,0.29101562,0.8925781,0.125,0.28125,-0.25,0.0,0.0,0.0
1664377671805,0.15820312,0.28710938,0.88183594,0.0625,0.3125,-0.125,0.0,0.0,0.0
1664377671805,0.15820312,0.28710938,0.88183594,0.0625,0.3125,-0.125,0.0,0.0,0.0
1664377671843,0.16113281,0.2919922,0.8925781,0.125,0.03125,-0.125,0.0,0.0,0.0
1664377671844,0.16113281,0.2919922,0.8925781,0.125,0.03125,-0.125,0.0,0.0,0.0
1664377671884,0.16894531,0.28808594,0.90625,-0.125,0.28125,-0.3125,0.0,0.0,0.0
1664377671884,0.16894531,0.28808594,0.90625,-0.125,0.28125,-0.3125,0.0,0.0,0.0
1664377671924,0.15722656,0.2890625,0.8886719,0.0,0.03125,-0.25,0.0,0.0,0.0
1664377671924,0.15722656,0.2890625,0.8886719,0.0,0.03125,-0.25,0.0,0.0,0.0
1664377671964,0.15527344,0.28710938,0.89941406,0.0,-0.15625,-0.25,0.0,0.0,0.0
1664377671964,0.15527344,0.28710938,0.89941406,0.0,-0.15625,-0.25,0.0,0.0,0.0
1664377672006,0.16894531,0.2939453,0.88671875,0.0625,0.28125,-0.1875,0.0,0.0,0.0
1664377672005,0.16894531,0.2939453,0.88671875,0.0625,0.28125,-0.1875,0.0,0.0,0.0
1664377672045,0.16113281,0.27929688,0.89160156,0.0,0.09375,-0.0625,0.0,0.0,0.0
1664377672045,0.16113281,0.27929688,0.89160156,0.0,0.09375,-0.0625,0.0,0.0,0.0
1664377672083,0.16601562,0.28808594,0.90722656,0.125,0.21875,0.0625,0.0,0.0,0.0
1664377672083,0.16601562,0.28808594,0.90722656,0.125,0.21875,0.0625,0.0,0.0,0.0
1664377672125,0.16796875,0.27539062,0.88964844,0.0625,0.625,-0.25,0.0,0.0,0.0
1664377672125,0.16796875,0.27539062,0.88964844,0.0625,0.625,-0.25,0.0,0.0,0.0
1664377672164,0.15625,0.28710938,0.88964844,0.0,0.75,-0.3125,-17.5625,19.25,-94.125
1664377672164,0.15625,0.28710938,0.88964844,0.0,0.75,-0.3125,-17.5625,19.25,-94.125
1664377672204,0.15234375,0.28808594,0.8876953,0.1875,-0.15625,0.0625,0.0,0.0,0.0
1664377672204,0.15234375,0.28808594,0.8876953,0.1875,-0.15625,0.0625,0.0,0.0,0.0
1664377672245,0.15625,0.29296875,0.890625,-0.0625,0.15625,-0.25,0.0,0.0,0.0
1664377672245,0.15625,0.29296875,0.890625,-0.0625,0.15625,-0.25,0.0,0.0,0.0
1664377672287,0.1640625,0.2998047,0.89746094,0.25,-0.03125,-0.0625,0.0,0.0,0.0
1664377672287,0.1640625,0.2998047,0.89746094,0.25,-0.03125,-0.0625,0.0,0.0,0.0
1664377672325,0.16308594,0.2841797,0.890625,0.0625,0.09375,0.0625,0.0,0.0,0.0
1664377672324,0.16308594,0.2841797,0.890625,0.0625,0.09375,0.0625,0.0,0.0,0.0
1664377672365,0.16699219,0.28125,0.8935547,0.0,-0.21875,0.25,0.0,0.0,0.0
1664377672367,0.16699219,0.28125,0.8935547,0.0,-0.21875,0.25,0.0,0.0,0.0
1664377672405,0.15332031,0.2861328,0.8964844,0.1875,0.21875,0.0,0.0,0.0,0.0
1664377672405,0.15332031,0.2861328,0.8964844,0.1875,0.21875,0.0,0.0,0.0,0.0
1664377672444,0.16894531,0.28515625,0.89941406,0.3125,0.09375,-0.125,0.0,0.0,0.0
1664377672444,0.16894531,0.28515625,0.89941406,0.3125,0.09375,-0.125,0.0,0.0,0.0
1664377672484,0.16113281,0.2841797,0.89453125,0.125,0.03125,0.0625,0.0,0.0,0.0
1664377672484,0.16113281,0.2841797,0.89453125,0.125,0.03125,0.0625,0.0,0.0,0.0
1664377672525,0.16113281,0.2890625,0.90234375,0.0,-0.09375,0.125,0.0,0.0,0.0
1664377672525,0.16113281,0.2890625,0.90234375,0.0,-0.09375,0.125,0.0,0.0,0.0
1664377672565,0.16992188,0.28515625,0.8876953,0.0625,0.3125,0.0625,0.0,0.0,0.0
1664377672564,0.16992188,0.28515625,0.8876953,0.0625,0.3125,0.0625,0.0,0.0,0.0
1664377672607,0.1640625,0.2890625,0.8798828,0.0625,0.09375,-0.125,0.0,0.0,0.0
1664377672607,0.1640625,0.2890625,0.8798828,0.0625,0.09375,-0.125,0.0,0.0,0.0
1664377672646,0.15039062,0.29101562,0.88964844,0.125,-0.21875,0.0,-19.1875,18.0625,-93.9375
1664377672647,0.15039062,0.29101562,0.88964844,0.125,-0.21875,0.0,-19.1875,18.0625,-93.9375
1664377672684,0.15722656,0.29101562,0.8935547,0.0,-0.15625,0.25,0.0,0.0,0.0
1664377672684,0.15722656,0.29101562,0.8935547,0.0,-0.15625,0.25,0.0,0.0,0.0
1664377672725,0.15917969,0.28808594,0.9013672,0.0,-0.15625,0.375,0.0,0.0,0.0
1664377672725,0.15917969,0.28808594,0.9013672,0.0,-0.15625,0.375,0.0,0.0,0.0
1664377672763,0.15722656,0.28125,0.88964844,0.125,0.03125,0.40625,0.0,0.0,0.0
1664377672764,0.15722656,0.28125,0.88964844,0.125,0.03125,0.40625,0.0,0.0,0.0
1664377672805,0.16503906,0.29296875,0.8925781,0.0625,-0.53125,0.71875,0.0,0.0,0.0
1664377672805,0.16503906,0.29296875,0.8925781,0.0625,-0.53125,0.71875,0.0,0.0,0.0
1664377672844,0.1640625,0.2890625,0.890625,0.25,-0.15625,0.59375,0.0,0.0,0.0
1664377672844,0.1640625,0.2890625,0.890625,0.25,-0.15625,0.59375,0.0,0.0,0.0
1664377672884,0.15429688,0.28515625,0.89746094,0.0625,0.375,0.125,0.0,0.0,0.0
1664377672884,0.15429688,0.28515625,0.89746094,0.0625,0.375,0.125,0.0,0.0,0.0
1664377672925,0.15527344,0.28710938,0.8935547,0.25,0.09375,0.1875,0.0,0.0,0.0
1664377672925,0.15527344,0.28710938,0.8935547,0.25,0.09375,0.1875,0.0,0.0,0.0
1664377672965,0.15429688,0.29101562,0.89160156,0.0625,-0.09375,0.40625,0.0,0.0,0.0
1664377672964,0.15429688,0.29101562,0.89160156,0.0625,-0.09375,0.40625,0.0,0.0,0.0
1664377673005,0.16699219,0.2890625,0.89453125,0.0625,-0.34375,0.40625,0.0,0.0,0.0
1664377673004,0.16699219,0.2890625,0.89453125,0.0625,-0.34375,0.40625,0.0,0.0,0.0
1664377673044,0.15722656,0.28808594,0.87890625,0.46875,-0.78125,0.25,0.0,0.0,0.0
1664377673046,0.15722656,0.28808594,0.87890625,0.46875,-0.78125,0.25,0.0,0.0,0.0
1664377673084,0.16699219,0.28515625,0.89160156,0.3125,-0.46875,0.125,0.0,0.0,0.0
1664377673084,0.16699219,0.28515625,0.89160156,0.3125,-0.46875,0.125,0.0,0.0,0.0
1664377673124,0.16503906,0.2841797,0.9042969,0.3125,-0.78125,0.375,0.0,0.0,0.0
1664377673124,0.16503906,0.2841797,0.9042969,0.3125,-0.78125,0.375,0.0,0.0,0.0
1664377673163,0.15917969,0.2890625,0.9082031,0.375,0.09375,0.0,-18.3125,19.6875,-94.6875
1664377673164,0.15917969,0.2890625,0.9082031,0.375,0.09375,0.0,-18.3125,19.6875,-94.6875
1664377673205,0.16503906,0.2841797,0.890625,0.125,-0.15625,0.3125,0.0,0.0,0.0
1664377673205,0.16503906,0.2841797,0.890625,0.125,-0.15625,0.3125,0.0,0.0,0.0
1664377673248,0.15917969,0.29296875,0.9003906,0.125,-0.28125,0.53125,0.0,0.0,0.0
1664377673248,0.15917969,0.29296875,0.9003906,0.125,-0.28125,0.53125,0.0,0.0,0.0
1664377673285,0.16503906,0.2919922,0.89746094,0.125,-0.34375,0.375,0.0,0.0,0.0
1664377673285,0.16503906,0.2919922,0.89746094,0.125,-0.34375,0.375,0.0,0.0,0.0
1664377673325,0.16210938,0.28808594,0.8984375,0.0,-0.28125,0.3125,0.0,0.0,0.0
1664377673325,0.16210938,0.28808594,0.8984375,0.0,-0.28125,0.3125,0.0,0.0,0.0
1664377673364,0.16699219,0.2841797,0.8964844,0.125,-0.40625,0.40625,0.0,0.0,0.0
1664377673364,0.16699219,0.2841797,0.8964844,0.125,-0.40625,0.40625,0.0,0.0,0.0
1664377673404,0.16699219,0.27929688,0.9082031,0.125,-0.09375,0.0625,0.0,0.0,0.0
1664377673404,0.16699219,0.27929688,0.9082031,0.125,-0.09375,0.0625,0.0,0.0,0.0
1664377673445,0.16015625,0.2861328,0.89746094,0.375,-0.09375,0.25,0.0,0.0,0.0
1664377673445,0.16015625,0.2861328,0.89746094,0.375,-0.09375,0.25,0.0,0.0,0.0
1664377673484,0.16601562,0.29296875,0.89746094,0.1875,-0.34375,0.3125,0.0,0.0,0.0
1664377673484,0.16601562,0.29296875,0.89746094,0.1875,-0.34375,0.3125,0.0,0.0,0.0
1664377673525,0.16601562,0.29589844,0.8925781,0.125,-0.21875,0.1875,0.0,0.0,0.0
1664377673526,0.16601562,0.29589844,0.8925781,0.125,-0.21875,0.1875,0.0,0.0,0.0
1664377673565,0.16796875,0.29589844,0.8828125,0.1875,-0.21875,0.40625,0.0,0.0,0.0
1664377673566,0.16796875,0.29589844,0.8828125,0.1875,-0.21875,0.40625,0.0,0.0,0.0
1664377673605,0.16699219,0.29101562,0.9013672,-0.125,-0.21875,0.25,0.0,0.0,0.0
1664377673605,0.16699219,0.29101562,0.9013672,-0.125,-0.21875,0.25,0.0,0.0,0.0
1664377673644,0.18066406,0.29101562,0.8857422,0.375,-0.34375,0.40625,-16.9375,18.8125,-93.5
1664377673646,0.18066406,0.29101562,0.8857422,0.375,-0.34375,0.40625,-16.9375,18.8125,-93.5
1664377673685,0.17675781,0.29003906,0.88671875,-0.125,0.3125,0.125,0.0,0.0,0.0
1664377673685,0.17675781,0.29003906,0.88671875,-0.125,0.3125,0.125,0.0,0.0,0.0
1664377673725,0.16210938,0.29003906,0.89160156,0.125,0.03125,0.25,0.0,0.0,0.0
1664377673725,0.16210938,0.29003906,0.89160156,0.125,0.03125,0.25,0.0,0.0,0.0
1664377673764,0.16894531,0.28027344,0.89453125,0.1875,-0.28125,0.25,0.0,0.0,0.0
1664377673765,0.16894531,0.28027344,0.89453125,0.1875,-0.28125,0.25,0.0,0.0,0.0
1664377673803,0.16796875,0.2919922,0.8984375,0.125,-0.09375,0.125,0.0,0.0,0.0
1664377673804,0.16796875,0.2919922,0.8984375,0.125,-0.09375,0.125,0.0,0.0,0.0
1664377673846,0.15917969,0.28027344,0.8925781,0.3125,-0.28125,0.1875,0.0,0.0,0.0
1664377673846,0.15917969,0.28027344,0.8925781,0.3125,-0.28125,0.1875,0.0,0.0,0.0
1664377673884,0.17480469,0.29101562,0.88671875,0.1875,-0.34375,0.3125,0.0,0.0,0.0
1664377673888,0.17480469,0.29101562,0.88671875,0.1875,-0.34375,0.3125,0.0,0.0,0.0
1664377673924,0.1640625,0.2861328,0.8925781,0.25,-0.71875,0.40625,0.0,0.0,0.0
1664377673924,0.1640625,0.2861328,0.8925781,0.25,-0.71875,0.40625,0.0,0.0,0.0
1664377673964,0.16894531,0.29296875,0.8964844,0.1875,-0.03125,0.125,0.0,0.0,0.0
1664377673964,0.16894531,0.29296875,0.8964844,0.1875,-0.03125,0.125,0.0,0.0,0.0
1664377674003,0.1796875,0.28710938,0.8798828,0.1875,-0.09375,0.0625,0.0,0.0,0.0
1664377674004,0.1796875,0.28710938,0.8798828,0.1875,-0.09375,0.0625,0.0,0.0,0.0
1664377674044,0.16015625,0.28515625,0.890625,0.3125,0.09375,0.0625,0.0,0.0,0.0
1664377674044,0.16015625,0.28515625,0.890625,0.3125,0.09375,0.0625,0.0,0.0,0.0
1664377674084,0.16699219,0.29003906,0.8828125,0.4375,0.03125,0.1875,0.0,0.0,0.0
1664377674084,0.16699219,0.29003906,0.8828125,0.4375,0.03125,0.1875,0.0,0.0,0.0
1664377674124,0.16601562,0.28808594,0.89160156,0.3125,0.28125,0.375,0.0,0.0,0.0
1664377674125,0.16601562,0.28808594,0.89160156,0.3125,0.28125,0.375,0.0,0.0,0.0
1664377674164,0.16992188,0.28222656,0.89746094,0.1875,0.15625,0.1875,-16.1875,18.0625,-93.5
1664377674164,0.16992188,0.28222656,0.89746094,0.1875,0.15625,0.1875,-16.1875,18.0625,-93.5
1664377674204,0.16308594,0.29101562,0.8876953,0.0625,-0.15625,0.125,0.0,0.0,0.0
1664377674204,0.16308594,0.29101562,0.8876953,0.0625,-0.15625,0.125,0.0,0.0,0.0
1664377674244,0.17578125,0.296875,0.8808594,-0.125,-0.40625,-0.25,0.0,0.0,0.0
1664377674243,0.17578125,0.296875,0.8808594,-0.125,-0.40625,-0.25,0.0,0.0,0.0
1664377674284,0.1640625,0.28710938,0.8886719,0.0625,-0.09375,-0.125,0.0,0.0,0.0
1664377674284,0.1640625,0.28710938,0.8886719,0.0625,-0.09375,-0.125,0.0,0.0,0.0
1664377674324,0.17285156,0.28710938,0.8886719,0.1875,0.09375,0.125,0.0,0.0,0.0
1664377674325,0.17285156,0.28710938,0.8886719,0.1875,0.09375,0.125,0.0,0.0,0.0
1664377674364,0.16992188,0.2861328,0.890625,-0.1875,-0.03125,0.0625,0.0,0.0,0.0
1664377674364,0.16992188,0.2861328,0.890625,-0.1875,-0.03125,0.0625,0.0,0.0,0.0
1664377674405,0.17285156,0.2861328,0.8984375,0.375,0.15625,-0.125,0.0,0.0,0.0
1664377674405,0.17285156,0.2861328,0.8984375,0.375,0.15625,-0.125,0.0,0.0,0.0
1664377674446,0.16796875,0.29101562,0.89746094,-0.125,0.28125,0.0625,0.0,0.0,0.0
1664377674446,0.16796875,0.29101562,0.89746094,-0.125,0.28125,0.0625,0.0,0.0,0.0
1664377674484,0.1640625,0.29492188,0.8984375,-0.25,0.375,-0.3125,0.0,0.0,0.0
1664377674488,0.1640625,0.29492188,0.8984375,-0.25,0.375,-0.3125,0.0,0.0,0.0
1664377674524,0.17675781,0.29296875,0.8984375,0.0,0.03125,-0.3125,0.0,0.0,0.0
1664377674524,0.17675781,0.29296875,0.8984375,0.0,0.03125,-0.3125,0.0,0.0,0.0
1664377674564,0.15820312,0.2841797,0.89746094,-0.125,-0.09375,-0.25,0.0,0.0,0.0
1664377674564,0.15820312,0.2841797,0.89746094,-0.125,-0.09375,-0.25,0.0,0.0,0.0
1664377674604,0.15820312,0.29003906,0.88671875,-0.1875,0.03125,-0.1875,0.0,0.0,0.0
1664377674604,0.15820312,0.29003906,0.88671875,-0.1875,0.03125,-0.1875,0.0,0.0,0.0
1664377674644,0.17480469,0.28808594,0.89453125,-0.0625,0.09375,-0.25,-17.125,18.5,-93.625
1664377674644,0.17480469,0.28808594,0.89453125,-0.0625,0.09375,-0.25,-17.125,18.5,-93.625
1664377674684,0.1796875,0.28515625,0.9013672,0.1875,-0.21875,0.0625,0.0,0.0,0.0
1664377674684,0.1796875,0.28515625,0.9013672,0.1875,-0.21875,0.0625,0.0,0.0,0.0
1664377674724,0.16015625,0.2861328,0.88378906,-0.0625,0.28125,-0.375,0.0,0.0,0.0
1664377674724,0.16015625,0.2861328,0.88378906,-0.0625,0.28125,-0.375,0.0,0.0,0.0
1664377674764,0.16308594,0.29589844,0.90234375,0.0,0.09375,-0.3125,0.0,0.0,0.0
1664377674764,0.16308594,0.29589844,0.90234375,0.0,0.09375,-0.3125,0.0,0.0,0.0
1664377674805,0.17480469,0.28515625,0.89160156,0.0,0.03125,-0.375,0.0,0.0,0.0
1664377674806,0.17480469,0.28515625,0.89160156,0.0,0.03125,-0.375,0.0,0.0,0.0
1664377674843,0.16113281,0.29492188,0.8955078,0.0625,0.28125,-0.4375,0.0,0.0,0.0
1664377674846,0.16113281,0.29492188,0.8955078,0.0625,0.28125,-0.4375,0.0,0.0,0.0
1664377674885,0.16503906,0.28125,0.89160156,0.0625,0.09375,-0.4375,0.0,0.0,0.0
1664377674885,0.16503906,0.28125,0.89160156,0.0625,0.09375,-0.4375,0.0,0.0,0.0
1664377674924,0.16503906,0.2919922,0.8925781,0.125,0.21875,-0.1875,0.0,0.0,0.0
1664377674924,0.16503906,0.2919922,0.8925781,0.125,0.21875,-0.1875,0.0,0.0,0.0
1664377674963,0.16796875,0.2890625,0.8847656,-0.0625,0.28125,-0.4375,0.0,0.0,0.0
1664377674964,0.16796875,0.2890625,0.8847656,-0.0625,0.28125,-0.4375,0.0,0.0,0.0
1664377675006,0.16894531,0.28710938,0.8964844,-0.0625,0.09375,-0.375,0.0,0.0,0.0
1664377675006,0.16894531,0.28710938,0.8964844,-0.0625,0.09375,-0.375,0.0,0.0,0.0
1664377675045,0.16503906,0.2861328,0.8876953,0.0,0.09375,-0.25,0.0,0.0,0.0
1664377675045,0.16503906,0.2861328,0.8876953,0.0,0.09375,-0.25,0.0,0.0,0.0
1664377675084,0.16796875,0.29785156,0.89453125,0.0,0.15625,-0.0625,0.0,0.0,0.0
1664377675086,0.16796875,0.29785156,0.89453125,0.0,0.15625,-0.0625,0.0,0.0,0.0
1664377675405,0.16699219,0.2841797,0.8964844,-0.0625,0.09375,-0.1875,-18.4375,18.8125,-93.5
1664377675404,0.16699219,0.2841797,0.8964844,-0.0625,0.09375,-0.1875,-18.4375,18.8125,-93.5
1664377675407,0.16796875,0.29296875,0.8984375,0.0625,0.28125,-0.125,0.0,0.0,0.0
1664377675407,0.16796875,0.29296875,0.8984375,0.0625,0.28125,-0.125,0.0,0.0,0.0
1664377675409,0.16699219,0.29492188,0.8955078,-0.25,0.5625,-0.3125,0.0,0.0,0.0
1664377675410,0.16699219,0.29492188,0.8955078,-0.25,0.5625,-0.3125,0.0,0.0,0.0
1664377675411,0.16503906,0.28125,0.890625,-0.125,0.8125,-0.4375,0.0,0.0,0.0
1664377675412,0.16503906,0.28125,0.890625,-0.125,0.8125,-0.4375,0.0,0.0,0.0
1664377675413,0.16796875,0.296875,0.8847656,0.375,0.375,-0.4375,0.0,0.0,0.0
1664377675414,0.16796875,0.296875,0.8847656,0.375,0.375,-0.4375,0.0,0.0,0.0
1664377675414,0.16113281,0.2939453,0.90722656,0.0625,0.28125,-0.375,0.0,0.0,0.0
1664377675415,0.16113281,0.2939453,0.90722656,0.0625,0.28125,-0.375,0.0,0.0,0.0
1664377675423,0.16601562,0.28222656,0.8935547,0.25,0.28125,-0.4375,0.0,0.0,0.0
1664377675424,0.16601562,0.28222656,0.8935547,0.25,0.28125,-0.4375,0.0,0.0,0.0
1664377675425,0.16894531,0.2919922,0.8876953,-0.125,0.03125,-0.125,0.0,0.0,0.0
1664377675425,0.16894531,0.2919922,0.8876953,-0.125,0.03125,-0.125,0.0,0.0,0.0
1664377675444,0.16601562,0.29003906,0.8847656,0.0,0.03125,-0.0625,0.0,0.0,0.0
1664377675444,0.16601562,0.29003906,0.8847656,0.0,0.03125,-0.0625,0.0,0.0,0.0
1664377675484,0.15917969,0.2783203,0.8876953,-0.125,-0.03125,0.125,0.0,0.0,0.0
1664377675484,0.15917969,0.2783203,0.8876953,-0.125,-0.03125,0.125,0.0,0.0,0.0
1664377675523,0.16699219,0.29589844,0.88964844,-0.125,0.15625,-0.1875,0.0,0.0,0.0
1664377675523,0.16699219,0.29589844,0.88964844,-0.125,0.15625,-0.1875,0.0,0.0,0.0
1664377675565,0.16894531,0.29589844,0.89453125,0.0,0.21875,-0.0625,0.0,0.0,0.0
1664377675565,0.16894531,0.29589844,0.89453125,0.0,0.21875,-0.0625,0.0,0.0,0.0
1664377675605,0.16113281,0.2841797,0.89453125,0.0625,0.09375,-0.0625,0.0,0.0,0.0
1664377675605,0.16113281,0.2841797,0.89453125,0.0625,0.09375,-0.0625,0.0,0.0,0.0
1664377675647,0.15722656,0.29003906,0.88378906,-0.1875,0.15625,-0.25,-16.8125,17.125,-93.625
1664377675647,0.15722656,0.29003906,0.88378906,-0.1875,0.15625,-0.25,-16.8125,17.125,-93.625
1664377675684,0.16699219,0.28027344,0.8925781,0.0,0.28125,-0.125,0.0,0.0,0.0
1664377675686,0.16699219,0.28027344,0.8925781,0.0,0.28125,-0.125,0.0,0.0,0.0
1664377675764,0.16308594,0.2841797,0.890625,0.0,-0.03125,-0.25,0.0,0.0,0.0
1664377675765,0.16308594,0.2841797,0.890625,0.0,-0.03125,-0.25,0.0,0.0,0.0
1664377675765,0.15625,0.28808594,0.89941406,-0.125,0.3125,-0.25,0.0,0.0,0.0
1664377675767,0.15625,0.28808594,0.89941406,-0.125,0.3125,-0.25,0.0,0.0,0.0
1664377675805,0.16796875,0.2919922,0.8847656,0.0,-0.09375,-0.125,0.0,0.0,0.0
1664377675804,0.16796875,0.2919922,0.8847656,0.0,-0.09375,-0.125,0.0,0.0,0.0
1664377675845,0.16308594,0.2919922,0.89453125,-0.1875,-0.03125,-0.0625,0.0,0.0,0.0
1664377675845,0.16308594,0.2919922,0.89453125,-0.1875,-0.03125,-0.0625,0.0,0.0,0.0
1664377675884,0.16699219,0.28808594,0.89453125,0.0625,0.15625,0.0,0.0,0.0,0.0
1664377675884,0.16699219,0.28808594,0.89453125,0.0625,0.15625,0.0,0.0,0.0,0.0
1664377675926,0.16503906,0.29296875,0.8925781,-0.125,0.03125,0.25,0.0,0.0,0.0
1664377675927,0.16503906,0.29296875,0.8925781,-0.125,0.03125,0.25,0.0,0.0,0.0
1664377676005,0.16015625,0.28320312,0.9013672,-0.25,0.5,-0.0625,0.0,0.0,0.0
1664377676005,0.16015625,0.28320312,0.9013672,-0.25,0.5,-0.0625,0.0,0.0,0.0
1664377676006,0.16308594,0.28027344,0.8984375,-0.0625,0.375,-0.375,0.0,0.0,0.0
1664377676007,0.16308594,0.28027344,0.8984375,-0.0625,0.375,-0.375,0.0,0.0,0.0
1664377676086,0.16699219,0.28515625,0.9013672,0.3125,0.15625,-0.125,0.0,0.0,0.0
1664377676086,0.16699219,0.28515625,0.9013672,0.3125,0.15625,-0.125,0.0,0.0,0.0
1664377676088,0.15820312,0.28125,0.88378906,-0.0625,0.15625,-0.0625,0.0,0.0,0.0
1664377676089,0.15820312,0.28125,0.88378906,-0.0625,0.15625,-0.0625,0.0,0.0,0.0
1664377676204,0.16113281,0.2998047,0.8964844,0.0,-0.09375,0.0,-18.3125,16.375,-94.375
1664377676204,0.16113281,0.2998047,0.8964844,0.0,-0.09375,0.0,-18.3125,16.375,-94.375
1664377676206,0.15625,0.28710938,0.8808594,0.0,0.03125,-0.0625,0.0,0.0,0.0
1664377676207,0.16015625,0.29101562,0.8935547,-0.0625,-0.21875,0.0,0.0,0.0,0.0
1664377676207,0.15625,0.28710938,0.8808594,0.0,0.03125,-0.0625,0.0,0.0,0.0
1664377676209,0.16015625,0.29101562,0.8935547,-0.0625,-0.21875,0.0,0.0,0.0,0.0
1664377676247,0.15429688,0.2861328,0.90722656,0.125,0.09375,-0.125,0.0,0.0,0.0
1664377676247,0.15429688,0.2861328,0.90722656,0.125,0.09375,-0.125,0.0,0.0,0.0
1664377676284,0.16015625,0.28515625,0.8828125,0.0625,-0.09375,-0.0625,0.0,0.0,0.0
1664377676284,0.16015625,0.28515625,0.8828125,0.0625,-0.09375,-0.0625,0.0,0.0,0.0
1664377676324,0.15429688,0.28710938,0.8925781,-0.1875,-0.03125,-0.125,0.0,0.0,0.0
1664377676324,0.15429688,0.28710938,0.8925781,-0.1875,-0.03125,-0.125,0.0,0.0,0.0
1664377676364,0.16113281,0.2861328,0.89941406,0.0625,0.15625,0.0625,0.0,0.0,0.0
1664377676364,0.16113281,0.2861328,0.89941406,0.0625,0.15625,0.0625,0.0,0.0,0.0
1664377676404,0.15429688,0.2841797,0.8925781,0.0,-0.09375,0.0625,0.0,0.0,0.0
1664377676405,0.15429688,0.2841797,0.8925781,0.0,-0.09375,0.0625,0.0,0.0,0.0
1664377676444,0.15625,0.29101562,0.8925781,0.0625,0.21875,-0.0625,0.0,0.0,0.0
1664377676444,0.15625,0.29101562,0.8925781,0.0625,0.21875,-0.0625,0.0,0.0,0.0
1664377676484,0.16308594,0.2783203,0.890625,0.0625,-0.09375,-0.0625,0.0,0.0,0.0
1664377676484,0.16308594,0.2783203,0.890625,0.0625,-0.09375,-0.0625,0.0,0.0,0.0
1664377676524,0.15527344,0.2861328,0.89941406,0.0,-0.03125,0.0,0.0,0.0,0.0
1664377676525,0.15527344,0.2861328,0.89941406,0.0,-0.03125,0.0,0.0,0.0,0.0
1664377676567,0.15429688,0.2861328,0.8955078,0.1875,0.03125,0.0,0.0,0.0,0.0
1664377676567,0.15429688,0.2861328,0.8955078,0.1875,0.03125,0.0,0.0,0.0,0.0
1664377676606,0.16308594,0.28710938,0.8964844,0.0625,0.09375,0.0625,0.0,0.0,0.0
1664377676606,0.16308594,0.28710938,0.8964844,0.0625,0.09375,0.0625,0.0,0.0,0.0
1664377676644,0.15722656,0.2861328,0.8925781,0.125,-0.15625,0.3125,-16.8125,17.875,-93.625
1664377676646,0.15722656,0.2861328,0.8925781,0.125,-0.15625,0.3125,-16.8125,17.875,-93.625
1664377676685,0.16894531,0.27734375,0.8886719,-0.0625,0.03125,0.1875,0.0,0.0,0.0
1664377676685,0.16894531,0.27734375,0.8886719,-0.0625,0.03125,0.1875,0.0,0.0,0.0
1664377676724,0.15722656,0.29296875,0.8935547,0.0625,0.28125,-0.0625,0.0,0.0,0.0
1664377676724,0.15722656,0.29296875,0.8935547,0.0625,0.28125,-0.0625,0.0,0.0,0.0
1664377676764,0.15625,0.28222656,0.89453125,0.0625,0.375,-0.25,0.0,0.0,0.0
1664377676768,0.15625,0.28222656,0.89453125,0.0625,0.375,-0.25,0.0,0.0,0.0
1664377676805,0.1640625,0.28125,0.8847656,0.25,-0.03125,0.1875,0.0,0.0,0.0
1664377676805,0.1640625,0.28125,0.8847656,0.25,-0.03125,0.1875,0.0,0.0,0.0
1664377676845,0.15917969,0.28808594,0.8886719,0.0,-0.03125,0.25,0.0,0.0,0.0
1664377676844,0.15917969,0.28808594,0.8886719,0.0,-0.03125,0.25,0.0,0.0,0.0
1664377676883,0.1640625,0.2998047,0.89941406,0.125,-0.28125,0.1875,0.0,0.0,0.0
1664377676883,0.1640625,0.2998047,0.89941406,0.125,-0.28125,0.1875,0.0,0.0,0.0
1664377676924,0.16699219,0.2783203,0.88183594,0.25,-0.46875,0.375,0.0,0.0,0.0
1664377676924,0.16699219,0.2783203,0.88183594,0.25,-0.46875,0.375,0.0,0.0,0.0
1664377676964,0.16992188,0.29003906,0.89453125,0.1875,-0.03125,0.40625,0.0,0.0,0.0
1664377676964,0.16992188,0.29003906,0.89453125,0.1875,-0.03125,0.40625,0.0,0.0,0.0
1664377677003,0.16308594,0.28710938,0.8955078,-0.125,-0.09375,0.40625,0.0,0.0,0.0
1664377677003,0.16308594,0.28710938,0.8955078,-0.125,-0.09375,0.40625,0.0,0.0,0.0
1664377677044,0.15820312,0.28027344,0.890625,0.1875,0.21875,0.3125,0.0,0.0,0.0
1664377677044,0.15820312,0.28027344,0.890625,0.1875,0.21875,0.3125,0.0,0.0,0.0
1664377677084,0.17480469,0.2890625,0.8935547,0.0625,-0.21875,0.375,0.0,0.0,0.0
1664377677084,0.17480469,0.2890625,0.8935547,0.0625,-0.21875,0.375,0.0,0.0,0.0
1664377677124,0.16113281,0.28808594,0.88183594,0.125,0.09375,0.25,0.0,0.0,0.0
1664377677124,0.16113281,0.28808594,0.88183594,0.125,0.09375,0.25,0.0,0.0,0.0
1664377677165,0.15429688,0.28808594,0.8857422,0.125,-0.09375,0.40625,-16.1875,18.3125,-92.4375
1664377677165,0.15429688,0.28808594,0.8857422,0.125,-0.09375,0.40625,-16.1875,18.3125,-92.4375
1664377677204,0.1640625,0.28710938,0.89746094,0.0,-0.40625,0.3125,0.0,0.0,0.0
1664377677204,0.1640625,0.28710938,0.89746094,0.0,-0.40625,0.3125,0.0,0.0,0.0
1664377677245,0.15820312,0.28808594,0.89453125,0.1875,-0.09375,0.25,0.0,0.0,0.0
1664377677245,0.15820312,0.28808594,0.89453125,0.1875,-0.09375,0.25,0.0,0.0,0.0
1664377677283,0.16113281,0.2890625,0.90234375,0.1875,-0.28125,0.40625,0.0,0.0,0.0
1664377677284,0.16113281,0.2890625,0.90234375,0.1875,-0.28125,0.40625,0.0,0.0,0.0
1664377677325,0.1640625,0.28710938,0.90234375,0.0625,-0.09375,0.375,0.0,0.0,0.0
1664377677325,0.1640625,0.28710938,0.90234375,0.0625,-0.09375,0.375,0.0,0.0,0.0
1664377677363,0.17089844,0.28710938,0.8828125,0.125,-0.34375,0.3125,0.0,0.0,0.0
1664377677364,0.17089844,0.28710938,0.8828125,0.125,-0.34375,0.3125,0.0,0.0,0.0
1664377677405,0.16699219,0.28710938,0.8964844,0.0,-0.09375,0.40625,0.0,0.0,0.0
1664377677404,0.16699219,0.28710938,0.8964844,0.0,-0.09375,0.40625,0.0,0.0,0.0
1664377677444,0.16601562,0.29003906,0.8964844,0.125,-0.28125,0.40625,0.0,0.0,0.0
1664377677444,0.16601562,0.29003906,0.8964844,0.125,-0.28125,0.40625,0.0,0.0,0.0
1664377677484,0.16113281,0.2890625,0.8955078,0.375,-0.28125,0.375,0.0,0.0,0.0
1664377677484,0.16113281,0.2890625,0.8955078,0.375,-0.28125,0.375,0.0,0.0,0.0
1664377677524,0.15820312,0.2939453,0.88378906,0.0625,0.21875,0.0,0.0,0.0,0.0
1664377677524,0.15820312,0.2939453,0.88378906,0.0625,0.21875,0.0,0.0,0.0,0.0
1664377677565,0.16015625,0.2861328,0.8847656,0.125,-0.21875,0.53125,0.0,0.0,0.0
1664377677565,0.16015625,0.2861328,0.8847656,0.125,-0.21875,0.53125,0.0,0.0,0.0
1664377677604,0.15039062,0.2861328,0.8935547,0.1875,-0.15625,0.1875,0.0,0.0,0.0
1664377677604,0.15039062,0.2861328,0.8935547,0.1875,-0.15625,0.1875,0.0,0.0,0.0
1664377677644,0.16113281,0.28515625,0.8886719,0.1875,-0.34375,0.40625,-16.1875,17.3125,-95.0
1664377677644,0.16113281,0.28515625,0.8886719,0.1875,-0.34375,0.40625,-16.1875,17.3125,-95.0
1664377677684,0.15722656,0.2861328,0.9042969,0.0,-0.28125,0.1875,0.0,0.0,0.0
1664377677685,0.15722656,0.2861328,0.9042969,0.0,-0.28125,0.1875,0.0,0.0,0.0
1664377677724,0.1640625,0.29492188,0.8847656,0.125,-0.40625,0.40625,0.0,0.0,0.0
1664377677724,0.1640625,0.29492188,0.8847656,0.125,-0.40625,0.40625,0.0,0.0,0.0
1664377677764,0.16992188,0.2890625,0.9013672,0.25,-0.46875,0.375,0.0,0.0,0.0
1664377677764,0.16992188,0.2890625,0.9013672,0.25,-0.46875,0.375,0.0,0.0,0.0
1664377677824,0.16113281,0.29296875,0.88378906,0.1875,-0.15625,0.25,0.0,0.0,0.0
1664377677824,0.16113281,0.29296875,0.88378906,0.1875,-0.15625,0.25,0.0,0.0,0.0
1664377677843,0.16503906,0.29003906,0.8935547,0.125,-0.28125,0.25,0.0,0.0,0.0
1664377677843,0.16503906,0.29003906,0.8935547,0.125,-0.28125,0.25,0.0,0.0,0.0
1664377677905,0.15527344,0.29003906,0.8935547,0.0,-0.40625,0.53125,0.0,0.0,0.0
1664377677905,0.15527344,0.29003906,0.8935547,0.0,-0.40625,0.53125,0.0,0.0,0.0
1664377677923,0.15820312,0.28125,0.90527344,0.1875,-0.28125,0.1875,0.0,0.0,0.0
1664377677924,0.15820312,0.28125,0.90527344,0.1875,-0.28125,0.1875,0.0,0.0,0.0
1664377677964,0.16992188,0.29003906,0.8984375,0.125,-0.21875,0.25,0.0,0.0,0.0
1664377677966,0.16992188,0.29003906,0.8984375,0.125,-0.21875,0.25,0.0,0.0,0.0
1664377678004,0.16699219,0.29003906,0.8964844,0.1875,-0.40625,0.3125,0.0,0.0,0.0
1664377678004,0.16699219,0.29003906,0.8964844,0.1875,-0.40625,0.3125,0.0,0.0,0.0
1664377678044,0.16210938,0.27734375,0.89746094,0.125,-0.34375,0.3125,0.0,0.0,0.0
1664377678044,0.16210938,0.27734375,0.89746094,0.125,-0.34375,0.3125,0.0,0.0,0.0
1664377678084,0.1640625,0.29101562,0.8984375,0.0625,-0.34375,0.125,0.0,0.0,0.0
1664377678084,0.1640625,0.29101562,0.8984375,0.0625,-0.34375,0.125,0.0,0.0,0.0
1664377678124,0.15917969,0.29296875,0.890625,0.375,-0.15625,0.25,0.0,0.0,0.0
1664377678124,0.15917969,0.29296875,0.890625,0.375,-0.15625,0.25,0.0,0.0,0.0
1664377678164,0.15625,0.2890625,0.8955078,0.0,-0.21875,0.375,-16.625,19.375,-93.9375
1664377678165,0.15625,0.2890625,0.8955078,0.0,-0.21875,0.375,-16.625,19.375,-93.9375
1664377678204,0.16503906,0.2763672,0.8847656,0.4375,-0.28125,0.375,0.0,0.0,0.0
1664377678204,0.16503906,0.2763672,0.8847656,0.4375,-0.28125,0.375,0.0,0.0,0.0
1664377678245,0.16308594,0.29785156,0.8925781,0.0,0.3125,0.0,0.0,0.0,0.0
1664377678245,0.16308594,0.29785156,0.8925781,0.0,0.3125,0.0,0.0,0.0,0.0
1664377678305,0.16601562,0.28320312,0.8964844,0.125,0.03125,0.0625,0.0,0.0,0.0
1664377678305,0.16601562,0.28320312,0.8964844,0.125,0.03125,0.0625,0.0,0.0,0.0
1664377678325,0.16601562,0.28515625,0.88378906,0.0625,-0.03125,0.125,0.0,0.0,0.0
1664377678324,0.16601562,0.28515625,0.88378906,0.0625,-0.03125,0.125,0.0,0.0,0.0
1664377678364,0.16503906,0.28710938,0.8955078,0.0625,-0.15625,0.1875,0.0,0.0,0.0
1664377678365,0.16503906,0.28710938,0.8955078,0.0625,-0.15625,0.1875,0.0,0.0,0.0
1664377678405,0.16113281,0.29296875,0.8876953,-0.0625,-0.15625,0.125,0.0,0.0,0.0
1664377678405,0.16113281,0.29296875,0.8876953,-0.0625,-0.15625,0.125,0.0,0.0,0.0
1664377678445,0.16308594,0.28515625,0.88671875,0.1875,-0.46875,0.125,0.0,0.0,0.0
1664377678445,0.16308594,0.28515625,0.88671875,0.1875,-0.46875,0.125,0.0,0.0,0.0
1664377678486,0.171875,0.29296875,0.9042969,0.0625,0.15625,0.1875,0.0,0.0,0.0
1664377678487,0.171875,0.29296875,0.9042969,0.0625,0.15625,0.1875,0.0,0.0,0.0
1664377678525,0.171875,0.29101562,0.87597656,0.0,-0.03125,0.0,0.0,0.0,0.0
1664377678525,0.171875,0.29101562,0.87597656,0.0,-0.03125,0.0,0.0,0.0,0.0
1664377678564,0.171875,0.28515625,0.8925781,0.0625,-0.03125,0.125,0.0,0.0,0.0
1664377678565,0.171875,0.28515625,0.8925781,0.0625,-0.03125,0.125,0.0,0.0,0.0
1664377678604,0.16113281,0.29296875,0.9033203,0.0,-0.09375,-0.1875,0.0,0.0,0.0
1664377678604,0.16113281,0.29296875,0.9033203,0.0,-0.09375,-0.1875,0.0,0.0,0.0
1664377678645,0.1640625,0.29589844,0.8828125,0.0,-0.03125,-0.125,-16.5,19.25,-95.125
1664377678645,0.1640625,0.29589844,0.8828125,0.0,-0.03125,-0.125,-16.5,19.25,-95.125
1664377678685,0.16601562,0.2861328,0.8798828,0.0625,-0.03125,-0.125,0.0,0.0,0.0
1664377678685,0.16601562,0.2861328,0.8798828,0.0625,-0.03125,-0.125,0.0,0.0,0.0
1664377678725,0.16894531,0.29589844,0.89160156,0.0,-0.03125,-0.25,0.0,0.0,0.0
1664377678725,0.16894531,0.29589844,0.89160156,0.0,-0.03125,-0.25,0.0,0.0,0.0
1664377678764,0.16894531,0.2861328,0.890625,-0.0625,-0.28125,-0.0625,0.0,0.0,0.0
1664377678764,0.16894531,0.2861328,0.890625,-0.0625,-0.28125,-0.0625,0.0,0.0,0.0
1664377678805,0.16601562,0.2890625,0.9013672,-0.125,-0.09375,-0.1875,0.0,0.0,0.0
1664377678807,0.16601562,0.2890625,0.9013672,-0.125,-0.09375,-0.1875,0.0,0.0,0.0
1664377678845,0.16113281,0.2890625,0.890625,-0.0625,0.09375,0.0,0.0,0.0,0.0
1664377678845,0.16113281,0.2890625,0.890625,-0.0625,0.09375,0.0,0.0,0.0,0.0
1664377678884,0.16503906,0.28125,0.9042969,0.0625,0.21875,-0.1875,0.0,0.0,0.0
1664377678884,0.16503906,0.28125,0.9042969,0.0625,0.21875,-0.1875,0.0,0.0,0.0
1664377678924,0.16210938,0.28320312,0.8779297,-0.0625,0.21875,0.0625,0.0,0.0,0.0
1664377678924,0.16210938,0.28320312,0.8779297,-0.0625,0.21875,0.0625,0.0,0.0,0.0
1664377678965,0.15625,0.2890625,0.8925781,-0.4375,0.5,-0.5625,0.0,0.0,0.0
1664377678965,0.15625,0.2890625,0.8925781,-0.4375,0.5,-0.5625,0.0,0.0,0.0
1664377679005,0.16308594,0.29296875,0.890625,0.0625,0.15625,-0.3125,0.0,0.0,0.0
1664377679004,0.16308594,0.29296875,0.890625,0.0625,0.15625,-0.3125,0.0,0.0,0.0
1664377679044,0.15820312,0.2890625,0.8857422,0.0,0.09375,-0.375,0.0,0.0,0.0
1664377679044,0.15820312,0.2890625,0.8857422,0.0,0.09375,-0.375,0.0,0.0,0.0
1664377679085,0.16503906,0.28710938,0.8857422,0.0,0.21875,-0.375,0.0,0.0,0.0
1664377679086,0.16503906,0.28710938,0.8857422,0.0,0.21875,-0.375,0.0,0.0,0.0
1664377679124,0.171875,0.28710938,0.8808594,-0.1875,0.15625,-0.4375,0.0,0.0,0.0
1664377679124,0.171875,0.28710938,0.8808594,-0.1875,0.15625,-0.4375,0.0,0.0,0.0
1664377679164,0.15722656,0.29589844,0.890625,0.25,-0.03125,-0.0625,-17.6875,18.8125,-95.0
1664377679164,0.15722656,0.29589844,0.890625,0.25,-0.03125,-0.0625,-17.6875,18.8125,-95.0
1664377679205,0.16699219,0.29003906,0.8857422,-0.125,0.09375,-0.125,0.0,0.0,0.0
1664377679204,0.16699219,0.29003906,0.8857422,-0.125,0.09375,-0.125,0.0,0.0,0.0
1664377679244,0.16308594,0.29003906,0.8984375,0.0625,0.28125,-0.5,0.0,0.0,0.0
1664377679244,0.16308594,0.29003906,0.8984375,0.0625,0.28125,-0.5,0.0,0.0,0.0
1664377679284,0.16699219,0.28710938,0.88671875,0.0,0.09375,-0.3125,0.0,0.0,0.0
1664377679284,0.16699219,0.28710938,0.88671875,0.0,0.09375,-0.3125,0.0,0.0,0.0
1664377679325,0.15820312,0.29296875,0.90527344,-0.0625,0.375,-0.4375,0.0,0.0,0.0
1664377679325,0.15820312,0.29296875,0.90527344,-0.0625,0.375,-0.4375,0.0,0.0,0.0
1664377679367,0.15429688,0.27734375,0.90234375,0.0,-0.21875,-0.125,0.0,0.0,0.0
1664377679367,0.15429688,0.27734375,0.90234375,0.0,-0.21875,-0.125,0.0,0.0,0.0
1664377679404,0.16699219,0.28222656,0.90625,-0.0625,0.15625,-0.25,0.0,0.0,0.0
1664377679404,0.16699219,0.28222656,0.90625,-0.0625,0.15625,-0.25,0.0,0.0,0.0
1664377679445,0.16015625,0.28515625,0.89453125,-0.125,0.09375,-0.1875,0.0,0.0,0.0
1664377679447,0.16015625,0.28515625,0.89453125,-0.125,0.09375,-0.1875,0.0,0.0,0.0
1664377679484,0.15917969,0.29003906,0.90234375,0.0,0.03125,-0.1875,0.0,0.0,0.0
1664377679484,0.15917969,0.29003906,0.90234375,0.0,0.03125,-0.1875,0.0,0.0,0.0
1664377679524,0.16601562,0.29296875,0.8925781,0.0,0.15625,-0.1875,0.0,0.0,0.0
1664377679524,0.16601562,0.29296875,0.8925781,0.0,0.15625,-0.1875,0.0,0.0,0.0
1664377679565,0.15722656,0.29296875,0.8847656,-0.0625,-0.09375,-0.0625,0.0,0.0,0.0
1664377679565,0.15722656,0.29296875,0.8847656,-0.0625,-0.09375,-0.0625,0.0,0.0,0.0
1664377679604,0.171875,0.28710938,0.89941406,0.0625,0.15625,0.0625,0.0,0.0,0.0
1664377679604,0.171875,0.28710938,0.89941406,0.0625,0.15625,0.0625,0.0,0.0,0.0
1664377679645,0.15527344,0.29003906,0.8798828,-0.125,0.25,-0.03125,-16.9375,18.0625,-93.9375
1664377679646,0.15527344,0.29003906,0.8798828,-0.125,0.25,-0.03125,-16.9375,18.0625,-93.9375
1664377679685,0.16601562,0.2841797,0.9003906,0.0,0.625,-0.28125,0.0,0.0,0.0
1664377679684,0.16601562,0.2841797,0.9003906,0.0,0.625,-0.28125,0.0,0.0,0.0
1664377679725,0.16113281,0.27734375,0.88378906,0.125,0.0,0.09375,0.0,0.0,0.0
1664377679725,0.16113281,0.27734375,0.88378906,0.125,0.0,0.09375,0.0,0.0,0.0
1664377679765,0.15820312,0.28808594,0.8876953,-0.0625,0.0,0.09375,0.0,0.0,0.0
1664377679765,0.15820312,0.28808594,0.8876953,-0.0625,0.0,0.09375,0.0,0.0,0.0
1664377679804,0.16210938,0.2841797,0.8955078,0.0,-0.09375,0.09375,0.0,0.0,0.0
1664377679804,0.16210938,0.2841797,0.8955078,0.0,-0.09375,0.09375,0.0,0.0,0.0
1664377679845,0.16308594,0.29003906,0.9003906,0.0,-0.15625,-0.09375,0.0,0.0,0.0
1664377679845,0.16308594,0.29003906,0.9003906,0.0,-0.15625,-0.09375,0.0,0.0,0.0
1664377679884,0.16015625,0.29003906,0.89746094,0.0,-0.21875,0.03125,0.0,0.0,0.0
1664377679884,0.16015625,0.29003906,0.89746094,0.0,-0.21875,0.03125,0.0,0.0,0.0
1664377679923,0.15527344,0.28808594,0.92089844,0.0625,0.0625,0.09375,0.0,0.0,0.0
1664377679923,0.15527344,0.28808594,0.92089844,0.0625,0.0625,0.09375,0.0,0.0,0.0
1664377679964,0.15429688,0.29003906,0.8935547,0.125,0.125,0.03125,0.0,0.0,0.0
1664377679964,0.15429688,0.29003906,0.8935547,0.125,0.125,0.03125,0.0,0.0,0.0
1664377680004,0.16015625,0.29003906,0.8857422,0.0625,0.0,-0.09375,0.0,0.0,0.0
1664377680004,0.16015625,0.29003906,0.8857422,0.0625,0.0,-0.09375,0.0,0.0,0.0
1664377680044,0.16015625,0.2861328,0.89746094,0.0625,0.125,-0.03125,0.0,0.0,0.0
1664377680044,0.16015625,0.2861328,0.89746094,0.0625,0.125,-0.03125,0.0,0.0,0.0
1664377680085,0.1640625,0.29003906,0.89160156,0.0625,0.125,0.03125,0.0,0.0,0.0
1664377680084,0.1640625,0.29003906,0.89160156,0.0625,0.125,0.03125,0.0,0.0,0.0
1664377680124,0.16015625,0.28125,0.88964844,-0.0625,0.0625,-0.03125,0.0,0.0,0.0
1664377680124,0.16015625,0.28125,0.88964844,-0.0625,0.0625,-0.03125,0.0,0.0,0.0
1664377680164,0.16699219,0.2939453,0.8925781,0.0625,-0.28125,0.1875,-17.375,18.8125,-93.1875
1664377680164,0.16699219,0.2939453,0.8925781,0.0625,-0.28125,0.1875,-17.375,18.8125,-93.1875
1664377680204,0.15917969,0.29003906,0.8925781,-0.125,0.0625,0.03125,0.0,0.0,0.0
1664377680204,0.15917969,0.29003906,0.8925781,-0.125,0.0625,0.03125,0.0,0.0,0.0
1664377680244,0.16015625,0.2919922,0.8925781,0.125,0.0625,0.09375,0.0,0.0,0.0
1664377680244,0.16015625,0.2919922,0.8925781,0.125,0.0625,0.09375,0.0,0.0,0.0
1664377680284,0.15332031,0.28808594,0.8876953,0.125,-0.28125,0.3125,0.0,0.0,0.0
1664377680286,0.15332031,0.28808594,0.8876953,0.125,-0.28125,0.3125,0.0,0.0,0.0
1664377680324,0.15820312,0.2919922,0.8925781,0.0,0.0625,0.25,0.0,0.0,0.0
1664377680324,0.15820312,0.2919922,0.8925781,0.0,0.0625,0.25,0.0,0.0,0.0
1664377680343,0.16113281,0.28710938,0.8935547,0.125,0.0,0.25,0.0,0.0,0.0
1664377680343,0.16113281,0.28710938,0.8935547,0.125,0.0,0.25,0.0,0.0,0.0
1664377680385,0.1640625,0.2919922,0.8925781,-0.0625,0.4375,-0.09375,0.0,0.0,0.0
1664377680385,0.1640625,0.2919922,0.8925781,-0.0625,0.4375,-0.09375,0.0,0.0,0.0
1664377680424,0.15625,0.2939453,0.8925781,0.25,0.0,0.3125,0.0,0.0,0.0
1664377680424,0.15625,0.2939453,0.8925781,0.25,0.0,0.3125,0.0,0.0,0.0
1664377680465,0.16308594,0.28710938,0.87890625,0.0,-0.0625,0.1875,0.0,0.0,0.0
1664377680465,0.16308594,0.28710938,0.87890625,0.0,-0.0625,0.1875,0.0,0.0,0.0
1664377680505,0.15332031,0.29003906,0.8964844,0.0625,-0.28125,0.25,0.0,0.0,0.0
1664377680507,0.15332031,0.29003906,0.8964844,0.0625,-0.28125,0.25,0.0,0.0,0.0
1664377680544,0.16503906,0.28808594,0.8964844,0.0,-0.09375,0.09375,0.0,0.0,0.0
1664377680545,0.16503906,0.28808594,0.8964844,0.0,-0.09375,0.09375,0.0,0.0,0.0
1664377680584,0.1640625,0.28125,0.89746094,0.0,-0.15625,0.25,0.0,0.0,0.0
1664377680584,0.1640625,0.28125,0.89746094,0.0,-0.15625,0.25,0.0,0.0,0.0
1664377680644,0.16308594,0.2919922,0.90234375,0.1875,-0.15625,0.4375,-18.3125,17.875,-92.75
1664377680644,0.16308594,0.2919922,0.90234375,0.1875,-0.15625,0.4375,-18.3125,17.875,-92.75
1664377680665,0.16113281,0.2890625,0.89746094,0.125,-0.0625,0.1875,0.0,0.0,0.0
1664377680664,0.16113281,0.2890625,0.89746094,0.125,-0.0625,0.1875,0.0,0.0,0.0
1664377680706,0.15527344,0.2919922,0.890625,0.25,-0.0625,0.4375,0.0,0.0,0.0
1664377680706,0.15527344,0.2919922,0.890625,0.25,-0.0625,0.4375,0.0,0.0,0.0
1664377680746,0.15917969,0.28125,0.8984375,0.0,-0.15625,0.5,0.0,0.0,0.0
1664377680746,0.15917969,0.28125,0.8984375,0.0,-0.15625,0.5,0.0,0.0,0.0
1664377680783,0.15429688,0.28808594,0.90625,0.125,-0.28125,0.5,0.0,0.0,0.0
1664377680783,0.15429688,0.28808594,0.90625,0.125,-0.28125,0.5,0.0,0.0,0.0
1664377680824,0.16015625,0.28808594,0.8984375,0.0625,-0.15625,0.375,0.0,0.0,0.0
1664377680824,0.16015625,0.28808594,0.8984375,0.0625,-0.15625,0.375,0.0,0.0,0.0
1664377680864,0.15234375,0.2939453,0.88378906,0.0625,-0.46875,0.5625,0.0,0.0,0.0
1664377680864,0.15234375,0.2939453,0.88378906,0.0625,-0.46875,0.5625,0.0,0.0,0.0
1664377680904,0.16015625,0.2890625,0.88964844,0.1875,-0.28125,0.5625,0.0,0.0,0.0
1664377680907,0.16015625,0.2890625,0.88964844,0.1875,-0.28125,0.5625,0.0,0.0,0.0
1664377680945,0.16015625,0.29003906,0.8935547,0.0625,-0.09375,0.5,0.0,0.0,0.0
1664377680944,0.16015625,0.29003906,0.8935547,0.0625,-0.09375,0.5,0.0,0.0,0.0
1664377680984,0.16308594,0.2841797,0.9082031,0.25,-0.15625,0.5,0.0,0.0,0.0
1664377680984,0.16308594,0.2841797,0.9082031,0.25,-0.15625,0.5,0.0,0.0,0.0
1664377681026,0.16503906,0.29785156,0.8847656,0.0625,-0.28125,0.625,0.0,0.0,0.0
1664377681026,0.16503906,0.29785156,0.8847656,0.0625,-0.28125,0.625,0.0,0.0,0.0
1664377681067,0.16210938,0.2890625,0.8857422,0.0,-0.21875,0.6875,0.0,0.0,0.0
1664377681067,0.16210938,0.2890625,0.8857422,0.0,-0.21875,0.6875,0.0,0.0,0.0
1664377681103,0.1640625,0.27929688,0.89941406,0.25,0.125,0.5625,0.0,0.0,0.0
1664377681103,0.1640625,0.27929688,0.89941406,0.25,0.125,0.5625,0.0,0.0,0.0
1664377681165,0.16308594,0.29003906,0.8964844,0.0,0.0625,0.375,-17.6875,17.75,-93.1875
1664377681164,0.16308594,0.29003906,0.8964844,0.0,0.0625,0.375,-17.6875,17.75,-93.1875
1664377681205,0.15332031,0.28808594,0.88183594,0.25,-0.40625,0.5625,0.0,0.0,0.0
1664377681205,0.15332031,0.28808594,0.88183594,0.25,-0.40625,0.5625,0.0,0.0,0.0
1664377681224,0.16796875,0.28808594,0.8935547,0.0,-0.21875,0.375,0.0,0.0,0.0
1664377681224,0.16796875,0.28808594,0.8935547,0.0,-0.21875,0.375,0.0,0.0,0.0
1664377681266,0.16113281,0.2890625,0.8798828,0.3125,-0.59375,0.5625,0.0,0.0,0.0
1664377681266,0.16113281,0.2890625,0.8798828,0.3125,-0.59375,0.5625,0.0,0.0,0.0
1664377681304,0.16503906,0.28515625,0.8955078,0.0,-0.34375,0.375,0.0,0.0,0.0
1664377681305,0.16503906,0.28515625,0.8955078,0.0,-0.34375,0.375,0.0,0.0,0.0
1664377681345,0.1640625,0.2890625,0.8984375,0.4375,-0.71875,0.75,0.0,0.0,0.0
1664377681344,0.1640625,0.2890625,0.8984375,0.4375,-0.71875,0.75,0.0,0.0,0.0
1664377681383,0.16699219,0.28710938,0.9013672,-0.0625,-0.28125,0.5,0.0,0.0,0.0
1664377681384,0.16699219,0.28710938,0.9013672,-0.0625,-0.28125,0.5,0.0,0.0,0.0
1664377681425,0.16113281,0.2841797,0.90527344,0.0625,0.0625,0.5625,0.0,0.0,0.0
1664377681425,0.16113281,0.2841797,0.90527344,0.0625,0.0625,0.5625,0.0,0.0,0.0
1664377681463,0.16992188,0.28710938,0.88964844,0.25,-0.53125,0.5625,0.0,0.0,0.0
1664377681463,0.16992188,0.28710938,0.88964844,0.25,-0.53125,0.5625,0.0,0.0,0.0
1664377681504,0.16796875,0.2861328,0.88671875,0.25,-0.21875,0.625,0.0,0.0,0.0
1664377681504,0.16796875,0.2861328,0.88671875,0.25,-0.21875,0.625,0.0,0.0,0.0
1664377681544,0.16601562,0.28710938,0.88183594,0.1875,-0.40625,0.5,0.0,0.0,0.0
1664377681544,0.16601562,0.28710938,0.88183594,0.1875,-0.40625,0.5,0.0,0.0,0.0
1664377681584,0.16015625,0.2919922,0.89453125,0.125,-0.59375,0.5,0.0,0.0,0.0
1664377681584,0.16015625,0.2919922,0.89453125,0.125,-0.59375,0.5,0.0,0.0,0.0
1664377681644,0.16015625,0.28808594,0.8984375,0.125,-0.40625,0.5,-18.625,17.875,-94.125
1664377681645,0.16015625,0.28808594,0.8984375,0.125,-0.40625,0.5,-18.625,17.875,-94.125
1664377681663,0.16992188,0.28320312,0.8886719,0.375,-0.53125,0.375,0.0,0.0,0.0
1664377681664,0.16992188,0.28320312,0.8886719,0.375,-0.53125,0.375,0.0,0.0,0.0
1664377681704,0.16992188,0.29003906,0.9013672,0.1875,-0.34375,0.375,0.0,0.0,0.0
1664377681704,0.16992188,0.29003906,0.9013672,0.1875,-0.34375,0.375,0.0,0.0,0.0
1664377681745,0.16308594,0.29003906,0.8984375,0.0,-0.21875,0.3125,0.0,0.0,0.0
1664377681744,0.16308594,0.29003906,0.8984375,0.0,-0.21875,0.3125,0.0,0.0,0.0
1664377681784,0.16699219,0.29003906,0.8876953,0.125,-0.34375,0.25,0.0,0.0,0.0
1664377681784,0.16699219,0.29003906,0.8876953,0.125,-0.34375,0.25,0.0,0.0,0.0
1664377681824,0.1640625,0.2841797,0.88964844,0.25,-0.0625,0.375,0.0,0.0,0.0
1664377681825,0.1640625,0.2841797,0.88964844,0.25,-0.0625,0.375,0.0,0.0,0.0
1664377681864,0.1640625,0.27929688,0.89160156,-0.0625,0.5,0.03125,0.0,0.0,0.0
1664377681864,0.1640625,0.27929688,0.89160156,-0.0625,0.5,0.03125,0.0,0.0,0.0
